{"info": {"finish": 1548047799986, "participant": 126, "exposed": true, "lab": false, "start": 1548047357262, "counterbalance": 4, "gentype": 2, "condition": "Cluster", "browser": {"platform": "Win32", "userAgent": "Mozilla/5.0 (Windows NT 10.0) AppleWebKit/537.36 (KHTML, like Gecko) Chrome/71.0.3578.98 Safari/537.36"}}, "observation": {"11": {"stimulus": 583, "trial": 11, "rt": 1768}, "10": {"stimulus": 1093, "trial": 10, "rt": 1534}, "1": {"stimulus": 1083, "trial": 1, "rt": 2228}, "0": {"stimulus": 392, "trial": 0, "rt": 5550}, "3": {"stimulus": 583, "trial": 3, "rt": 2183}, "2": {"stimulus": 1093, "trial": 2, "rt": 2264}, "5": {"stimulus": 1083, "trial": 5, "rt": 1982}, "4": {"stimulus": 1093, "trial": 4, "rt": 2054}, "7": {"stimulus": 392, "trial": 7, "rt": 1724}, "6": {"stimulus": 583, "trial": 6, "rt": 1814}, "9": {"stimulus": 392, "trial": 9, "rt": 1751}, "8": {"stimulus": 1083, "trial": 8, "rt": 1638}}, "generation": {"1": {"category": "Beta", "trial": 1, "stimulus": 1650, "rt": 8140}, "0": {"category": "Beta", "trial": 0, "stimulus": 1350, "rt": 11460}, "3": {"category": "Beta", "trial": 3, "stimulus": 1150, "rt": 4619}, "2": {"category": "Beta", "trial": 2, "stimulus": 1450, "rt": 5976}, "5": {"category": "Gamma", "trial": 5, "stimulus": 2466, "rt": 5417}, "4": {"category": "Gamma", "trial": 4, "stimulus": 2470, "rt": 12358}, "7": {"category": "Gamma", "trial": 7, "stimulus": 2467, "rt": 12992}, "6": {"category": "Gamma", "trial": 6, "stimulus": 2469, "rt": 6695}}, "generalization": {"56": {"stimulus": 187, "trial": 56, "rt": 1206, "response": "Beta"}, "77": {"stimulus": 1874, "trial": 77, "rt": 2790, "response": "Alpha"}, "54": {"stimulus": 749, "trial": 54, "rt": 3470, "response": "Alpha"}, "42": {"stimulus": 280, "trial": 42, "rt": 1228, "response": "Alpha"}, "48": {"stimulus": 687, "trial": 48, "rt": 981, "response": "Alpha"}, "43": {"stimulus": 30, "trial": 43, "rt": 1630, "response": "Alpha"}, "60": {"stimulus": 2093, "trial": 60, "rt": 767, "response": "Beta"}, "61": {"stimulus": 1124, "trial": 61, "rt": 981, "response": "Alpha"}, "62": {"stimulus": 1780, "trial": 62, "rt": 831, "response": "Alpha"}, "63": {"stimulus": 905, "trial": 63, "rt": 1055, "response": "Beta"}, "64": {"stimulus": 718, "trial": 64, "rt": 1646, "response": "Alpha"}, "49": {"stimulus": 1905, "trial": 49, "rt": 1093, "response": "Beta"}, "66": {"stimulus": 1843, "trial": 66, "rt": 6543, "response": "Alpha"}, "67": {"stimulus": 2374, "trial": 67, "rt": 959, "response": "Alpha"}, "68": {"stimulus": 1655, "trial": 68, "rt": 1176, "response": "Beta"}, "69": {"stimulus": 249, "trial": 69, "rt": 2613, "response": "Alpha"}, "80": {"stimulus": 499, "trial": 80, "rt": 1622, "response": "Alpha"}, "52": {"stimulus": 2312, "trial": 52, "rt": 910, "response": "Beta"}, "53": {"stimulus": 1312, "trial": 53, "rt": 1094, "response": "Beta"}, "24": {"stimulus": 1343, "trial": 24, "rt": 854, "response": "Alpha"}, "25": {"stimulus": 2030, "trial": 25, "rt": 951, "response": "Alpha"}, "26": {"stimulus": 2218, "trial": 26, "rt": 982, "response": "Beta"}, "27": {"stimulus": 1218, "trial": 27, "rt": 1368, "response": "Beta"}, "20": {"stimulus": 2280, "trial": 20, "rt": 1142, "response": "Gamma"}, "21": {"stimulus": 999, "trial": 21, "rt": 2679, "response": "Alpha"}, "22": {"stimulus": 343, "trial": 22, "rt": 793, "response": "Alpha"}, "23": {"stimulus": 655, "trial": 23, "rt": 1028, "response": "Beta"}, "46": {"stimulus": 1624, "trial": 46, "rt": 926, "response": "Alpha"}, "47": {"stimulus": 562, "trial": 47, "rt": 796, "response": "Beta"}, "44": {"stimulus": 405, "trial": 44, "rt": 1086, "response": "Beta"}, "45": {"stimulus": 1062, "trial": 45, "rt": 1031, "response": "Beta"}, "28": {"stimulus": 1593, "trial": 28, "rt": 1374, "response": "Alpha"}, "29": {"stimulus": 1530, "trial": 29, "rt": 942, "response": "Alpha"}, "40": {"stimulus": 1937, "trial": 40, "rt": 1654, "response": "Alpha"}, "41": {"stimulus": 2062, "trial": 41, "rt": 2350, "response": "Beta"}, "1": {"stimulus": 2187, "trial": 1, "rt": 4817, "response": "Alpha"}, "0": {"stimulus": 1718, "trial": 0, "rt": 2006, "response": "Alpha"}, "3": {"stimulus": 937, "trial": 3, "rt": 2414, "response": "Gamma"}, "2": {"stimulus": 1499, "trial": 2, "rt": 9550, "response": "Alpha"}, "5": {"stimulus": 812, "trial": 5, "rt": 1535, "response": "Beta"}, "4": {"stimulus": 593, "trial": 4, "rt": 1966, "response": "Alpha"}, "7": {"stimulus": 2343, "trial": 7, "rt": 2097, "response": "Gamma"}, "6": {"stimulus": 2405, "trial": 6, "rt": 1359, "response": "Gamma"}, "9": {"stimulus": 1468, "trial": 9, "rt": 1325, "response": "Beta"}, "8": {"stimulus": 1687, "trial": 8, "rt": 1009, "response": "Alpha"}, "78": {"stimulus": 468, "trial": 78, "rt": 1253, "response": "Alpha"}, "51": {"stimulus": 0, "trial": 51, "rt": 1153, "response": "Beta"}, "39": {"stimulus": 218, "trial": 39, "rt": 1206, "response": "Beta"}, "65": {"stimulus": 843, "trial": 65, "rt": 1167, "response": "Alpha"}, "76": {"stimulus": 1280, "trial": 76, "rt": 847, "response": "Alpha"}, "75": {"stimulus": 530, "trial": 75, "rt": 925, "response": "Alpha"}, "38": {"stimulus": 1093, "trial": 38, "rt": 1272, "response": "Alpha"}, "73": {"stimulus": 968, "trial": 73, "rt": 2215, "response": "Alpha"}, "72": {"stimulus": 2155, "trial": 72, "rt": 1111, "response": "Beta"}, "71": {"stimulus": 124, "trial": 71, "rt": 1310, "response": "Alpha"}, "70": {"stimulus": 1749, "trial": 70, "rt": 960, "response": "Alpha"}, "59": {"stimulus": 1812, "trial": 59, "rt": 1038, "response": "Beta"}, "79": {"stimulus": 2499, "trial": 79, "rt": 2159, "response": "Gamma"}, "58": {"stimulus": 1374, "trial": 58, "rt": 1208, "response": "Alpha"}, "11": {"stimulus": 2437, "trial": 11, "rt": 1182, "response": "Gamma"}, "10": {"stimulus": 2468, "trial": 10, "rt": 1348, "response": "Gamma"}, "13": {"stimulus": 155, "trial": 13, "rt": 2270, "response": "Alpha"}, "12": {"stimulus": 62, "trial": 12, "rt": 1927, "response": "Alpha"}, "15": {"stimulus": 624, "trial": 15, "rt": 1577, "response": "Alpha"}, "14": {"stimulus": 2249, "trial": 14, "rt": 11797, "response": "Alpha"}, "17": {"stimulus": 1249, "trial": 17, "rt": 1184, "response": "Alpha"}, "16": {"stimulus": 1562, "trial": 16, "rt": 2299, "response": "Beta"}, "19": {"stimulus": 1968, "trial": 19, "rt": 870, "response": "Gamma"}, "18": {"stimulus": 1030, "trial": 18, "rt": 1173, "response": "Alpha"}, "31": {"stimulus": 93, "trial": 31, "rt": 1152, "response": "Alpha"}, "30": {"stimulus": 1999, "trial": 30, "rt": 998, "response": "Alpha"}, "37": {"stimulus": 312, "trial": 37, "rt": 19452, "response": "Beta"}, "36": {"stimulus": 780, "trial": 36, "rt": 1838, "response": "Alpha"}, "35": {"stimulus": 1155, "trial": 35, "rt": 6312, "response": "Beta"}, "34": {"stimulus": 374, "trial": 34, "rt": 1310, "response": "Alpha"}, "33": {"stimulus": 1405, "trial": 33, "rt": 1068, "response": "Beta"}, "55": {"stimulus": 437, "trial": 55, "rt": 863, "response": "Alpha"}, "74": {"stimulus": 874, "trial": 74, "rt": 926, "response": "Alpha"}, "32": {"stimulus": 1437, "trial": 32, "rt": 1469, "response": "Alpha"}, "57": {"stimulus": 1187, "trial": 57, "rt": 935, "response": "Alpha"}, "50": {"stimulus": 2124, "trial": 50, "rt": 1343, "response": "Alpha"}}, "experiment": {"Paradigm": "TACL", "Stimuli": "Size-Color Squares", "Experiment": "Generating-Multiple-Categories"}, "submit": {"timeTotal": 444183, "age": "28", "comments": "good", "sex": "male"}}