{"info": {"finish": 1548050527517, "participant": 130, "exposed": true, "lab": false, "start": 1548049964373, "counterbalance": 0, "gentype": 2, "condition": "XOR", "browser": {"platform": "Win32", "userAgent": "Mozilla/5.0 (Windows NT 10.0; Win64; x64) AppleWebKit/537.36 (KHTML, like Gecko) Chrome/71.0.3578.98 Safari/537.36"}}, "observation": {"11": {"stimulus": 818, "trial": 11, "rt": 2663}, "10": {"stimulus": 403, "trial": 10, "rt": 2232}, "1": {"stimulus": 403, "trial": 1, "rt": 4590}, "0": {"stimulus": 818, "trial": 0, "rt": 4901}, "3": {"stimulus": 1890, "trial": 3, "rt": 6093}, "2": {"stimulus": 1479, "trial": 2, "rt": 2954}, "5": {"stimulus": 1479, "trial": 5, "rt": 2306}, "4": {"stimulus": 818, "trial": 4, "rt": 2619}, "7": {"stimulus": 1890, "trial": 7, "rt": 2342}, "6": {"stimulus": 403, "trial": 6, "rt": 2729}, "9": {"stimulus": 1479, "trial": 9, "rt": 2589}, "8": {"stimulus": 1890, "trial": 8, "rt": 2140}}, "generation": {"1": {"category": "Beta", "trial": 1, "stimulus": 1170, "rt": 15238}, "0": {"category": "Beta", "trial": 0, "stimulus": 299, "rt": 9117}, "3": {"category": "Beta", "trial": 3, "stimulus": 2073, "rt": 17574}, "2": {"category": "Beta", "trial": 2, "stimulus": 2452, "rt": 9173}, "5": {"category": "Gamma", "trial": 5, "stimulus": 1400, "rt": 7880}, "4": {"category": "Gamma", "trial": 4, "stimulus": 0, "rt": 16778}, "7": {"category": "Gamma", "trial": 7, "stimulus": 2450, "rt": 15726}, "6": {"category": "Gamma", "trial": 6, "stimulus": 2100, "rt": 5870}}, "generalization": {"56": {"stimulus": 1843, "trial": 56, "rt": 2222, "response": "Alpha"}, "77": {"stimulus": 62, "trial": 77, "rt": 2263, "response": "Alpha"}, "54": {"stimulus": 343, "trial": 54, "rt": 3005, "response": "Beta"}, "42": {"stimulus": 468, "trial": 42, "rt": 2919, "response": "Gamma"}, "48": {"stimulus": 1280, "trial": 48, "rt": 2398, "response": "Alpha"}, "43": {"stimulus": 624, "trial": 43, "rt": 6154, "response": "Beta"}, "60": {"stimulus": 1718, "trial": 60, "rt": 4422, "response": "Alpha"}, "61": {"stimulus": 249, "trial": 61, "rt": 1623, "response": "Beta"}, "62": {"stimulus": 2499, "trial": 62, "rt": 1935, "response": "Alpha"}, "63": {"stimulus": 499, "trial": 63, "rt": 1424, "response": "Beta"}, "64": {"stimulus": 2249, "trial": 64, "rt": 1575, "response": "Alpha"}, "49": {"stimulus": 2062, "trial": 49, "rt": 5681, "response": "Alpha"}, "66": {"stimulus": 2093, "trial": 66, "rt": 4545, "response": "Alpha"}, "67": {"stimulus": 374, "trial": 67, "rt": 3621, "response": "Alpha"}, "68": {"stimulus": 2155, "trial": 68, "rt": 1695, "response": "Gamma"}, "69": {"stimulus": 2343, "trial": 69, "rt": 2595, "response": "Alpha"}, "80": {"stimulus": 843, "trial": 80, "rt": 3653, "response": "Beta"}, "52": {"stimulus": 1312, "trial": 52, "rt": 3214, "response": "Gamma"}, "53": {"stimulus": 780, "trial": 53, "rt": 4358, "response": "Beta"}, "24": {"stimulus": 1780, "trial": 24, "rt": 4314, "response": "Alpha"}, "25": {"stimulus": 1530, "trial": 25, "rt": 2415, "response": "Alpha"}, "26": {"stimulus": 1187, "trial": 26, "rt": 3423, "response": "Beta"}, "27": {"stimulus": 530, "trial": 27, "rt": 4660, "response": "Beta"}, "20": {"stimulus": 1374, "trial": 20, "rt": 5574, "response": "Beta"}, "21": {"stimulus": 874, "trial": 21, "rt": 4041, "response": "Gamma"}, "22": {"stimulus": 2280, "trial": 22, "rt": 5289, "response": "Alpha"}, "23": {"stimulus": 749, "trial": 23, "rt": 1766, "response": "Beta"}, "46": {"stimulus": 593, "trial": 46, "rt": 1879, "response": "Beta"}, "47": {"stimulus": 1030, "trial": 47, "rt": 2630, "response": "Beta"}, "44": {"stimulus": 1999, "trial": 44, "rt": 1622, "response": "Alpha"}, "45": {"stimulus": 93, "trial": 45, "rt": 3301, "response": "Beta"}, "28": {"stimulus": 2124, "trial": 28, "rt": 2703, "response": "Gamma"}, "29": {"stimulus": 655, "trial": 29, "rt": 2031, "response": "Gamma"}, "40": {"stimulus": 405, "trial": 40, "rt": 1910, "response": "Gamma"}, "41": {"stimulus": 218, "trial": 41, "rt": 2284, "response": "Gamma"}, "1": {"stimulus": 0, "trial": 1, "rt": 4319, "response": "Alpha"}, "0": {"stimulus": 1343, "trial": 0, "rt": 6562, "response": "Alpha"}, "3": {"stimulus": 1218, "trial": 3, "rt": 5176, "response": "Alpha"}, "2": {"stimulus": 312, "trial": 2, "rt": 1790, "response": "Gamma"}, "5": {"stimulus": 1968, "trial": 5, "rt": 3954, "response": "Alpha"}, "4": {"stimulus": 718, "trial": 4, "rt": 4470, "response": "Beta"}, "7": {"stimulus": 1624, "trial": 7, "rt": 6828, "response": "Beta"}, "6": {"stimulus": 968, "trial": 6, "rt": 2858, "response": "Beta"}, "9": {"stimulus": 1593, "trial": 9, "rt": 1424, "response": "Alpha"}, "8": {"stimulus": 1249, "trial": 8, "rt": 5701, "response": "Alpha"}, "78": {"stimulus": 687, "trial": 78, "rt": 1599, "response": "Beta"}, "51": {"stimulus": 2312, "trial": 51, "rt": 2076, "response": "Gamma"}, "39": {"stimulus": 1155, "trial": 39, "rt": 2377, "response": "Gamma"}, "65": {"stimulus": 124, "trial": 65, "rt": 3471, "response": "Alpha"}, "76": {"stimulus": 1437, "trial": 76, "rt": 1544, "response": "Alpha"}, "75": {"stimulus": 280, "trial": 75, "rt": 2187, "response": "Beta"}, "38": {"stimulus": 999, "trial": 38, "rt": 1888, "response": "Beta"}, "73": {"stimulus": 1749, "trial": 73, "rt": 1515, "response": "Alpha"}, "72": {"stimulus": 1093, "trial": 72, "rt": 2160, "response": "Beta"}, "71": {"stimulus": 1812, "trial": 71, "rt": 3174, "response": "Beta"}, "70": {"stimulus": 905, "trial": 70, "rt": 4379, "response": "Gamma"}, "59": {"stimulus": 1499, "trial": 59, "rt": 1783, "response": "Beta"}, "79": {"stimulus": 1124, "trial": 79, "rt": 1317, "response": "Alpha"}, "58": {"stimulus": 2030, "trial": 58, "rt": 3006, "response": "Alpha"}, "11": {"stimulus": 1874, "trial": 11, "rt": 4347, "response": "Beta"}, "10": {"stimulus": 1937, "trial": 10, "rt": 1598, "response": "Alpha"}, "13": {"stimulus": 1062, "trial": 13, "rt": 4037, "response": "Beta"}, "12": {"stimulus": 437, "trial": 12, "rt": 3044, "response": "Beta"}, "15": {"stimulus": 2187, "trial": 15, "rt": 3335, "response": "Alpha"}, "14": {"stimulus": 2218, "trial": 14, "rt": 3454, "response": "Gamma"}, "17": {"stimulus": 1905, "trial": 17, "rt": 2941, "response": "Beta"}, "16": {"stimulus": 1405, "trial": 16, "rt": 7207, "response": "Beta"}, "19": {"stimulus": 1468, "trial": 19, "rt": 4631, "response": "Gamma"}, "18": {"stimulus": 937, "trial": 18, "rt": 5340, "response": "Beta"}, "31": {"stimulus": 2405, "trial": 31, "rt": 1775, "response": "Gamma"}, "30": {"stimulus": 155, "trial": 30, "rt": 2594, "response": "Gamma"}, "37": {"stimulus": 812, "trial": 37, "rt": 2955, "response": "Beta"}, "36": {"stimulus": 2374, "trial": 36, "rt": 4638, "response": "Alpha"}, "35": {"stimulus": 1687, "trial": 35, "rt": 4229, "response": "Beta"}, "34": {"stimulus": 1655, "trial": 34, "rt": 3680, "response": "Beta"}, "33": {"stimulus": 1562, "trial": 33, "rt": 3983, "response": "Alpha"}, "55": {"stimulus": 2468, "trial": 55, "rt": 3006, "response": "Alpha"}, "74": {"stimulus": 30, "trial": 74, "rt": 3895, "response": "Beta"}, "32": {"stimulus": 2437, "trial": 32, "rt": 1496, "response": "Alpha"}, "57": {"stimulus": 562, "trial": 57, "rt": 1577, "response": "Gamma"}, "50": {"stimulus": 187, "trial": 50, "rt": 2863, "response": "Beta"}}, "experiment": {"Paradigm": "TACL", "Stimuli": "Size-Color Squares", "Experiment": "Generating-Multiple-Categories"}, "submit": {"timeTotal": 563336, "age": "37", "comments": "", "sex": "male"}}