{"info": {"finish": 1548050502995, "participant": 131, "exposed": true, "lab": false, "start": 1548050070947, "counterbalance": 3, "gentype": 0, "condition": "Row", "browser": {"platform": "Win32", "userAgent": "Mozilla/5.0 (Windows NT 10.0; Win64; x64) AppleWebKit/537.36 (KHTML, like Gecko) Chrome/71.0.3578.98 Safari/537.36"}}, "observation": {"11": {"stimulus": 582, "trial": 11, "rt": 4218}, "10": {"stimulus": 493, "trial": 10, "rt": 3558}, "1": {"stimulus": 582, "trial": 1, "rt": 3799}, "0": {"stimulus": 421, "trial": 0, "rt": 4097}, "3": {"stimulus": 493, "trial": 3, "rt": 3681}, "2": {"stimulus": 612, "trial": 2, "rt": 4009}, "5": {"stimulus": 612, "trial": 5, "rt": 3477}, "4": {"stimulus": 421, "trial": 4, "rt": 3541}, "7": {"stimulus": 493, "trial": 7, "rt": 3448}, "6": {"stimulus": 582, "trial": 6, "rt": 3206}, "9": {"stimulus": 612, "trial": 9, "rt": 9370}, "8": {"stimulus": 421, "trial": 8, "rt": 3244}}, "generation": {"1": {"category": "Not-Alpha", "trial": 1, "stimulus": 1786, "rt": 7711}, "0": {"category": "Not-Alpha", "trial": 0, "stimulus": 2232, "rt": 9660}, "3": {"category": "Not-Alpha", "trial": 3, "stimulus": 2494, "rt": 7962}, "2": {"category": "Not-Alpha", "trial": 2, "stimulus": 1044, "rt": 12053}, "5": {"category": "Not-Alpha", "trial": 5, "stimulus": 31, "rt": 10366}, "4": {"category": "Not-Alpha", "trial": 4, "stimulus": 1344, "rt": 6090}, "7": {"category": "Not-Alpha", "trial": 7, "stimulus": 1194, "rt": 5904}, "6": {"category": "Not-Alpha", "trial": 6, "stimulus": 1844, "rt": 5412}}, "generalization": {"56": {"stimulus": 2124, "trial": 56, "rt": 1570, "response": "Beta"}, "77": {"stimulus": 1999, "trial": 77, "rt": 1321, "response": "Beta"}, "54": {"stimulus": 780, "trial": 54, "rt": 2334, "response": "Beta"}, "42": {"stimulus": 1343, "trial": 42, "rt": 1532, "response": "Beta"}, "48": {"stimulus": 1530, "trial": 48, "rt": 1260, "response": "Beta"}, "43": {"stimulus": 1874, "trial": 43, "rt": 1454, "response": "Beta"}, "60": {"stimulus": 2093, "trial": 60, "rt": 1089, "response": "Beta"}, "61": {"stimulus": 499, "trial": 61, "rt": 1525, "response": "Alpha"}, "62": {"stimulus": 1280, "trial": 62, "rt": 1586, "response": "Beta"}, "63": {"stimulus": 905, "trial": 63, "rt": 1562, "response": "Beta"}, "64": {"stimulus": 0, "trial": 64, "rt": 1839, "response": "Alpha"}, "49": {"stimulus": 2374, "trial": 49, "rt": 1166, "response": "Beta"}, "66": {"stimulus": 2155, "trial": 66, "rt": 990, "response": "Beta"}, "67": {"stimulus": 2249, "trial": 67, "rt": 1132, "response": "Beta"}, "68": {"stimulus": 1937, "trial": 68, "rt": 1055, "response": "Beta"}, "69": {"stimulus": 1374, "trial": 69, "rt": 1358, "response": "Beta"}, "80": {"stimulus": 530, "trial": 80, "rt": 1538, "response": "Alpha"}, "52": {"stimulus": 999, "trial": 52, "rt": 2754, "response": "Beta"}, "53": {"stimulus": 2468, "trial": 53, "rt": 1280, "response": "Beta"}, "24": {"stimulus": 843, "trial": 24, "rt": 2934, "response": "Beta"}, "25": {"stimulus": 2405, "trial": 25, "rt": 1318, "response": "Beta"}, "26": {"stimulus": 155, "trial": 26, "rt": 4936, "response": "Alpha"}, "27": {"stimulus": 655, "trial": 27, "rt": 2483, "response": "Beta"}, "20": {"stimulus": 968, "trial": 20, "rt": 1947, "response": "Beta"}, "21": {"stimulus": 1218, "trial": 21, "rt": 1770, "response": "Beta"}, "22": {"stimulus": 30, "trial": 22, "rt": 5361, "response": "Beta"}, "23": {"stimulus": 687, "trial": 23, "rt": 4653, "response": "Alpha"}, "46": {"stimulus": 812, "trial": 46, "rt": 2243, "response": "Beta"}, "47": {"stimulus": 2499, "trial": 47, "rt": 1405, "response": "Beta"}, "44": {"stimulus": 280, "trial": 44, "rt": 2371, "response": "Alpha"}, "45": {"stimulus": 1687, "trial": 45, "rt": 1477, "response": "Beta"}, "28": {"stimulus": 1187, "trial": 28, "rt": 1400, "response": "Beta"}, "29": {"stimulus": 93, "trial": 29, "rt": 1538, "response": "Alpha"}, "40": {"stimulus": 718, "trial": 40, "rt": 2258, "response": "Alpha"}, "41": {"stimulus": 187, "trial": 41, "rt": 2088, "response": "Alpha"}, "1": {"stimulus": 437, "trial": 1, "rt": 2607, "response": "Alpha"}, "0": {"stimulus": 2030, "trial": 0, "rt": 2939, "response": "Beta"}, "3": {"stimulus": 343, "trial": 3, "rt": 2551, "response": "Alpha"}, "2": {"stimulus": 562, "trial": 2, "rt": 4442, "response": "Beta"}, "5": {"stimulus": 1062, "trial": 5, "rt": 1707, "response": "Beta"}, "4": {"stimulus": 2062, "trial": 4, "rt": 1478, "response": "Beta"}, "7": {"stimulus": 468, "trial": 7, "rt": 1743, "response": "Alpha"}, "6": {"stimulus": 2218, "trial": 6, "rt": 1325, "response": "Beta"}, "9": {"stimulus": 1812, "trial": 9, "rt": 1259, "response": "Beta"}, "8": {"stimulus": 1468, "trial": 8, "rt": 1472, "response": "Beta"}, "78": {"stimulus": 2343, "trial": 78, "rt": 1004, "response": "Beta"}, "51": {"stimulus": 1562, "trial": 51, "rt": 1315, "response": "Beta"}, "39": {"stimulus": 937, "trial": 39, "rt": 1846, "response": "Beta"}, "65": {"stimulus": 1968, "trial": 65, "rt": 1815, "response": "Beta"}, "76": {"stimulus": 624, "trial": 76, "rt": 2332, "response": "Alpha"}, "75": {"stimulus": 1749, "trial": 75, "rt": 1575, "response": "Beta"}, "38": {"stimulus": 1155, "trial": 38, "rt": 1431, "response": "Beta"}, "73": {"stimulus": 1030, "trial": 73, "rt": 1441, "response": "Beta"}, "72": {"stimulus": 1593, "trial": 72, "rt": 1241, "response": "Beta"}, "71": {"stimulus": 1624, "trial": 71, "rt": 1383, "response": "Beta"}, "70": {"stimulus": 405, "trial": 70, "rt": 1419, "response": "Alpha"}, "59": {"stimulus": 2312, "trial": 59, "rt": 1225, "response": "Beta"}, "79": {"stimulus": 2280, "trial": 79, "rt": 2952, "response": "Beta"}, "58": {"stimulus": 1312, "trial": 58, "rt": 1485, "response": "Beta"}, "11": {"stimulus": 749, "trial": 11, "rt": 2018, "response": "Alpha"}, "10": {"stimulus": 874, "trial": 10, "rt": 2157, "response": "Beta"}, "13": {"stimulus": 374, "trial": 13, "rt": 1690, "response": "Alpha"}, "12": {"stimulus": 312, "trial": 12, "rt": 2587, "response": "Beta"}, "15": {"stimulus": 1718, "trial": 15, "rt": 1332, "response": "Beta"}, "14": {"stimulus": 1437, "trial": 14, "rt": 2195, "response": "Beta"}, "17": {"stimulus": 1655, "trial": 17, "rt": 1306, "response": "Beta"}, "16": {"stimulus": 124, "trial": 16, "rt": 3975, "response": "Beta"}, "19": {"stimulus": 1499, "trial": 19, "rt": 1416, "response": "Beta"}, "18": {"stimulus": 2187, "trial": 18, "rt": 1357, "response": "Beta"}, "31": {"stimulus": 1905, "trial": 31, "rt": 1224, "response": "Beta"}, "30": {"stimulus": 1249, "trial": 30, "rt": 1528, "response": "Beta"}, "37": {"stimulus": 1843, "trial": 37, "rt": 1264, "response": "Beta"}, "36": {"stimulus": 1405, "trial": 36, "rt": 1424, "response": "Beta"}, "35": {"stimulus": 1780, "trial": 35, "rt": 1153, "response": "Beta"}, "34": {"stimulus": 2437, "trial": 34, "rt": 1272, "response": "Beta"}, "33": {"stimulus": 1093, "trial": 33, "rt": 1708, "response": "Beta"}, "55": {"stimulus": 593, "trial": 55, "rt": 1505, "response": "Alpha"}, "74": {"stimulus": 218, "trial": 74, "rt": 1616, "response": "Alpha"}, "32": {"stimulus": 249, "trial": 32, "rt": 1438, "response": "Alpha"}, "57": {"stimulus": 62, "trial": 57, "rt": 1827, "response": "Alpha"}, "50": {"stimulus": 1124, "trial": 50, "rt": 1599, "response": "Beta"}}, "experiment": {"Paradigm": "TACL", "Stimuli": "Size-Color Squares", "Experiment": "Generating-Multiple-Categories"}, "submit": {"timeTotal": 432338, "age": "32", "comments": "By the time I got to the task I'd forgotten the shade of gray!", "sex": "Female"}}