{"info": {"finish": 1548050428472, "participant": 134, "exposed": true, "lab": false, "start": 1548050125762, "counterbalance": 2, "gentype": 0, "condition": "Cluster", "browser": {"platform": "Win32", "userAgent": "Mozilla/5.0 (Windows NT 10.0; Win64; x64; rv:64.0) Gecko/20100101 Firefox/64.0"}}, "observation": {"11": {"stimulus": 1093, "trial": 11, "rt": 1584}, "10": {"stimulus": 1083, "trial": 10, "rt": 2255}, "1": {"stimulus": 583, "trial": 1, "rt": 2080}, "0": {"stimulus": 1093, "trial": 0, "rt": 5104}, "3": {"stimulus": 392, "trial": 3, "rt": 1582}, "2": {"stimulus": 1083, "trial": 2, "rt": 1640}, "5": {"stimulus": 583, "trial": 5, "rt": 1677}, "4": {"stimulus": 392, "trial": 4, "rt": 1512}, "7": {"stimulus": 1093, "trial": 7, "rt": 1606}, "6": {"stimulus": 1083, "trial": 6, "rt": 1702}, "9": {"stimulus": 392, "trial": 9, "rt": 1518}, "8": {"stimulus": 583, "trial": 8, "rt": 1663}}, "generation": {"1": {"category": "Not-Alpha", "trial": 1, "stimulus": 250, "rt": 5622}, "0": {"category": "Not-Alpha", "trial": 0, "stimulus": 0, "rt": 24047}, "3": {"category": "Not-Alpha", "trial": 3, "stimulus": 700, "rt": 3327}, "2": {"category": "Not-Alpha", "trial": 2, "stimulus": 550, "rt": 3007}, "5": {"category": "Not-Alpha", "trial": 5, "stimulus": 1300, "rt": 2999}, "4": {"category": "Not-Alpha", "trial": 4, "stimulus": 1150, "rt": 2943}, "7": {"category": "Not-Alpha", "trial": 7, "stimulus": 1900, "rt": 3288}, "6": {"category": "Not-Alpha", "trial": 6, "stimulus": 1700, "rt": 3239}}, "generalization": {"56": {"stimulus": 1999, "trial": 56, "rt": 487, "response": "Alpha"}, "77": {"stimulus": 2249, "trial": 77, "rt": 489, "response": "Alpha"}, "54": {"stimulus": 937, "trial": 54, "rt": 1080, "response": "Alpha"}, "42": {"stimulus": 1843, "trial": 42, "rt": 431, "response": "Alpha"}, "48": {"stimulus": 812, "trial": 48, "rt": 928, "response": "Beta"}, "43": {"stimulus": 218, "trial": 43, "rt": 934, "response": "Beta"}, "60": {"stimulus": 2218, "trial": 60, "rt": 696, "response": "Beta"}, "61": {"stimulus": 780, "trial": 61, "rt": 1014, "response": "Alpha"}, "62": {"stimulus": 374, "trial": 62, "rt": 599, "response": "Alpha"}, "63": {"stimulus": 2499, "trial": 63, "rt": 559, "response": "Alpha"}, "64": {"stimulus": 437, "trial": 64, "rt": 2274, "response": "Beta"}, "49": {"stimulus": 1093, "trial": 49, "rt": 838, "response": "Alpha"}, "66": {"stimulus": 1562, "trial": 66, "rt": 526, "response": "Beta"}, "67": {"stimulus": 1749, "trial": 67, "rt": 712, "response": "Alpha"}, "68": {"stimulus": 249, "trial": 68, "rt": 991, "response": "Beta"}, "69": {"stimulus": 30, "trial": 69, "rt": 753, "response": "Beta"}, "80": {"stimulus": 968, "trial": 80, "rt": 951, "response": "Beta"}, "52": {"stimulus": 312, "trial": 52, "rt": 597, "response": "Beta"}, "53": {"stimulus": 2062, "trial": 53, "rt": 520, "response": "Beta"}, "24": {"stimulus": 2312, "trial": 24, "rt": 1080, "response": "Alpha"}, "25": {"stimulus": 1655, "trial": 25, "rt": 846, "response": "Beta"}, "26": {"stimulus": 62, "trial": 26, "rt": 928, "response": "Beta"}, "27": {"stimulus": 1499, "trial": 27, "rt": 927, "response": "Alpha"}, "20": {"stimulus": 1218, "trial": 20, "rt": 910, "response": "Alpha"}, "21": {"stimulus": 0, "trial": 21, "rt": 894, "response": "Beta"}, "22": {"stimulus": 405, "trial": 22, "rt": 671, "response": "Beta"}, "23": {"stimulus": 1624, "trial": 23, "rt": 1191, "response": "Alpha"}, "46": {"stimulus": 2468, "trial": 46, "rt": 2320, "response": "Alpha"}, "47": {"stimulus": 93, "trial": 47, "rt": 1446, "response": "Beta"}, "44": {"stimulus": 2437, "trial": 44, "rt": 1264, "response": "Alpha"}, "45": {"stimulus": 1312, "trial": 45, "rt": 895, "response": "Beta"}, "28": {"stimulus": 749, "trial": 28, "rt": 582, "response": "Alpha"}, "29": {"stimulus": 624, "trial": 29, "rt": 2095, "response": "Alpha"}, "40": {"stimulus": 1812, "trial": 40, "rt": 816, "response": "Beta"}, "41": {"stimulus": 1187, "trial": 41, "rt": 839, "response": "Alpha"}, "1": {"stimulus": 1593, "trial": 1, "rt": 944, "response": "Alpha"}, "0": {"stimulus": 1343, "trial": 0, "rt": 2589, "response": "Alpha"}, "3": {"stimulus": 1874, "trial": 3, "rt": 1943, "response": "Beta"}, "2": {"stimulus": 187, "trial": 2, "rt": 1152, "response": "Beta"}, "5": {"stimulus": 1030, "trial": 5, "rt": 1455, "response": "Alpha"}, "4": {"stimulus": 1062, "trial": 4, "rt": 895, "response": "Beta"}, "7": {"stimulus": 1905, "trial": 7, "rt": 789, "response": "Beta"}, "6": {"stimulus": 2280, "trial": 6, "rt": 831, "response": "Alpha"}, "9": {"stimulus": 843, "trial": 9, "rt": 856, "response": "Alpha"}, "8": {"stimulus": 2030, "trial": 8, "rt": 2686, "response": "Alpha"}, "78": {"stimulus": 155, "trial": 78, "rt": 718, "response": "Beta"}, "51": {"stimulus": 905, "trial": 51, "rt": 681, "response": "Beta"}, "39": {"stimulus": 1437, "trial": 39, "rt": 496, "response": "Alpha"}, "65": {"stimulus": 124, "trial": 65, "rt": 1195, "response": "Beta"}, "76": {"stimulus": 468, "trial": 76, "rt": 679, "response": "Beta"}, "75": {"stimulus": 687, "trial": 75, "rt": 599, "response": "Alpha"}, "38": {"stimulus": 2374, "trial": 38, "rt": 2469, "response": "Beta"}, "73": {"stimulus": 2405, "trial": 73, "rt": 470, "response": "Beta"}, "72": {"stimulus": 1718, "trial": 72, "rt": 680, "response": "Beta"}, "71": {"stimulus": 1968, "trial": 71, "rt": 671, "response": "Beta"}, "70": {"stimulus": 2093, "trial": 70, "rt": 542, "response": "Alpha"}, "59": {"stimulus": 1687, "trial": 59, "rt": 575, "response": "Alpha"}, "79": {"stimulus": 2187, "trial": 79, "rt": 663, "response": "Alpha"}, "58": {"stimulus": 1280, "trial": 58, "rt": 2303, "response": "Alpha"}, "11": {"stimulus": 2343, "trial": 11, "rt": 982, "response": "Alpha"}, "10": {"stimulus": 1374, "trial": 10, "rt": 2158, "response": "Beta"}, "13": {"stimulus": 2124, "trial": 13, "rt": 1335, "response": "Beta"}, "12": {"stimulus": 999, "trial": 12, "rt": 790, "response": "Alpha"}, "15": {"stimulus": 343, "trial": 15, "rt": 1702, "response": "Beta"}, "14": {"stimulus": 562, "trial": 14, "rt": 952, "response": "Beta"}, "17": {"stimulus": 280, "trial": 17, "rt": 1591, "response": "Beta"}, "16": {"stimulus": 655, "trial": 16, "rt": 1208, "response": "Beta"}, "19": {"stimulus": 1405, "trial": 19, "rt": 863, "response": "Beta"}, "18": {"stimulus": 1124, "trial": 18, "rt": 2951, "response": "Alpha"}, "31": {"stimulus": 1530, "trial": 31, "rt": 1604, "response": "Alpha"}, "30": {"stimulus": 1155, "trial": 30, "rt": 857, "response": "Beta"}, "37": {"stimulus": 1937, "trial": 37, "rt": 695, "response": "Alpha"}, "36": {"stimulus": 593, "trial": 36, "rt": 630, "response": "Alpha"}, "35": {"stimulus": 2155, "trial": 35, "rt": 672, "response": "Beta"}, "34": {"stimulus": 1780, "trial": 34, "rt": 599, "response": "Alpha"}, "33": {"stimulus": 530, "trial": 33, "rt": 791, "response": "Alpha"}, "55": {"stimulus": 1249, "trial": 55, "rt": 584, "response": "Alpha"}, "74": {"stimulus": 718, "trial": 74, "rt": 528, "response": "Beta"}, "32": {"stimulus": 499, "trial": 32, "rt": 480, "response": "Alpha"}, "57": {"stimulus": 1468, "trial": 57, "rt": 712, "response": "Beta"}, "50": {"stimulus": 874, "trial": 50, "rt": 1160, "response": "Alpha"}}, "experiment": {"Paradigm": "TACL", "Stimuli": "Size-Color Squares", "Experiment": "Generating-Multiple-Categories"}, "submit": {"timeTotal": 303064, "age": "38", "comments": "Really weird survey", "sex": "Male"}}