{"info": {"finish": 1548050739384, "participant": 135, "exposed": true, "lab": false, "start": 1548050141024, "counterbalance": 5, "gentype": 1, "condition": "XOR", "browser": {"platform": "Win32", "userAgent": "Mozilla/5.0 (Windows NT 6.1) AppleWebKit/537.36 (KHTML, like Gecko) Chrome/71.0.3578.98 Safari/537.36"}}, "observation": {"11": {"stimulus": 1890, "trial": 11, "rt": 10506}, "10": {"stimulus": 1479, "trial": 10, "rt": 3011}, "1": {"stimulus": 818, "trial": 1, "rt": 5037}, "0": {"stimulus": 1479, "trial": 0, "rt": 7344}, "3": {"stimulus": 403, "trial": 3, "rt": 2942}, "2": {"stimulus": 1890, "trial": 2, "rt": 2427}, "5": {"stimulus": 1479, "trial": 5, "rt": 2540}, "4": {"stimulus": 818, "trial": 4, "rt": 2126}, "7": {"stimulus": 403, "trial": 7, "rt": 2152}, "6": {"stimulus": 1890, "trial": 6, "rt": 2190}, "9": {"stimulus": 818, "trial": 9, "rt": 5080}, "8": {"stimulus": 403, "trial": 8, "rt": 2057}}, "generation": {"1": {"category": "Beta", "trial": 1, "stimulus": 1385, "rt": 11688}, "0": {"category": "Beta", "trial": 0, "stimulus": 1231, "rt": 15055}, "3": {"category": "Beta", "trial": 3, "stimulus": 2239, "rt": 9372}, "2": {"category": "Beta", "trial": 2, "stimulus": 703, "rt": 15701}, "5": {"category": "Beta", "trial": 5, "stimulus": 1466, "rt": 13590}, "4": {"category": "Beta", "trial": 4, "stimulus": 1977, "rt": 13781}, "7": {"category": "Beta", "trial": 7, "stimulus": 2353, "rt": 8457}, "6": {"category": "Beta", "trial": 6, "stimulus": 1159, "rt": 12339}}, "generalization": {"56": {"stimulus": 1218, "trial": 56, "rt": 440, "response": "Alpha"}, "77": {"stimulus": 312, "trial": 77, "rt": 502, "response": "Alpha"}, "54": {"stimulus": 1530, "trial": 54, "rt": 440, "response": "Beta"}, "42": {"stimulus": 1343, "trial": 42, "rt": 542, "response": "Beta"}, "48": {"stimulus": 2374, "trial": 48, "rt": 477, "response": "Beta"}, "43": {"stimulus": 1437, "trial": 43, "rt": 630, "response": "Beta"}, "60": {"stimulus": 1624, "trial": 60, "rt": 543, "response": "Alpha"}, "61": {"stimulus": 1062, "trial": 61, "rt": 359, "response": "Alpha"}, "62": {"stimulus": 187, "trial": 62, "rt": 382, "response": "Alpha"}, "63": {"stimulus": 124, "trial": 63, "rt": 584, "response": "Alpha"}, "64": {"stimulus": 499, "trial": 64, "rt": 456, "response": "Alpha"}, "49": {"stimulus": 843, "trial": 49, "rt": 541, "response": "Beta"}, "66": {"stimulus": 812, "trial": 66, "rt": 646, "response": "Alpha"}, "67": {"stimulus": 2468, "trial": 67, "rt": 661, "response": "Alpha"}, "68": {"stimulus": 62, "trial": 68, "rt": 471, "response": "Alpha"}, "69": {"stimulus": 2312, "trial": 69, "rt": 3855, "response": "Alpha"}, "80": {"stimulus": 1093, "trial": 80, "rt": 428, "response": "Alpha"}, "52": {"stimulus": 593, "trial": 52, "rt": 453, "response": "Beta"}, "53": {"stimulus": 2499, "trial": 53, "rt": 439, "response": "Beta"}, "24": {"stimulus": 0, "trial": 24, "rt": 414, "response": "Beta"}, "25": {"stimulus": 280, "trial": 25, "rt": 434, "response": "Beta"}, "26": {"stimulus": 2093, "trial": 26, "rt": 379, "response": "Beta"}, "27": {"stimulus": 2249, "trial": 27, "rt": 373, "response": "Beta"}, "20": {"stimulus": 1030, "trial": 20, "rt": 431, "response": "Beta"}, "21": {"stimulus": 1687, "trial": 21, "rt": 476, "response": "Beta"}, "22": {"stimulus": 1999, "trial": 22, "rt": 401, "response": "Beta"}, "23": {"stimulus": 1280, "trial": 23, "rt": 422, "response": "Beta"}, "46": {"stimulus": 1249, "trial": 46, "rt": 928, "response": "Beta"}, "47": {"stimulus": 1405, "trial": 47, "rt": 774, "response": "Beta"}, "44": {"stimulus": 624, "trial": 44, "rt": 476, "response": "Beta"}, "45": {"stimulus": 437, "trial": 45, "rt": 487, "response": "Beta"}, "28": {"stimulus": 30, "trial": 28, "rt": 404, "response": "Beta"}, "29": {"stimulus": 1843, "trial": 29, "rt": 376, "response": "Beta"}, "40": {"stimulus": 1499, "trial": 40, "rt": 429, "response": "Beta"}, "41": {"stimulus": 1374, "trial": 41, "rt": 559, "response": "Beta"}, "1": {"stimulus": 374, "trial": 1, "rt": 5314, "response": "Beta"}, "0": {"stimulus": 155, "trial": 0, "rt": 46711, "response": "Alpha"}, "3": {"stimulus": 874, "trial": 3, "rt": 2679, "response": "Beta"}, "2": {"stimulus": 468, "trial": 2, "rt": 4057, "response": "Alpha"}, "5": {"stimulus": 2124, "trial": 5, "rt": 1111, "response": "Alpha"}, "4": {"stimulus": 2343, "trial": 4, "rt": 4534, "response": "Alpha"}, "7": {"stimulus": 1187, "trial": 7, "rt": 1480, "response": "Alpha"}, "6": {"stimulus": 1718, "trial": 6, "rt": 2503, "response": "Beta"}, "9": {"stimulus": 1593, "trial": 9, "rt": 932, "response": "Alpha"}, "8": {"stimulus": 1937, "trial": 8, "rt": 1537, "response": "Beta"}, "78": {"stimulus": 2062, "trial": 78, "rt": 462, "response": "Alpha"}, "51": {"stimulus": 1468, "trial": 51, "rt": 422, "response": "Beta"}, "39": {"stimulus": 780, "trial": 39, "rt": 574, "response": "Beta"}, "65": {"stimulus": 749, "trial": 65, "rt": 420, "response": "Alpha"}, "76": {"stimulus": 999, "trial": 76, "rt": 476, "response": "Alpha"}, "75": {"stimulus": 1312, "trial": 75, "rt": 742, "response": "Alpha"}, "38": {"stimulus": 2405, "trial": 38, "rt": 414, "response": "Beta"}, "73": {"stimulus": 937, "trial": 73, "rt": 2302, "response": "Alpha"}, "72": {"stimulus": 1812, "trial": 72, "rt": 1089, "response": "Alpha"}, "71": {"stimulus": 562, "trial": 71, "rt": 806, "response": "Alpha"}, "70": {"stimulus": 2030, "trial": 70, "rt": 1671, "response": "Alpha"}, "59": {"stimulus": 93, "trial": 59, "rt": 525, "response": "Alpha"}, "79": {"stimulus": 1124, "trial": 79, "rt": 407, "response": "Alpha"}, "58": {"stimulus": 2218, "trial": 58, "rt": 382, "response": "Alpha"}, "11": {"stimulus": 905, "trial": 11, "rt": 2126, "response": "Alpha"}, "10": {"stimulus": 2155, "trial": 10, "rt": 1718, "response": "Beta"}, "13": {"stimulus": 1655, "trial": 13, "rt": 2413, "response": "Beta"}, "12": {"stimulus": 2280, "trial": 12, "rt": 2947, "response": "Alpha"}, "15": {"stimulus": 1874, "trial": 15, "rt": 5558, "response": "Beta"}, "14": {"stimulus": 1155, "trial": 14, "rt": 1021, "response": "Beta"}, "17": {"stimulus": 655, "trial": 17, "rt": 701, "response": "Beta"}, "16": {"stimulus": 1968, "trial": 16, "rt": 2310, "response": "Beta"}, "19": {"stimulus": 687, "trial": 19, "rt": 664, "response": "Beta"}, "18": {"stimulus": 718, "trial": 18, "rt": 503, "response": "Beta"}, "31": {"stimulus": 405, "trial": 31, "rt": 377, "response": "Beta"}, "30": {"stimulus": 1780, "trial": 30, "rt": 461, "response": "Beta"}, "37": {"stimulus": 2187, "trial": 37, "rt": 510, "response": "Beta"}, "36": {"stimulus": 968, "trial": 36, "rt": 478, "response": "Beta"}, "35": {"stimulus": 249, "trial": 35, "rt": 528, "response": "Beta"}, "34": {"stimulus": 530, "trial": 34, "rt": 629, "response": "Beta"}, "33": {"stimulus": 2437, "trial": 33, "rt": 606, "response": "Beta"}, "55": {"stimulus": 1562, "trial": 55, "rt": 1334, "response": "Alpha"}, "74": {"stimulus": 343, "trial": 74, "rt": 2647, "response": "Alpha"}, "32": {"stimulus": 1905, "trial": 32, "rt": 410, "response": "Beta"}, "57": {"stimulus": 1749, "trial": 57, "rt": 412, "response": "Alpha"}, "50": {"stimulus": 218, "trial": 50, "rt": 423, "response": "Beta"}}, "experiment": {"Paradigm": "TACL", "Stimuli": "Size-Color Squares", "Experiment": "Generating-Multiple-Categories"}, "submit": {"timeTotal": 599579, "age": "28", "comments": "good", "sex": "male"}}