{"info": {"finish": 1548057660463, "participant": 143, "exposed": true, "lab": false, "start": 1548057103544, "counterbalance": 6, "gentype": 0, "condition": "Row", "browser": {"platform": "Win32", "userAgent": "Mozilla/5.0 (Windows NT 10.0) AppleWebKit/537.36 (KHTML, like Gecko) Chrome/71.0.3578.98 Safari/537.36"}}, "observation": {"11": {"stimulus": 421, "trial": 11, "rt": 4021}, "10": {"stimulus": 493, "trial": 10, "rt": 2455}, "1": {"stimulus": 421, "trial": 1, "rt": 3664}, "0": {"stimulus": 493, "trial": 0, "rt": 6426}, "3": {"stimulus": 582, "trial": 3, "rt": 2798}, "2": {"stimulus": 612, "trial": 2, "rt": 2431}, "5": {"stimulus": 612, "trial": 5, "rt": 2303}, "4": {"stimulus": 421, "trial": 4, "rt": 2758}, "7": {"stimulus": 582, "trial": 7, "rt": 4960}, "6": {"stimulus": 493, "trial": 6, "rt": 2711}, "9": {"stimulus": 582, "trial": 9, "rt": 3087}, "8": {"stimulus": 612, "trial": 8, "rt": 2846}}, "generation": {"1": {"category": "Not-Alpha", "trial": 1, "stimulus": 970, "rt": 13908}, "0": {"category": "Not-Alpha", "trial": 0, "stimulus": 1039, "rt": 11131}, "3": {"category": "Not-Alpha", "trial": 3, "stimulus": 977, "rt": 11854}, "2": {"category": "Not-Alpha", "trial": 2, "stimulus": 1180, "rt": 10404}, "5": {"category": "Not-Alpha", "trial": 5, "stimulus": 899, "rt": 17878}, "4": {"category": "Not-Alpha", "trial": 4, "stimulus": 837, "rt": 10178}, "7": {"category": "Not-Alpha", "trial": 7, "stimulus": 943, "rt": 14917}, "6": {"category": "Not-Alpha", "trial": 6, "stimulus": 820, "rt": 16932}}, "generalization": {"56": {"stimulus": 1374, "trial": 56, "rt": 1312, "response": "Alpha"}, "77": {"stimulus": 30, "trial": 77, "rt": 1135, "response": "Alpha"}, "54": {"stimulus": 249, "trial": 54, "rt": 4406, "response": "Alpha"}, "42": {"stimulus": 155, "trial": 42, "rt": 1312, "response": "Beta"}, "48": {"stimulus": 2124, "trial": 48, "rt": 7133, "response": "Alpha"}, "43": {"stimulus": 530, "trial": 43, "rt": 1438, "response": "Alpha"}, "60": {"stimulus": 2093, "trial": 60, "rt": 1205, "response": "Alpha"}, "61": {"stimulus": 312, "trial": 61, "rt": 1683, "response": "Beta"}, "62": {"stimulus": 1812, "trial": 62, "rt": 1984, "response": "Alpha"}, "63": {"stimulus": 1437, "trial": 63, "rt": 1078, "response": "Alpha"}, "64": {"stimulus": 999, "trial": 64, "rt": 669, "response": "Alpha"}, "49": {"stimulus": 1062, "trial": 49, "rt": 1397, "response": "Beta"}, "66": {"stimulus": 593, "trial": 66, "rt": 671, "response": "Alpha"}, "67": {"stimulus": 1343, "trial": 67, "rt": 591, "response": "Alpha"}, "68": {"stimulus": 1280, "trial": 68, "rt": 787, "response": "Alpha"}, "69": {"stimulus": 1499, "trial": 69, "rt": 790, "response": "Alpha"}, "80": {"stimulus": 499, "trial": 80, "rt": 759, "response": "Alpha"}, "52": {"stimulus": 218, "trial": 52, "rt": 1837, "response": "Beta"}, "53": {"stimulus": 1405, "trial": 53, "rt": 1460, "response": "Beta"}, "24": {"stimulus": 812, "trial": 24, "rt": 1762, "response": "Beta"}, "25": {"stimulus": 1968, "trial": 25, "rt": 974, "response": "Alpha"}, "26": {"stimulus": 1687, "trial": 26, "rt": 1117, "response": "Alpha"}, "27": {"stimulus": 874, "trial": 27, "rt": 1159, "response": "Alpha"}, "20": {"stimulus": 1780, "trial": 20, "rt": 1229, "response": "Alpha"}, "21": {"stimulus": 62, "trial": 21, "rt": 1901, "response": "Beta"}, "22": {"stimulus": 968, "trial": 22, "rt": 1140, "response": "Alpha"}, "23": {"stimulus": 374, "trial": 23, "rt": 1279, "response": "Beta"}, "46": {"stimulus": 1218, "trial": 46, "rt": 1566, "response": "Beta"}, "47": {"stimulus": 468, "trial": 47, "rt": 1154, "response": "Alpha"}, "44": {"stimulus": 718, "trial": 44, "rt": 4339, "response": "Beta"}, "45": {"stimulus": 937, "trial": 45, "rt": 1109, "response": "Alpha"}, "28": {"stimulus": 1530, "trial": 28, "rt": 1459, "response": "Beta"}, "29": {"stimulus": 187, "trial": 29, "rt": 1261, "response": "Alpha"}, "40": {"stimulus": 1093, "trial": 40, "rt": 1197, "response": "Alpha"}, "41": {"stimulus": 2218, "trial": 41, "rt": 2190, "response": "Beta"}, "1": {"stimulus": 1124, "trial": 1, "rt": 30503, "response": "Alpha"}, "0": {"stimulus": 2187, "trial": 0, "rt": 3564, "response": "Alpha"}, "3": {"stimulus": 2062, "trial": 3, "rt": 1463, "response": "Beta"}, "2": {"stimulus": 2499, "trial": 2, "rt": 5838, "response": "Alpha"}, "5": {"stimulus": 2343, "trial": 5, "rt": 2152, "response": "Alpha"}, "4": {"stimulus": 0, "trial": 4, "rt": 2548, "response": "Beta"}, "7": {"stimulus": 562, "trial": 7, "rt": 1427, "response": "Beta"}, "6": {"stimulus": 405, "trial": 6, "rt": 4649, "response": "Alpha"}, "9": {"stimulus": 2312, "trial": 9, "rt": 1159, "response": "Beta"}, "8": {"stimulus": 1843, "trial": 8, "rt": 2503, "response": "Alpha"}, "78": {"stimulus": 343, "trial": 78, "rt": 1095, "response": "Alpha"}, "51": {"stimulus": 93, "trial": 51, "rt": 1887, "response": "Alpha"}, "39": {"stimulus": 2030, "trial": 39, "rt": 1783, "response": "Alpha"}, "65": {"stimulus": 1874, "trial": 65, "rt": 1023, "response": "Alpha"}, "76": {"stimulus": 780, "trial": 76, "rt": 678, "response": "Alpha"}, "75": {"stimulus": 1249, "trial": 75, "rt": 790, "response": "Alpha"}, "38": {"stimulus": 1718, "trial": 38, "rt": 2470, "response": "Alpha"}, "73": {"stimulus": 1905, "trial": 73, "rt": 766, "response": "Alpha"}, "72": {"stimulus": 1937, "trial": 72, "rt": 925, "response": "Alpha"}, "71": {"stimulus": 2437, "trial": 71, "rt": 864, "response": "Alpha"}, "70": {"stimulus": 1999, "trial": 70, "rt": 804, "response": "Alpha"}, "59": {"stimulus": 905, "trial": 59, "rt": 1458, "response": "Beta"}, "79": {"stimulus": 2249, "trial": 79, "rt": 2633, "response": "Alpha"}, "58": {"stimulus": 843, "trial": 58, "rt": 1092, "response": "Alpha"}, "11": {"stimulus": 2405, "trial": 11, "rt": 1998, "response": "Beta"}, "10": {"stimulus": 124, "trial": 10, "rt": 1509, "response": "Alpha"}, "13": {"stimulus": 1749, "trial": 13, "rt": 1149, "response": "Alpha"}, "12": {"stimulus": 2468, "trial": 12, "rt": 1382, "response": "Alpha"}, "15": {"stimulus": 280, "trial": 15, "rt": 7317, "response": "Alpha"}, "14": {"stimulus": 655, "trial": 14, "rt": 1232, "response": "Alpha"}, "17": {"stimulus": 1468, "trial": 17, "rt": 1822, "response": "Beta"}, "16": {"stimulus": 749, "trial": 16, "rt": 18294, "response": "Beta"}, "19": {"stimulus": 687, "trial": 19, "rt": 1261, "response": "Alpha"}, "18": {"stimulus": 1187, "trial": 18, "rt": 1447, "response": "Alpha"}, "31": {"stimulus": 1312, "trial": 31, "rt": 1119, "response": "Alpha"}, "30": {"stimulus": 1155, "trial": 30, "rt": 1517, "response": "Alpha"}, "37": {"stimulus": 1562, "trial": 37, "rt": 6103, "response": "Beta"}, "36": {"stimulus": 437, "trial": 36, "rt": 1925, "response": "Alpha"}, "35": {"stimulus": 2374, "trial": 35, "rt": 2692, "response": "Beta"}, "34": {"stimulus": 2280, "trial": 34, "rt": 1135, "response": "Alpha"}, "33": {"stimulus": 1655, "trial": 33, "rt": 1317, "response": "Beta"}, "55": {"stimulus": 2155, "trial": 55, "rt": 1381, "response": "Beta"}, "74": {"stimulus": 624, "trial": 74, "rt": 791, "response": "Alpha"}, "32": {"stimulus": 1030, "trial": 32, "rt": 1790, "response": "Alpha"}, "57": {"stimulus": 1624, "trial": 57, "rt": 1221, "response": "Alpha"}, "50": {"stimulus": 1593, "trial": 50, "rt": 7485, "response": "Alpha"}}, "experiment": {"Paradigm": "TACL", "Stimuli": "Size-Color Squares", "Experiment": "Generating-Multiple-Categories"}, "submit": {"timeTotal": 558239, "age": "28", "comments": "it was really good ", "sex": "male"}}