{"info": {"finish": 1548058446057, "participant": 144, "exposed": true, "lab": false, "start": 1548057138617, "counterbalance": 4, "gentype": 2, "condition": "XOR", "browser": {"platform": "Win32", "userAgent": "Mozilla/5.0 (Windows NT 6.1) AppleWebKit/537.36 (KHTML, like Gecko) Chrome/71.0.3578.98 Safari/537.36"}}, "observation": {"11": {"stimulus": 1890, "trial": 11, "rt": 81396}, "10": {"stimulus": 403, "trial": 10, "rt": 1553}, "1": {"stimulus": 1890, "trial": 1, "rt": 17851}, "0": {"stimulus": 403, "trial": 0, "rt": 12685}, "3": {"stimulus": 818, "trial": 3, "rt": 2289}, "2": {"stimulus": 1479, "trial": 2, "rt": 19222}, "5": {"stimulus": 1479, "trial": 5, "rt": 2024}, "4": {"stimulus": 1890, "trial": 4, "rt": 1640}, "7": {"stimulus": 403, "trial": 7, "rt": 1662}, "6": {"stimulus": 818, "trial": 6, "rt": 5369}, "9": {"stimulus": 818, "trial": 9, "rt": 1743}, "8": {"stimulus": 1479, "trial": 8, "rt": 2403}}, "generation": {"1": {"category": "Beta", "trial": 1, "stimulus": 1075, "rt": 5287}, "0": {"category": "Beta", "trial": 0, "stimulus": 621, "rt": 14431}, "3": {"category": "Beta", "trial": 3, "stimulus": 2020, "rt": 12800}, "2": {"category": "Beta", "trial": 2, "stimulus": 812, "rt": 99091}, "5": {"category": "Gamma", "trial": 5, "stimulus": 1129, "rt": 9782}, "4": {"category": "Gamma", "trial": 4, "stimulus": 1718, "rt": 4911}, "7": {"category": "Gamma", "trial": 7, "stimulus": 1326, "rt": 7664}, "6": {"category": "Gamma", "trial": 6, "stimulus": 983, "rt": 9139}}, "generalization": {"56": {"stimulus": 30, "trial": 56, "rt": 655, "response": "Beta"}, "77": {"stimulus": 1874, "trial": 77, "rt": 504, "response": "Alpha"}, "54": {"stimulus": 2249, "trial": 54, "rt": 417, "response": "Beta"}, "42": {"stimulus": 749, "trial": 42, "rt": 2240, "response": "Beta"}, "48": {"stimulus": 218, "trial": 48, "rt": 997, "response": "Beta"}, "43": {"stimulus": 1218, "trial": 43, "rt": 591, "response": "Beta"}, "60": {"stimulus": 655, "trial": 60, "rt": 9632, "response": "Beta"}, "61": {"stimulus": 1999, "trial": 61, "rt": 512, "response": "Alpha"}, "62": {"stimulus": 2093, "trial": 62, "rt": 343, "response": "Beta"}, "63": {"stimulus": 905, "trial": 63, "rt": 656, "response": "Alpha"}, "64": {"stimulus": 687, "trial": 64, "rt": 2177, "response": "Beta"}, "49": {"stimulus": 2124, "trial": 49, "rt": 2715, "response": "Beta"}, "66": {"stimulus": 593, "trial": 66, "rt": 806, "response": "Beta"}, "67": {"stimulus": 62, "trial": 67, "rt": 800, "response": "Alpha"}, "68": {"stimulus": 374, "trial": 68, "rt": 1792, "response": "Beta"}, "69": {"stimulus": 1124, "trial": 69, "rt": 1391, "response": "Alpha"}, "80": {"stimulus": 405, "trial": 80, "rt": 318, "response": "Beta"}, "52": {"stimulus": 2280, "trial": 52, "rt": 680754, "response": "Beta"}, "53": {"stimulus": 499, "trial": 53, "rt": 649, "response": "Alpha"}, "24": {"stimulus": 1437, "trial": 24, "rt": 367, "response": "Beta"}, "25": {"stimulus": 0, "trial": 25, "rt": 398, "response": "Gamma"}, "26": {"stimulus": 1343, "trial": 26, "rt": 463, "response": "Alpha"}, "27": {"stimulus": 2030, "trial": 27, "rt": 731, "response": "Beta"}, "20": {"stimulus": 2374, "trial": 20, "rt": 1109, "response": "Beta"}, "21": {"stimulus": 1405, "trial": 21, "rt": 1983, "response": "Alpha"}, "22": {"stimulus": 2312, "trial": 22, "rt": 408, "response": "Beta"}, "23": {"stimulus": 2468, "trial": 23, "rt": 535, "response": "Alpha"}, "46": {"stimulus": 2437, "trial": 46, "rt": 430, "response": "Alpha"}, "47": {"stimulus": 780, "trial": 47, "rt": 11905, "response": "Alpha"}, "44": {"stimulus": 2155, "trial": 44, "rt": 631, "response": "Alpha"}, "45": {"stimulus": 1155, "trial": 45, "rt": 361, "response": "Beta"}, "28": {"stimulus": 1687, "trial": 28, "rt": 584, "response": "Alpha"}, "29": {"stimulus": 1030, "trial": 29, "rt": 399, "response": "Beta"}, "40": {"stimulus": 1905, "trial": 40, "rt": 1425, "response": "Alpha"}, "41": {"stimulus": 1780, "trial": 41, "rt": 1808, "response": "Alpha"}, "1": {"stimulus": 1499, "trial": 1, "rt": 3887, "response": "Alpha"}, "0": {"stimulus": 1812, "trial": 0, "rt": 6351, "response": "Beta"}, "3": {"stimulus": 1468, "trial": 3, "rt": 698, "response": "Beta"}, "2": {"stimulus": 343, "trial": 2, "rt": 612, "response": "Beta"}, "5": {"stimulus": 2062, "trial": 5, "rt": 950, "response": "Alpha"}, "4": {"stimulus": 2187, "trial": 4, "rt": 962, "response": "Alpha"}, "7": {"stimulus": 2405, "trial": 7, "rt": 910, "response": "Alpha"}, "6": {"stimulus": 718, "trial": 6, "rt": 527, "response": "Gamma"}, "9": {"stimulus": 562, "trial": 9, "rt": 12273, "response": "Beta"}, "8": {"stimulus": 124, "trial": 8, "rt": 2600, "response": "Beta"}, "78": {"stimulus": 1968, "trial": 78, "rt": 383, "response": "Beta"}, "51": {"stimulus": 1280, "trial": 51, "rt": 1288, "response": "Alpha"}, "39": {"stimulus": 843, "trial": 39, "rt": 480, "response": "Beta"}, "65": {"stimulus": 93, "trial": 65, "rt": 518, "response": "Alpha"}, "76": {"stimulus": 280, "trial": 76, "rt": 1920, "response": "Beta"}, "75": {"stimulus": 1374, "trial": 75, "rt": 584, "response": "Alpha"}, "38": {"stimulus": 1749, "trial": 38, "rt": 471, "response": "Alpha"}, "73": {"stimulus": 1593, "trial": 73, "rt": 592, "response": "Alpha"}, "72": {"stimulus": 1187, "trial": 72, "rt": 12146, "response": "Beta"}, "71": {"stimulus": 812, "trial": 71, "rt": 529, "response": "Beta"}, "70": {"stimulus": 312, "trial": 70, "rt": 654, "response": "Alpha"}, "59": {"stimulus": 1249, "trial": 59, "rt": 1126, "response": "Beta"}, "79": {"stimulus": 1655, "trial": 79, "rt": 391, "response": "Gamma"}, "58": {"stimulus": 874, "trial": 58, "rt": 505, "response": "Alpha"}, "11": {"stimulus": 1843, "trial": 11, "rt": 4483, "response": "Beta"}, "10": {"stimulus": 1093, "trial": 10, "rt": 799, "response": "Alpha"}, "13": {"stimulus": 1624, "trial": 13, "rt": 1056, "response": "Beta"}, "12": {"stimulus": 530, "trial": 12, "rt": 28167, "response": "Alpha"}, "15": {"stimulus": 937, "trial": 15, "rt": 543, "response": "Alpha"}, "14": {"stimulus": 624, "trial": 14, "rt": 2160, "response": "Beta"}, "17": {"stimulus": 968, "trial": 17, "rt": 617, "response": "Beta"}, "16": {"stimulus": 1562, "trial": 16, "rt": 423, "response": "Beta"}, "19": {"stimulus": 1718, "trial": 19, "rt": 1214, "response": "Alpha"}, "18": {"stimulus": 468, "trial": 18, "rt": 520, "response": "Alpha"}, "31": {"stimulus": 999, "trial": 31, "rt": 380, "response": "Beta"}, "30": {"stimulus": 2499, "trial": 30, "rt": 1032, "response": "Alpha"}, "37": {"stimulus": 437, "trial": 37, "rt": 639, "response": "Beta"}, "36": {"stimulus": 1937, "trial": 36, "rt": 680, "response": "Alpha"}, "35": {"stimulus": 2343, "trial": 35, "rt": 680, "response": "Beta"}, "34": {"stimulus": 2218, "trial": 34, "rt": 760, "response": "Alpha"}, "33": {"stimulus": 187, "trial": 33, "rt": 433, "response": "Beta"}, "55": {"stimulus": 1062, "trial": 55, "rt": 528, "response": "Alpha"}, "74": {"stimulus": 1312, "trial": 74, "rt": 464, "response": "Beta"}, "32": {"stimulus": 249, "trial": 32, "rt": 624, "response": "Alpha"}, "57": {"stimulus": 1530, "trial": 57, "rt": 12726, "response": "Beta"}, "50": {"stimulus": 155, "trial": 50, "rt": 934, "response": "Gamma"}}, "experiment": {"Paradigm": "TACL", "Stimuli": "Size-Color Squares", "Experiment": "Generating-Multiple-Categories"}, "submit": {"timeTotal": 1308891, "age": "28", "comments": "very nice", "sex": "female"}}