{"info": {"finish": 1548057430000, "participant": 145, "exposed": true, "lab": false, "start": 1548057148348, "counterbalance": 3, "gentype": 1, "condition": "Cluster", "browser": {"platform": "Win32", "userAgent": "Mozilla/5.0 (Windows NT 6.1) AppleWebKit/537.36 (KHTML, like Gecko) Chrome/71.0.3578.98 Safari/537.36"}}, "observation": {"11": {"stimulus": 1093, "trial": 11, "rt": 1765}, "10": {"stimulus": 392, "trial": 10, "rt": 1529}, "1": {"stimulus": 1093, "trial": 1, "rt": 2132}, "0": {"stimulus": 583, "trial": 0, "rt": 4387}, "3": {"stimulus": 392, "trial": 3, "rt": 2162}, "2": {"stimulus": 1083, "trial": 2, "rt": 2916}, "5": {"stimulus": 583, "trial": 5, "rt": 2153}, "4": {"stimulus": 1083, "trial": 4, "rt": 2114}, "7": {"stimulus": 1093, "trial": 7, "rt": 1786}, "6": {"stimulus": 392, "trial": 6, "rt": 14164}, "9": {"stimulus": 583, "trial": 9, "rt": 1450}, "8": {"stimulus": 1083, "trial": 8, "rt": 2449}}, "generation": {"1": {"category": "Beta", "trial": 1, "stimulus": 2076, "rt": 8521}, "0": {"category": "Beta", "trial": 0, "stimulus": 2284, "rt": 9664}, "3": {"category": "Beta", "trial": 3, "stimulus": 2338, "rt": 5473}, "2": {"category": "Beta", "trial": 2, "stimulus": 1886, "rt": 5607}, "5": {"category": "Beta", "trial": 5, "stimulus": 2335, "rt": 6952}, "4": {"category": "Beta", "trial": 4, "stimulus": 2381, "rt": 2968}, "7": {"category": "Beta", "trial": 7, "stimulus": 2433, "rt": 3324}, "6": {"category": "Beta", "trial": 6, "stimulus": 2438, "rt": 3799}}, "generalization": {"56": {"stimulus": 905, "trial": 56, "rt": 588, "response": "Alpha"}, "77": {"stimulus": 655, "trial": 77, "rt": 701, "response": "Alpha"}, "54": {"stimulus": 124, "trial": 54, "rt": 448, "response": "Alpha"}, "42": {"stimulus": 1905, "trial": 42, "rt": 743, "response": "Beta"}, "48": {"stimulus": 1624, "trial": 48, "rt": 469, "response": "Beta"}, "43": {"stimulus": 2218, "trial": 43, "rt": 498, "response": "Beta"}, "60": {"stimulus": 1968, "trial": 60, "rt": 1381, "response": "Alpha"}, "61": {"stimulus": 155, "trial": 61, "rt": 1147, "response": "Beta"}, "62": {"stimulus": 968, "trial": 62, "rt": 587, "response": "Alpha"}, "63": {"stimulus": 1093, "trial": 63, "rt": 2820, "response": "Alpha"}, "64": {"stimulus": 562, "trial": 64, "rt": 608, "response": "Alpha"}, "49": {"stimulus": 1843, "trial": 49, "rt": 383, "response": "Beta"}, "66": {"stimulus": 1562, "trial": 66, "rt": 787, "response": "Beta"}, "67": {"stimulus": 2062, "trial": 67, "rt": 654, "response": "Beta"}, "68": {"stimulus": 1780, "trial": 68, "rt": 753, "response": "Beta"}, "69": {"stimulus": 312, "trial": 69, "rt": 1070, "response": "Alpha"}, "80": {"stimulus": 2093, "trial": 80, "rt": 1050, "response": "Beta"}, "52": {"stimulus": 874, "trial": 52, "rt": 548, "response": "Alpha"}, "53": {"stimulus": 1249, "trial": 53, "rt": 537, "response": "Alpha"}, "24": {"stimulus": 1343, "trial": 24, "rt": 2105, "response": "Alpha"}, "25": {"stimulus": 1468, "trial": 25, "rt": 647, "response": "Beta"}, "26": {"stimulus": 2249, "trial": 26, "rt": 694, "response": "Beta"}, "27": {"stimulus": 2468, "trial": 27, "rt": 656, "response": "Beta"}, "20": {"stimulus": 2280, "trial": 20, "rt": 1211, "response": "Beta"}, "21": {"stimulus": 1374, "trial": 21, "rt": 431, "response": "Beta"}, "22": {"stimulus": 2343, "trial": 22, "rt": 476, "response": "Beta"}, "23": {"stimulus": 1312, "trial": 23, "rt": 966, "response": "Alpha"}, "46": {"stimulus": 1280, "trial": 46, "rt": 1036, "response": "Alpha"}, "47": {"stimulus": 1687, "trial": 47, "rt": 525, "response": "Alpha"}, "44": {"stimulus": 749, "trial": 44, "rt": 1202, "response": "Alpha"}, "45": {"stimulus": 30, "trial": 45, "rt": 849, "response": "Alpha"}, "28": {"stimulus": 499, "trial": 28, "rt": 1165, "response": "Alpha"}, "29": {"stimulus": 2374, "trial": 29, "rt": 1046, "response": "Beta"}, "40": {"stimulus": 2437, "trial": 40, "rt": 970, "response": "Beta"}, "41": {"stimulus": 1718, "trial": 41, "rt": 504, "response": "Beta"}, "1": {"stimulus": 437, "trial": 1, "rt": 790, "response": "Alpha"}, "0": {"stimulus": 2312, "trial": 0, "rt": 1971, "response": "Beta"}, "3": {"stimulus": 280, "trial": 3, "rt": 1430, "response": "Alpha"}, "2": {"stimulus": 218, "trial": 2, "rt": 1594, "response": "Alpha"}, "5": {"stimulus": 1405, "trial": 5, "rt": 3317, "response": "Beta"}, "4": {"stimulus": 812, "trial": 4, "rt": 567, "response": "Alpha"}, "7": {"stimulus": 343, "trial": 7, "rt": 1173, "response": "Alpha"}, "6": {"stimulus": 62, "trial": 6, "rt": 2439, "response": "Alpha"}, "9": {"stimulus": 2499, "trial": 9, "rt": 647, "response": "Beta"}, "8": {"stimulus": 2155, "trial": 8, "rt": 1030, "response": "Beta"}, "78": {"stimulus": 593, "trial": 78, "rt": 846, "response": "Alpha"}, "51": {"stimulus": 374, "trial": 51, "rt": 1803, "response": "Alpha"}, "39": {"stimulus": 249, "trial": 39, "rt": 1417, "response": "Alpha"}, "65": {"stimulus": 2124, "trial": 65, "rt": 1383, "response": "Beta"}, "76": {"stimulus": 999, "trial": 76, "rt": 1083, "response": "Alpha"}, "75": {"stimulus": 1937, "trial": 75, "rt": 638, "response": "Alpha"}, "38": {"stimulus": 780, "trial": 38, "rt": 917, "response": "Alpha"}, "73": {"stimulus": 843, "trial": 73, "rt": 482, "response": "Alpha"}, "72": {"stimulus": 1218, "trial": 72, "rt": 564, "response": "Alpha"}, "71": {"stimulus": 468, "trial": 71, "rt": 2423, "response": "Alpha"}, "70": {"stimulus": 0, "trial": 70, "rt": 928, "response": "Alpha"}, "59": {"stimulus": 687, "trial": 59, "rt": 965, "response": "Alpha"}, "79": {"stimulus": 1437, "trial": 79, "rt": 595, "response": "Alpha"}, "58": {"stimulus": 2187, "trial": 58, "rt": 857, "response": "Beta"}, "11": {"stimulus": 1874, "trial": 11, "rt": 751, "response": "Beta"}, "10": {"stimulus": 530, "trial": 10, "rt": 845, "response": "Alpha"}, "13": {"stimulus": 1062, "trial": 13, "rt": 850, "response": "Alpha"}, "12": {"stimulus": 187, "trial": 12, "rt": 646, "response": "Alpha"}, "15": {"stimulus": 1999, "trial": 15, "rt": 1024, "response": "Beta"}, "14": {"stimulus": 624, "trial": 14, "rt": 555, "response": "Alpha"}, "17": {"stimulus": 1124, "trial": 17, "rt": 755, "response": "Alpha"}, "16": {"stimulus": 1030, "trial": 16, "rt": 1007, "response": "Alpha"}, "19": {"stimulus": 1155, "trial": 19, "rt": 576, "response": "Alpha"}, "18": {"stimulus": 405, "trial": 18, "rt": 493, "response": "Alpha"}, "31": {"stimulus": 93, "trial": 31, "rt": 935, "response": "Alpha"}, "30": {"stimulus": 1812, "trial": 30, "rt": 2669, "response": "Beta"}, "37": {"stimulus": 1530, "trial": 37, "rt": 1542, "response": "Beta"}, "36": {"stimulus": 1593, "trial": 36, "rt": 963, "response": "Beta"}, "35": {"stimulus": 718, "trial": 35, "rt": 1039, "response": "Beta"}, "34": {"stimulus": 1187, "trial": 34, "rt": 1211, "response": "Beta"}, "33": {"stimulus": 1655, "trial": 33, "rt": 574, "response": "Beta"}, "55": {"stimulus": 937, "trial": 55, "rt": 1347, "response": "Alpha"}, "74": {"stimulus": 1499, "trial": 74, "rt": 560, "response": "Alpha"}, "32": {"stimulus": 2030, "trial": 32, "rt": 736, "response": "Beta"}, "57": {"stimulus": 2405, "trial": 57, "rt": 1128, "response": "Beta"}, "50": {"stimulus": 1749, "trial": 50, "rt": 549, "response": "Beta"}}, "experiment": {"Paradigm": "TACL", "Stimuli": "Size-Color Squares", "Experiment": "Generating-Multiple-Categories"}, "submit": {"timeTotal": 282598, "age": "28", "comments": "GOOD", "sex": "MALE"}}