{"info": {"finish": 1548058279909, "participant": 146, "exposed": true, "lab": false, "start": 1548057936221, "counterbalance": 1, "gentype": 0, "condition": "XOR", "browser": {"platform": "Win32", "userAgent": "Mozilla/5.0 (Windows NT 10.0; Win64; x64) AppleWebKit/537.36 (KHTML, like Gecko) Chrome/71.0.3578.98 Safari/537.36"}}, "observation": {"11": {"stimulus": 1890, "trial": 11, "rt": 1855}, "10": {"stimulus": 1479, "trial": 10, "rt": 2020}, "1": {"stimulus": 1890, "trial": 1, "rt": 2767}, "0": {"stimulus": 1479, "trial": 0, "rt": 3021}, "3": {"stimulus": 403, "trial": 3, "rt": 2309}, "2": {"stimulus": 818, "trial": 2, "rt": 2258}, "5": {"stimulus": 403, "trial": 5, "rt": 1933}, "4": {"stimulus": 1890, "trial": 4, "rt": 1891}, "7": {"stimulus": 818, "trial": 7, "rt": 1966}, "6": {"stimulus": 1479, "trial": 6, "rt": 2216}, "9": {"stimulus": 818, "trial": 9, "rt": 2133}, "8": {"stimulus": 403, "trial": 8, "rt": 1633}}, "generation": {"1": {"category": "Not-Alpha", "trial": 1, "stimulus": 2450, "rt": 5718}, "0": {"category": "Not-Alpha", "trial": 0, "stimulus": 2499, "rt": 9712}, "3": {"category": "Not-Alpha", "trial": 3, "stimulus": 0, "rt": 6968}, "2": {"category": "Not-Alpha", "trial": 2, "stimulus": 2230, "rt": 5413}, "5": {"category": "Not-Alpha", "trial": 5, "stimulus": 2349, "rt": 5323}, "4": {"category": "Not-Alpha", "trial": 4, "stimulus": 2475, "rt": 5679}, "7": {"category": "Not-Alpha", "trial": 7, "stimulus": 1900, "rt": 4253}, "6": {"category": "Not-Alpha", "trial": 6, "stimulus": 1949, "rt": 5387}}, "generalization": {"56": {"stimulus": 1062, "trial": 56, "rt": 854, "response": "Alpha"}, "77": {"stimulus": 0, "trial": 77, "rt": 739, "response": "Alpha"}, "54": {"stimulus": 812, "trial": 54, "rt": 971, "response": "Beta"}, "42": {"stimulus": 999, "trial": 42, "rt": 1139, "response": "Beta"}, "48": {"stimulus": 1468, "trial": 48, "rt": 932, "response": "Beta"}, "43": {"stimulus": 2374, "trial": 43, "rt": 1076, "response": "Beta"}, "60": {"stimulus": 1968, "trial": 60, "rt": 574, "response": "Beta"}, "61": {"stimulus": 2124, "trial": 61, "rt": 623, "response": "Beta"}, "62": {"stimulus": 2155, "trial": 62, "rt": 526, "response": "Beta"}, "63": {"stimulus": 2468, "trial": 63, "rt": 549, "response": "Beta"}, "64": {"stimulus": 1405, "trial": 64, "rt": 704, "response": "Beta"}, "49": {"stimulus": 1624, "trial": 49, "rt": 932, "response": "Beta"}, "66": {"stimulus": 1312, "trial": 66, "rt": 1539, "response": "Beta"}, "67": {"stimulus": 1749, "trial": 67, "rt": 1017, "response": "Beta"}, "68": {"stimulus": 2437, "trial": 68, "rt": 794, "response": "Beta"}, "69": {"stimulus": 655, "trial": 69, "rt": 1098, "response": "Alpha"}, "80": {"stimulus": 1562, "trial": 80, "rt": 1065, "response": "Beta"}, "52": {"stimulus": 93, "trial": 52, "rt": 932, "response": "Alpha"}, "53": {"stimulus": 1155, "trial": 53, "rt": 3497, "response": "Beta"}, "24": {"stimulus": 1718, "trial": 24, "rt": 1038, "response": "Beta"}, "25": {"stimulus": 2343, "trial": 25, "rt": 1280, "response": "Beta"}, "26": {"stimulus": 312, "trial": 26, "rt": 950, "response": "Alpha"}, "27": {"stimulus": 1437, "trial": 27, "rt": 957, "response": "Beta"}, "20": {"stimulus": 1999, "trial": 20, "rt": 971, "response": "Beta"}, "21": {"stimulus": 562, "trial": 21, "rt": 1418, "response": "Alpha"}, "22": {"stimulus": 718, "trial": 22, "rt": 933, "response": "Alpha"}, "23": {"stimulus": 187, "trial": 23, "rt": 865, "response": "Alpha"}, "46": {"stimulus": 1874, "trial": 46, "rt": 804, "response": "Beta"}, "47": {"stimulus": 499, "trial": 47, "rt": 1091, "response": "Alpha"}, "44": {"stimulus": 280, "trial": 44, "rt": 980, "response": "Alpha"}, "45": {"stimulus": 2187, "trial": 45, "rt": 964, "response": "Beta"}, "28": {"stimulus": 1374, "trial": 28, "rt": 1569, "response": "Beta"}, "29": {"stimulus": 2280, "trial": 29, "rt": 1189, "response": "Beta"}, "40": {"stimulus": 218, "trial": 40, "rt": 1178, "response": "Alpha"}, "41": {"stimulus": 249, "trial": 41, "rt": 840, "response": "Alpha"}, "1": {"stimulus": 468, "trial": 1, "rt": 1706, "response": "Alpha"}, "0": {"stimulus": 124, "trial": 0, "rt": 1539, "response": "Alpha"}, "3": {"stimulus": 405, "trial": 3, "rt": 959, "response": "Alpha"}, "2": {"stimulus": 2405, "trial": 2, "rt": 1093, "response": "Beta"}, "5": {"stimulus": 30, "trial": 5, "rt": 1497, "response": "Alpha"}, "4": {"stimulus": 2093, "trial": 4, "rt": 1109, "response": "Beta"}, "7": {"stimulus": 155, "trial": 7, "rt": 1143, "response": "Alpha"}, "6": {"stimulus": 937, "trial": 6, "rt": 1563, "response": "Beta"}, "9": {"stimulus": 780, "trial": 9, "rt": 1223, "response": "Beta"}, "8": {"stimulus": 874, "trial": 8, "rt": 1551, "response": "Beta"}, "78": {"stimulus": 1218, "trial": 78, "rt": 2530, "response": "Alpha"}, "51": {"stimulus": 624, "trial": 51, "rt": 1873, "response": "Alpha"}, "39": {"stimulus": 593, "trial": 39, "rt": 904, "response": "Alpha"}, "65": {"stimulus": 1187, "trial": 65, "rt": 1068, "response": "Beta"}, "76": {"stimulus": 530, "trial": 76, "rt": 1142, "response": "Alpha"}, "75": {"stimulus": 2030, "trial": 75, "rt": 731, "response": "Beta"}, "38": {"stimulus": 687, "trial": 38, "rt": 1095, "response": "Alpha"}, "73": {"stimulus": 1530, "trial": 73, "rt": 1117, "response": "Beta"}, "72": {"stimulus": 1030, "trial": 72, "rt": 1068, "response": "Alpha"}, "71": {"stimulus": 1280, "trial": 71, "rt": 1059, "response": "Beta"}, "70": {"stimulus": 1937, "trial": 70, "rt": 779, "response": "Beta"}, "59": {"stimulus": 1905, "trial": 59, "rt": 586, "response": "Beta"}, "79": {"stimulus": 1124, "trial": 79, "rt": 775, "response": "Alpha"}, "58": {"stimulus": 1780, "trial": 58, "rt": 803, "response": "Beta"}, "11": {"stimulus": 968, "trial": 11, "rt": 1059, "response": "Alpha"}, "10": {"stimulus": 905, "trial": 10, "rt": 1127, "response": "Alpha"}, "13": {"stimulus": 749, "trial": 13, "rt": 1359, "response": "Alpha"}, "12": {"stimulus": 1249, "trial": 12, "rt": 1547, "response": "Alpha"}, "15": {"stimulus": 1687, "trial": 15, "rt": 921, "response": "Beta"}, "14": {"stimulus": 2062, "trial": 14, "rt": 1134, "response": "Beta"}, "17": {"stimulus": 1499, "trial": 17, "rt": 874, "response": "Beta"}, "16": {"stimulus": 374, "trial": 16, "rt": 1217, "response": "Alpha"}, "19": {"stimulus": 1093, "trial": 19, "rt": 2330, "response": "Beta"}, "18": {"stimulus": 1343, "trial": 18, "rt": 855, "response": "Beta"}, "31": {"stimulus": 2249, "trial": 31, "rt": 984, "response": "Beta"}, "30": {"stimulus": 1593, "trial": 30, "rt": 1091, "response": "Beta"}, "37": {"stimulus": 2312, "trial": 37, "rt": 862, "response": "Beta"}, "36": {"stimulus": 437, "trial": 36, "rt": 847, "response": "Alpha"}, "35": {"stimulus": 843, "trial": 35, "rt": 850, "response": "Alpha"}, "34": {"stimulus": 343, "trial": 34, "rt": 930, "response": "Alpha"}, "33": {"stimulus": 1812, "trial": 33, "rt": 1028, "response": "Beta"}, "55": {"stimulus": 1843, "trial": 55, "rt": 1235, "response": "Beta"}, "74": {"stimulus": 2218, "trial": 74, "rt": 984, "response": "Beta"}, "32": {"stimulus": 2499, "trial": 32, "rt": 893, "response": "Beta"}, "57": {"stimulus": 1655, "trial": 57, "rt": 876, "response": "Beta"}, "50": {"stimulus": 62, "trial": 50, "rt": 832, "response": "Alpha"}}, "experiment": {"Paradigm": "TACL", "Stimuli": "Size-Color Squares", "Experiment": "Generating-Multiple-Categories"}, "submit": {"timeTotal": 343843, "age": "38", "comments": "", "sex": "Male"}}