{"info": {"finish": 1548060081328, "participant": 147, "exposed": true, "lab": false, "start": 1548059219670, "counterbalance": 0, "gentype": 1, "condition": "Row", "browser": {"platform": "Win32", "userAgent": "Mozilla/5.0 (Windows NT 10.0; Win64; x64) AppleWebKit/537.36 (KHTML, like Gecko) Chrome/70.0.3538.102 Safari/537.36 OPR/57.0.3098.116"}}, "observation": {"11": {"stimulus": 421, "trial": 11, "rt": 1484}, "10": {"stimulus": 493, "trial": 10, "rt": 1358}, "1": {"stimulus": 612, "trial": 1, "rt": 1711}, "0": {"stimulus": 493, "trial": 0, "rt": 2457}, "3": {"stimulus": 421, "trial": 3, "rt": 1388}, "2": {"stimulus": 582, "trial": 2, "rt": 1405}, "5": {"stimulus": 612, "trial": 5, "rt": 1276}, "4": {"stimulus": 493, "trial": 4, "rt": 1357}, "7": {"stimulus": 421, "trial": 7, "rt": 1377}, "6": {"stimulus": 582, "trial": 6, "rt": 1370}, "9": {"stimulus": 582, "trial": 9, "rt": 1556}, "8": {"stimulus": 612, "trial": 8, "rt": 1368}}, "generation": {"1": {"category": "Beta", "trial": 1, "stimulus": 2463, "rt": 3664}, "0": {"category": "Beta", "trial": 0, "stimulus": 2450, "rt": 11209}, "3": {"category": "Beta", "trial": 3, "stimulus": 2349, "rt": 5841}, "2": {"category": "Beta", "trial": 2, "stimulus": 2478, "rt": 3338}, "5": {"category": "Beta", "trial": 5, "stimulus": 2499, "rt": 3489}, "4": {"category": "Beta", "trial": 4, "stimulus": 2474, "rt": 4321}, "7": {"category": "Beta", "trial": 7, "stimulus": 2434, "rt": 8120}, "6": {"category": "Beta", "trial": 6, "stimulus": 2410, "rt": 3829}}, "generalization": {"56": {"stimulus": 1780, "trial": 56, "rt": 1107, "response": "Beta"}, "77": {"stimulus": 1968, "trial": 77, "rt": 851, "response": "Beta"}, "54": {"stimulus": 2437, "trial": 54, "rt": 976, "response": "Beta"}, "42": {"stimulus": 749, "trial": 42, "rt": 708, "response": "Alpha"}, "48": {"stimulus": 2468, "trial": 48, "rt": 1109, "response": "Beta"}, "43": {"stimulus": 1062, "trial": 43, "rt": 522, "response": "Alpha"}, "60": {"stimulus": 1093, "trial": 60, "rt": 696, "response": "Alpha"}, "61": {"stimulus": 1218, "trial": 61, "rt": 569, "response": "Alpha"}, "62": {"stimulus": 2280, "trial": 62, "rt": 944, "response": "Beta"}, "63": {"stimulus": 687, "trial": 63, "rt": 875, "response": "Alpha"}, "64": {"stimulus": 2405, "trial": 64, "rt": 824, "response": "Beta"}, "49": {"stimulus": 1124, "trial": 49, "rt": 945, "response": "Alpha"}, "66": {"stimulus": 187, "trial": 66, "rt": 718, "response": "Alpha"}, "67": {"stimulus": 1655, "trial": 67, "rt": 1084, "response": "Beta"}, "68": {"stimulus": 2343, "trial": 68, "rt": 879, "response": "Beta"}, "69": {"stimulus": 0, "trial": 69, "rt": 811, "response": "Alpha"}, "80": {"stimulus": 1405, "trial": 80, "rt": 983, "response": "Alpha"}, "52": {"stimulus": 1187, "trial": 52, "rt": 657, "response": "Alpha"}, "53": {"stimulus": 405, "trial": 53, "rt": 496, "response": "Alpha"}, "24": {"stimulus": 718, "trial": 24, "rt": 682, "response": "Alpha"}, "25": {"stimulus": 1749, "trial": 25, "rt": 922, "response": "Beta"}, "26": {"stimulus": 1530, "trial": 26, "rt": 621, "response": "Beta"}, "27": {"stimulus": 1312, "trial": 27, "rt": 3008, "response": "Beta"}, "20": {"stimulus": 1624, "trial": 20, "rt": 812, "response": "Beta"}, "21": {"stimulus": 218, "trial": 21, "rt": 718, "response": "Alpha"}, "22": {"stimulus": 1843, "trial": 22, "rt": 873, "response": "Beta"}, "23": {"stimulus": 155, "trial": 23, "rt": 1006, "response": "Alpha"}, "46": {"stimulus": 468, "trial": 46, "rt": 471, "response": "Alpha"}, "47": {"stimulus": 530, "trial": 47, "rt": 479, "response": "Alpha"}, "44": {"stimulus": 968, "trial": 44, "rt": 491, "response": "Alpha"}, "45": {"stimulus": 843, "trial": 45, "rt": 462, "response": "Alpha"}, "28": {"stimulus": 937, "trial": 28, "rt": 641, "response": "Alpha"}, "29": {"stimulus": 1343, "trial": 29, "rt": 1060, "response": "Alpha"}, "40": {"stimulus": 2187, "trial": 40, "rt": 1107, "response": "Beta"}, "41": {"stimulus": 1593, "trial": 41, "rt": 1167, "response": "Beta"}, "1": {"stimulus": 1937, "trial": 1, "rt": 3797, "response": "Beta"}, "0": {"stimulus": 30, "trial": 0, "rt": 2504, "response": "Alpha"}, "3": {"stimulus": 374, "trial": 3, "rt": 463, "response": "Alpha"}, "2": {"stimulus": 1812, "trial": 2, "rt": 1132, "response": "Beta"}, "5": {"stimulus": 1499, "trial": 5, "rt": 717, "response": "Alpha"}, "4": {"stimulus": 343, "trial": 4, "rt": 421, "response": "Alpha"}, "7": {"stimulus": 1687, "trial": 7, "rt": 823, "response": "Beta"}, "6": {"stimulus": 2093, "trial": 6, "rt": 954, "response": "Beta"}, "9": {"stimulus": 2312, "trial": 9, "rt": 847, "response": "Beta"}, "8": {"stimulus": 905, "trial": 8, "rt": 819, "response": "Alpha"}, "78": {"stimulus": 1468, "trial": 78, "rt": 1223, "response": "Beta"}, "51": {"stimulus": 1030, "trial": 51, "rt": 457, "response": "Alpha"}, "39": {"stimulus": 1374, "trial": 39, "rt": 1151, "response": "Alpha"}, "65": {"stimulus": 562, "trial": 65, "rt": 746, "response": "Alpha"}, "76": {"stimulus": 93, "trial": 76, "rt": 746, "response": "Alpha"}, "75": {"stimulus": 2030, "trial": 75, "rt": 916, "response": "Beta"}, "38": {"stimulus": 1905, "trial": 38, "rt": 800, "response": "Beta"}, "73": {"stimulus": 437, "trial": 73, "rt": 804, "response": "Alpha"}, "72": {"stimulus": 2062, "trial": 72, "rt": 814, "response": "Beta"}, "71": {"stimulus": 874, "trial": 71, "rt": 688, "response": "Alpha"}, "70": {"stimulus": 2499, "trial": 70, "rt": 855, "response": "Beta"}, "59": {"stimulus": 1155, "trial": 59, "rt": 1074, "response": "Alpha"}, "79": {"stimulus": 280, "trial": 79, "rt": 609, "response": "Alpha"}, "58": {"stimulus": 2155, "trial": 58, "rt": 967, "response": "Beta"}, "11": {"stimulus": 999, "trial": 11, "rt": 1329, "response": "Alpha"}, "10": {"stimulus": 2374, "trial": 10, "rt": 791, "response": "Beta"}, "13": {"stimulus": 2218, "trial": 13, "rt": 1075, "response": "Beta"}, "12": {"stimulus": 62, "trial": 12, "rt": 464, "response": "Alpha"}, "15": {"stimulus": 249, "trial": 15, "rt": 835, "response": "Alpha"}, "14": {"stimulus": 2124, "trial": 14, "rt": 599, "response": "Beta"}, "17": {"stimulus": 1562, "trial": 17, "rt": 1836, "response": "Beta"}, "16": {"stimulus": 1874, "trial": 16, "rt": 965, "response": "Beta"}, "19": {"stimulus": 1999, "trial": 19, "rt": 997, "response": "Beta"}, "18": {"stimulus": 1280, "trial": 18, "rt": 755, "response": "Alpha"}, "31": {"stimulus": 780, "trial": 31, "rt": 542, "response": "Alpha"}, "30": {"stimulus": 124, "trial": 30, "rt": 498, "response": "Alpha"}, "37": {"stimulus": 2249, "trial": 37, "rt": 502, "response": "Beta"}, "36": {"stimulus": 1437, "trial": 36, "rt": 556, "response": "Beta"}, "35": {"stimulus": 1718, "trial": 35, "rt": 944, "response": "Beta"}, "34": {"stimulus": 593, "trial": 34, "rt": 486, "response": "Alpha"}, "33": {"stimulus": 499, "trial": 33, "rt": 672, "response": "Alpha"}, "55": {"stimulus": 1249, "trial": 55, "rt": 957, "response": "Alpha"}, "74": {"stimulus": 655, "trial": 74, "rt": 496, "response": "Alpha"}, "32": {"stimulus": 624, "trial": 32, "rt": 471, "response": "Alpha"}, "57": {"stimulus": 312, "trial": 57, "rt": 800, "response": "Alpha"}, "50": {"stimulus": 812, "trial": 50, "rt": 467, "response": "Alpha"}}, "experiment": {"Paradigm": "TACL", "Stimuli": "Size-Color Squares", "Experiment": "Generating-Multiple-Categories"}, "submit": {"timeTotal": 861783, "age": "32", "comments": "It was easy and somewhat interesting.", "sex": "Male"}}