{"info": {"finish": 1548061094509, "participant": 149, "exposed": true, "lab": false, "start": 1548060750501, "counterbalance": 7, "gentype": 2, "condition": "XOR", "browser": {"platform": "Win32", "userAgent": "Mozilla/5.0 (Windows NT 10.0; Win64; x64; rv:64.0) Gecko/20100101 Firefox/64.0"}}, "observation": {"11": {"stimulus": 1890, "trial": 11, "rt": 1366}, "10": {"stimulus": 1479, "trial": 10, "rt": 1591}, "1": {"stimulus": 1890, "trial": 1, "rt": 1700}, "0": {"stimulus": 1479, "trial": 0, "rt": 3482}, "3": {"stimulus": 403, "trial": 3, "rt": 2388}, "2": {"stimulus": 818, "trial": 2, "rt": 1889}, "5": {"stimulus": 1479, "trial": 5, "rt": 2317}, "4": {"stimulus": 403, "trial": 4, "rt": 1375}, "7": {"stimulus": 1890, "trial": 7, "rt": 1517}, "6": {"stimulus": 818, "trial": 6, "rt": 1490}, "9": {"stimulus": 818, "trial": 9, "rt": 1385}, "8": {"stimulus": 403, "trial": 8, "rt": 1736}}, "generation": {"1": {"category": "Beta", "trial": 1, "stimulus": 49, "rt": 3704}, "0": {"category": "Beta", "trial": 0, "stimulus": 2499, "rt": 15521}, "3": {"category": "Beta", "trial": 3, "stimulus": 2493, "rt": 8543}, "2": {"category": "Beta", "trial": 2, "stimulus": 2450, "rt": 6094}, "5": {"category": "Gamma", "trial": 5, "stimulus": 1349, "rt": 3571}, "4": {"category": "Gamma", "trial": 4, "stimulus": 849, "rt": 5187}, "7": {"category": "Gamma", "trial": 7, "stimulus": 1749, "rt": 3057}, "6": {"category": "Gamma", "trial": 6, "stimulus": 399, "rt": 4123}}, "generalization": {"56": {"stimulus": 2030, "trial": 56, "rt": 1264, "response": "Gamma"}, "77": {"stimulus": 1843, "trial": 77, "rt": 841, "response": "Gamma"}, "54": {"stimulus": 2218, "trial": 54, "rt": 1770, "response": "Gamma"}, "42": {"stimulus": 905, "trial": 42, "rt": 456, "response": "Alpha"}, "48": {"stimulus": 2312, "trial": 48, "rt": 1914, "response": "Alpha"}, "43": {"stimulus": 655, "trial": 43, "rt": 423, "response": "Alpha"}, "60": {"stimulus": 1343, "trial": 60, "rt": 1372, "response": "Gamma"}, "61": {"stimulus": 1124, "trial": 61, "rt": 1070, "response": "Alpha"}, "62": {"stimulus": 343, "trial": 62, "rt": 1216, "response": "Gamma"}, "63": {"stimulus": 1093, "trial": 63, "rt": 982, "response": "Beta"}, "64": {"stimulus": 1780, "trial": 64, "rt": 1910, "response": "Gamma"}, "49": {"stimulus": 1249, "trial": 49, "rt": 878, "response": "Beta"}, "66": {"stimulus": 2124, "trial": 66, "rt": 1175, "response": "Alpha"}, "67": {"stimulus": 468, "trial": 67, "rt": 530, "response": "Alpha"}, "68": {"stimulus": 1718, "trial": 68, "rt": 743, "response": "Alpha"}, "69": {"stimulus": 1437, "trial": 69, "rt": 892, "response": "Gamma"}, "80": {"stimulus": 1624, "trial": 80, "rt": 1249, "response": "Alpha"}, "52": {"stimulus": 593, "trial": 52, "rt": 1038, "response": "Gamma"}, "53": {"stimulus": 0, "trial": 53, "rt": 1188, "response": "Alpha"}, "24": {"stimulus": 1749, "trial": 24, "rt": 1050, "response": "Beta"}, "25": {"stimulus": 937, "trial": 25, "rt": 1090, "response": "Gamma"}, "26": {"stimulus": 30, "trial": 26, "rt": 755, "response": "Alpha"}, "27": {"stimulus": 374, "trial": 27, "rt": 492, "response": "Alpha"}, "20": {"stimulus": 1155, "trial": 20, "rt": 737, "response": "Alpha"}, "21": {"stimulus": 1687, "trial": 21, "rt": 1327, "response": "Gamma"}, "22": {"stimulus": 1968, "trial": 22, "rt": 2290, "response": "Gamma"}, "23": {"stimulus": 2468, "trial": 23, "rt": 872, "response": "Gamma"}, "46": {"stimulus": 93, "trial": 46, "rt": 1297, "response": "Beta"}, "47": {"stimulus": 874, "trial": 47, "rt": 1082, "response": "Gamma"}, "44": {"stimulus": 562, "trial": 44, "rt": 428, "response": "Alpha"}, "45": {"stimulus": 437, "trial": 45, "rt": 1092, "response": "Gamma"}, "28": {"stimulus": 530, "trial": 28, "rt": 572, "response": "Alpha"}, "29": {"stimulus": 2280, "trial": 29, "rt": 1051, "response": "Gamma"}, "40": {"stimulus": 2437, "trial": 40, "rt": 1463, "response": "Gamma"}, "41": {"stimulus": 1468, "trial": 41, "rt": 1302, "response": "Alpha"}, "1": {"stimulus": 499, "trial": 1, "rt": 761, "response": "Gamma"}, "0": {"stimulus": 999, "trial": 0, "rt": 2181, "response": "Gamma"}, "3": {"stimulus": 124, "trial": 3, "rt": 4055, "response": "Gamma"}, "2": {"stimulus": 1593, "trial": 2, "rt": 1905, "response": "Gamma"}, "5": {"stimulus": 1499, "trial": 5, "rt": 1159, "response": "Beta"}, "4": {"stimulus": 718, "trial": 4, "rt": 917, "response": "Alpha"}, "7": {"stimulus": 62, "trial": 7, "rt": 890, "response": "Alpha"}, "6": {"stimulus": 2499, "trial": 6, "rt": 754, "response": "Beta"}, "9": {"stimulus": 1062, "trial": 9, "rt": 589, "response": "Alpha"}, "8": {"stimulus": 187, "trial": 8, "rt": 616, "response": "Alpha"}, "78": {"stimulus": 280, "trial": 78, "rt": 932, "response": "Alpha"}, "51": {"stimulus": 1562, "trial": 51, "rt": 1133, "response": "Alpha"}, "39": {"stimulus": 1905, "trial": 39, "rt": 528, "response": "Alpha"}, "65": {"stimulus": 687, "trial": 65, "rt": 814, "response": "Gamma"}, "76": {"stimulus": 812, "trial": 76, "rt": 587, "response": "Alpha"}, "75": {"stimulus": 2187, "trial": 75, "rt": 1338, "response": "Gamma"}, "38": {"stimulus": 2062, "trial": 38, "rt": 481, "response": "Alpha"}, "73": {"stimulus": 2249, "trial": 73, "rt": 748, "response": "Beta"}, "72": {"stimulus": 1187, "trial": 72, "rt": 819, "response": "Gamma"}, "71": {"stimulus": 1530, "trial": 71, "rt": 413, "response": "Alpha"}, "70": {"stimulus": 968, "trial": 70, "rt": 753, "response": "Alpha"}, "59": {"stimulus": 312, "trial": 59, "rt": 818, "response": "Alpha"}, "79": {"stimulus": 1937, "trial": 79, "rt": 982, "response": "Gamma"}, "58": {"stimulus": 1030, "trial": 58, "rt": 1634, "response": "Gamma"}, "11": {"stimulus": 1655, "trial": 11, "rt": 809, "response": "Alpha"}, "10": {"stimulus": 1312, "trial": 10, "rt": 684, "response": "Alpha"}, "13": {"stimulus": 2374, "trial": 13, "rt": 1064, "response": "Alpha"}, "12": {"stimulus": 2093, "trial": 12, "rt": 3035, "response": "Gamma"}, "15": {"stimulus": 1999, "trial": 15, "rt": 1254, "response": "Beta"}, "14": {"stimulus": 1218, "trial": 14, "rt": 1322, "response": "Alpha"}, "17": {"stimulus": 1812, "trial": 17, "rt": 1108, "response": "Alpha"}, "16": {"stimulus": 1280, "trial": 16, "rt": 1188, "response": "Gamma"}, "19": {"stimulus": 218, "trial": 19, "rt": 1244, "response": "Alpha"}, "18": {"stimulus": 843, "trial": 18, "rt": 2405, "response": "Gamma"}, "31": {"stimulus": 249, "trial": 31, "rt": 1011, "response": "Beta"}, "30": {"stimulus": 1405, "trial": 30, "rt": 918, "response": "Alpha"}, "37": {"stimulus": 2155, "trial": 37, "rt": 622, "response": "Alpha"}, "36": {"stimulus": 1874, "trial": 36, "rt": 593, "response": "Alpha"}, "35": {"stimulus": 1374, "trial": 35, "rt": 2599, "response": "Alpha"}, "34": {"stimulus": 2405, "trial": 34, "rt": 1535, "response": "Alpha"}, "33": {"stimulus": 780, "trial": 33, "rt": 1222, "response": "Gamma"}, "55": {"stimulus": 155, "trial": 55, "rt": 653, "response": "Alpha"}, "74": {"stimulus": 2343, "trial": 74, "rt": 401, "response": "Beta"}, "32": {"stimulus": 405, "trial": 32, "rt": 990, "response": "Alpha"}, "57": {"stimulus": 624, "trial": 57, "rt": 3653, "response": "Gamma"}, "50": {"stimulus": 749, "trial": 50, "rt": 538, "response": "Beta"}}, "experiment": {"Paradigm": "TACL", "Stimuli": "Size-Color Squares", "Experiment": "Generating-Multiple-Categories"}, "submit": {"timeTotal": 344316, "age": "30", "comments": "", "sex": "Male"}}