{"info": {"finish": 1548061257469, "participant": 150, "exposed": true, "lab": false, "start": 1548060792088, "counterbalance": 6, "gentype": 2, "condition": "XOR", "browser": {"platform": "Win32", "userAgent": "Mozilla/5.0 (Windows NT 10.0; Win64; x64) AppleWebKit/537.36 (KHTML, like Gecko) Chrome/71.0.3578.98 Safari/537.36"}}, "observation": {"11": {"stimulus": 818, "trial": 11, "rt": 3457}, "10": {"stimulus": 403, "trial": 10, "rt": 2650}, "1": {"stimulus": 818, "trial": 1, "rt": 10216}, "0": {"stimulus": 1479, "trial": 0, "rt": 8555}, "3": {"stimulus": 1890, "trial": 3, "rt": 3890}, "2": {"stimulus": 403, "trial": 2, "rt": 6396}, "5": {"stimulus": 1890, "trial": 5, "rt": 2729}, "4": {"stimulus": 818, "trial": 4, "rt": 4088}, "7": {"stimulus": 1479, "trial": 7, "rt": 5797}, "6": {"stimulus": 403, "trial": 6, "rt": 2388}, "9": {"stimulus": 1479, "trial": 9, "rt": 2669}, "8": {"stimulus": 1890, "trial": 8, "rt": 4505}}, "generation": {"1": {"category": "Beta", "trial": 1, "stimulus": 1786, "rt": 13062}, "0": {"category": "Beta", "trial": 0, "stimulus": 1202, "rt": 21403}, "3": {"category": "Beta", "trial": 3, "stimulus": 2447, "rt": 10408}, "2": {"category": "Beta", "trial": 2, "stimulus": 270, "rt": 9586}, "5": {"category": "Gamma", "trial": 5, "stimulus": 1225, "rt": 8318}, "4": {"category": "Gamma", "trial": 4, "stimulus": 100, "rt": 10188}, "7": {"category": "Gamma", "trial": 7, "stimulus": 1922, "rt": 10416}, "6": {"category": "Gamma", "trial": 6, "stimulus": 849, "rt": 10495}}, "generalization": {"56": {"stimulus": 218, "trial": 56, "rt": 425, "response": "Beta"}, "77": {"stimulus": 749, "trial": 77, "rt": 766, "response": "Beta"}, "54": {"stimulus": 343, "trial": 54, "rt": 1680, "response": "Gamma"}, "42": {"stimulus": 687, "trial": 42, "rt": 419, "response": "Alpha"}, "48": {"stimulus": 2437, "trial": 48, "rt": 551, "response": "Alpha"}, "43": {"stimulus": 1312, "trial": 43, "rt": 483, "response": "Beta"}, "60": {"stimulus": 1280, "trial": 60, "rt": 437, "response": "Beta"}, "61": {"stimulus": 1093, "trial": 61, "rt": 847, "response": "Beta"}, "62": {"stimulus": 1843, "trial": 62, "rt": 534, "response": "Gamma"}, "63": {"stimulus": 593, "trial": 63, "rt": 429, "response": "Beta"}, "64": {"stimulus": 187, "trial": 64, "rt": 525, "response": "Beta"}, "49": {"stimulus": 249, "trial": 49, "rt": 454, "response": "Alpha"}, "66": {"stimulus": 812, "trial": 66, "rt": 582, "response": "Alpha"}, "67": {"stimulus": 1374, "trial": 67, "rt": 484, "response": "Beta"}, "68": {"stimulus": 312, "trial": 68, "rt": 586, "response": "Gamma"}, "69": {"stimulus": 1530, "trial": 69, "rt": 502, "response": "Beta"}, "80": {"stimulus": 2405, "trial": 80, "rt": 709, "response": "Alpha"}, "52": {"stimulus": 2155, "trial": 52, "rt": 432, "response": "Alpha"}, "53": {"stimulus": 468, "trial": 53, "rt": 506, "response": "Alpha"}, "24": {"stimulus": 1624, "trial": 24, "rt": 770, "response": "Beta"}, "25": {"stimulus": 1718, "trial": 25, "rt": 865, "response": "Gamma"}, "26": {"stimulus": 2249, "trial": 26, "rt": 638, "response": "Beta"}, "27": {"stimulus": 1218, "trial": 27, "rt": 759, "response": "Beta"}, "20": {"stimulus": 843, "trial": 20, "rt": 950, "response": "Gamma"}, "21": {"stimulus": 2343, "trial": 21, "rt": 1023, "response": "Beta"}, "22": {"stimulus": 1780, "trial": 22, "rt": 798, "response": "Gamma"}, "23": {"stimulus": 562, "trial": 23, "rt": 1052, "response": "Alpha"}, "46": {"stimulus": 2374, "trial": 46, "rt": 451, "response": "Beta"}, "47": {"stimulus": 718, "trial": 47, "rt": 411, "response": "Beta"}, "44": {"stimulus": 1999, "trial": 44, "rt": 638, "response": "Gamma"}, "45": {"stimulus": 93, "trial": 45, "rt": 503, "response": "Beta"}, "28": {"stimulus": 2218, "trial": 28, "rt": 801, "response": "Alpha"}, "29": {"stimulus": 874, "trial": 29, "rt": 607, "response": "Gamma"}, "40": {"stimulus": 937, "trial": 40, "rt": 702, "response": "Gamma"}, "41": {"stimulus": 1343, "trial": 41, "rt": 895, "response": "Alpha"}, "1": {"stimulus": 0, "trial": 1, "rt": 3309, "response": "Gamma"}, "0": {"stimulus": 437, "trial": 0, "rt": 3971, "response": "Beta"}, "3": {"stimulus": 280, "trial": 3, "rt": 4504, "response": "Beta"}, "2": {"stimulus": 1468, "trial": 2, "rt": 2506, "response": "Gamma"}, "5": {"stimulus": 1687, "trial": 5, "rt": 1590, "response": "Gamma"}, "4": {"stimulus": 1249, "trial": 4, "rt": 2206, "response": "Beta"}, "7": {"stimulus": 1405, "trial": 7, "rt": 1174, "response": "Alpha"}, "6": {"stimulus": 1124, "trial": 6, "rt": 1173, "response": "Beta"}, "9": {"stimulus": 30, "trial": 9, "rt": 2045, "response": "Alpha"}, "8": {"stimulus": 1812, "trial": 8, "rt": 1987, "response": "Beta"}, "78": {"stimulus": 1968, "trial": 78, "rt": 524, "response": "Beta"}, "51": {"stimulus": 2093, "trial": 51, "rt": 662, "response": "Alpha"}, "39": {"stimulus": 968, "trial": 39, "rt": 767, "response": "Beta"}, "65": {"stimulus": 155, "trial": 65, "rt": 589, "response": "Gamma"}, "76": {"stimulus": 655, "trial": 76, "rt": 550, "response": "Gamma"}, "75": {"stimulus": 374, "trial": 75, "rt": 494, "response": "Beta"}, "38": {"stimulus": 2030, "trial": 38, "rt": 967, "response": "Alpha"}, "73": {"stimulus": 1937, "trial": 73, "rt": 474, "response": "Beta"}, "72": {"stimulus": 999, "trial": 72, "rt": 408, "response": "Alpha"}, "71": {"stimulus": 1155, "trial": 71, "rt": 544, "response": "Alpha"}, "70": {"stimulus": 1655, "trial": 70, "rt": 382, "response": "Beta"}, "59": {"stimulus": 1562, "trial": 59, "rt": 442, "response": "Beta"}, "79": {"stimulus": 1437, "trial": 79, "rt": 477, "response": "Beta"}, "58": {"stimulus": 2062, "trial": 58, "rt": 590, "response": "Beta"}, "11": {"stimulus": 1905, "trial": 11, "rt": 1294, "response": "Gamma"}, "10": {"stimulus": 624, "trial": 10, "rt": 1857, "response": "Beta"}, "13": {"stimulus": 2124, "trial": 13, "rt": 1938, "response": "Alpha"}, "12": {"stimulus": 124, "trial": 12, "rt": 1015, "response": "Beta"}, "15": {"stimulus": 1749, "trial": 15, "rt": 2102, "response": "Beta"}, "14": {"stimulus": 530, "trial": 14, "rt": 1381, "response": "Beta"}, "17": {"stimulus": 780, "trial": 17, "rt": 1664, "response": "Alpha"}, "16": {"stimulus": 905, "trial": 16, "rt": 1593, "response": "Gamma"}, "19": {"stimulus": 499, "trial": 19, "rt": 2573, "response": "Alpha"}, "18": {"stimulus": 2499, "trial": 18, "rt": 1328, "response": "Beta"}, "31": {"stimulus": 1874, "trial": 31, "rt": 638, "response": "Beta"}, "30": {"stimulus": 1499, "trial": 30, "rt": 599, "response": "Beta"}, "37": {"stimulus": 1062, "trial": 37, "rt": 822, "response": "Alpha"}, "36": {"stimulus": 2280, "trial": 36, "rt": 599, "response": "Gamma"}, "35": {"stimulus": 405, "trial": 35, "rt": 606, "response": "Beta"}, "34": {"stimulus": 2187, "trial": 34, "rt": 686, "response": "Alpha"}, "33": {"stimulus": 1593, "trial": 33, "rt": 661, "response": "Gamma"}, "55": {"stimulus": 62, "trial": 55, "rt": 463, "response": "Beta"}, "74": {"stimulus": 2468, "trial": 74, "rt": 432, "response": "Gamma"}, "32": {"stimulus": 1030, "trial": 32, "rt": 605, "response": "Gamma"}, "57": {"stimulus": 2312, "trial": 57, "rt": 1168, "response": "Gamma"}, "50": {"stimulus": 1187, "trial": 50, "rt": 846, "response": "Gamma"}}, "experiment": {"Paradigm": "TACL", "Stimuli": "Size-Color Squares", "Experiment": "Generating-Multiple-Categories"}, "submit": {"timeTotal": 466766, "age": "30", "comments": "Interesting to memorize sizes.  ", "sex": "Male"}}