{"info": {"finish": 1548064775949, "participant": 151, "exposed": true, "lab": false, "start": 1548064307054, "counterbalance": 0, "gentype": 1, "condition": "Row", "browser": {"platform": "Win32", "userAgent": "Mozilla/5.0 (Windows NT 6.1; Win64; x64) AppleWebKit/537.36 (KHTML, like Gecko) Chrome/71.0.3578.98 Safari/537.36"}}, "observation": {"11": {"stimulus": 612, "trial": 11, "rt": 2143}, "10": {"stimulus": 421, "trial": 10, "rt": 2364}, "1": {"stimulus": 612, "trial": 1, "rt": 3365}, "0": {"stimulus": 582, "trial": 0, "rt": 4985}, "3": {"stimulus": 493, "trial": 3, "rt": 3305}, "2": {"stimulus": 421, "trial": 2, "rt": 3706}, "5": {"stimulus": 582, "trial": 5, "rt": 1943}, "4": {"stimulus": 493, "trial": 4, "rt": 2765}, "7": {"stimulus": 421, "trial": 7, "rt": 1923}, "6": {"stimulus": 612, "trial": 6, "rt": 2145}, "9": {"stimulus": 493, "trial": 9, "rt": 2203}, "8": {"stimulus": 582, "trial": 8, "rt": 1823}}, "generation": {"1": {"category": "Beta", "trial": 1, "stimulus": 2489, "rt": 15402}, "0": {"category": "Beta", "trial": 0, "stimulus": 2499, "rt": 35891}, "3": {"category": "Beta", "trial": 3, "stimulus": 2249, "rt": 6890}, "2": {"category": "Beta", "trial": 2, "stimulus": 2149, "rt": 15823}, "5": {"category": "Beta", "trial": 5, "stimulus": 2086, "rt": 29883}, "4": {"category": "Beta", "trial": 4, "stimulus": 2142, "rt": 13719}, "7": {"category": "Beta", "trial": 7, "stimulus": 1691, "rt": 8191}, "6": {"category": "Beta", "trial": 6, "stimulus": 1849, "rt": 8412}}, "generalization": {"56": {"stimulus": 2030, "trial": 56, "rt": 1003, "response": "Beta"}, "77": {"stimulus": 1999, "trial": 77, "rt": 981, "response": "Beta"}, "54": {"stimulus": 155, "trial": 54, "rt": 562, "response": "Alpha"}, "42": {"stimulus": 530, "trial": 42, "rt": 662, "response": "Alpha"}, "48": {"stimulus": 2124, "trial": 48, "rt": 983, "response": "Beta"}, "43": {"stimulus": 312, "trial": 43, "rt": 603, "response": "Alpha"}, "60": {"stimulus": 2374, "trial": 60, "rt": 1022, "response": "Beta"}, "61": {"stimulus": 1062, "trial": 61, "rt": 1401, "response": "Alpha"}, "62": {"stimulus": 62, "trial": 62, "rt": 963, "response": "Alpha"}, "63": {"stimulus": 218, "trial": 63, "rt": 641, "response": "Alpha"}, "64": {"stimulus": 655, "trial": 64, "rt": 561, "response": "Alpha"}, "49": {"stimulus": 1968, "trial": 49, "rt": 682, "response": "Beta"}, "66": {"stimulus": 1249, "trial": 66, "rt": 1102, "response": "Alpha"}, "67": {"stimulus": 1499, "trial": 67, "rt": 3868, "response": "Alpha"}, "68": {"stimulus": 874, "trial": 68, "rt": 721, "response": "Alpha"}, "69": {"stimulus": 280, "trial": 69, "rt": 680, "response": "Alpha"}, "80": {"stimulus": 2343, "trial": 80, "rt": 1002, "response": "Beta"}, "52": {"stimulus": 562, "trial": 52, "rt": 861, "response": "Alpha"}, "53": {"stimulus": 1593, "trial": 53, "rt": 1324, "response": "Alpha"}, "24": {"stimulus": 2280, "trial": 24, "rt": 1001, "response": "Beta"}, "25": {"stimulus": 30, "trial": 25, "rt": 1102, "response": "Alpha"}, "26": {"stimulus": 1530, "trial": 26, "rt": 2704, "response": "Alpha"}, "27": {"stimulus": 1280, "trial": 27, "rt": 1083, "response": "Alpha"}, "20": {"stimulus": 1124, "trial": 20, "rt": 1083, "response": "Alpha"}, "21": {"stimulus": 2499, "trial": 21, "rt": 1102, "response": "Beta"}, "22": {"stimulus": 968, "trial": 22, "rt": 1122, "response": "Alpha"}, "23": {"stimulus": 249, "trial": 23, "rt": 1142, "response": "Alpha"}, "46": {"stimulus": 187, "trial": 46, "rt": 680, "response": "Alpha"}, "47": {"stimulus": 812, "trial": 47, "rt": 781, "response": "Alpha"}, "44": {"stimulus": 1874, "trial": 44, "rt": 1243, "response": "Beta"}, "45": {"stimulus": 718, "trial": 45, "rt": 862, "response": "Alpha"}, "28": {"stimulus": 1343, "trial": 28, "rt": 882, "response": "Alpha"}, "29": {"stimulus": 343, "trial": 29, "rt": 1080, "response": "Alpha"}, "40": {"stimulus": 1468, "trial": 40, "rt": 1003, "response": "Alpha"}, "41": {"stimulus": 624, "trial": 41, "rt": 641, "response": "Alpha"}, "1": {"stimulus": 1812, "trial": 1, "rt": 2624, "response": "Beta"}, "0": {"stimulus": 499, "trial": 0, "rt": 6068, "response": "Alpha"}, "3": {"stimulus": 1312, "trial": 3, "rt": 3325, "response": "Beta"}, "2": {"stimulus": 374, "trial": 2, "rt": 1422, "response": "Alpha"}, "5": {"stimulus": 1155, "trial": 5, "rt": 1583, "response": "Beta"}, "4": {"stimulus": 780, "trial": 4, "rt": 1341, "response": "Alpha"}, "7": {"stimulus": 1187, "trial": 7, "rt": 882, "response": "Alpha"}, "6": {"stimulus": 687, "trial": 6, "rt": 1042, "response": "Alpha"}, "9": {"stimulus": 124, "trial": 9, "rt": 1223, "response": "Alpha"}, "8": {"stimulus": 2249, "trial": 8, "rt": 922, "response": "Beta"}, "78": {"stimulus": 937, "trial": 78, "rt": 1103, "response": "Alpha"}, "51": {"stimulus": 1624, "trial": 51, "rt": 622, "response": "Beta"}, "39": {"stimulus": 437, "trial": 39, "rt": 761, "response": "Alpha"}, "65": {"stimulus": 93, "trial": 65, "rt": 682, "response": "Alpha"}, "76": {"stimulus": 1093, "trial": 76, "rt": 961, "response": "Alpha"}, "75": {"stimulus": 2437, "trial": 75, "rt": 921, "response": "Beta"}, "38": {"stimulus": 749, "trial": 38, "rt": 882, "response": "Alpha"}, "73": {"stimulus": 1030, "trial": 73, "rt": 1302, "response": "Alpha"}, "72": {"stimulus": 1687, "trial": 72, "rt": 1323, "response": "Beta"}, "71": {"stimulus": 2312, "trial": 71, "rt": 742, "response": "Beta"}, "70": {"stimulus": 2405, "trial": 70, "rt": 1101, "response": "Beta"}, "59": {"stimulus": 468, "trial": 59, "rt": 1121, "response": "Alpha"}, "79": {"stimulus": 2062, "trial": 79, "rt": 1242, "response": "Beta"}, "58": {"stimulus": 1905, "trial": 58, "rt": 741, "response": "Beta"}, "11": {"stimulus": 0, "trial": 11, "rt": 1401, "response": "Alpha"}, "10": {"stimulus": 1655, "trial": 10, "rt": 1241, "response": "Beta"}, "13": {"stimulus": 1405, "trial": 13, "rt": 2301, "response": "Beta"}, "12": {"stimulus": 905, "trial": 12, "rt": 1424, "response": "Alpha"}, "15": {"stimulus": 2468, "trial": 15, "rt": 862, "response": "Beta"}, "14": {"stimulus": 1843, "trial": 14, "rt": 1222, "response": "Beta"}, "17": {"stimulus": 843, "trial": 17, "rt": 1382, "response": "Alpha"}, "16": {"stimulus": 2218, "trial": 16, "rt": 800, "response": "Beta"}, "19": {"stimulus": 1780, "trial": 19, "rt": 942, "response": "Beta"}, "18": {"stimulus": 1374, "trial": 18, "rt": 1783, "response": "Beta"}, "31": {"stimulus": 999, "trial": 31, "rt": 1241, "response": "Alpha"}, "30": {"stimulus": 1718, "trial": 30, "rt": 1243, "response": "Beta"}, "37": {"stimulus": 1937, "trial": 37, "rt": 1241, "response": "Beta"}, "36": {"stimulus": 405, "trial": 36, "rt": 762, "response": "Alpha"}, "35": {"stimulus": 1218, "trial": 35, "rt": 1002, "response": "Alpha"}, "34": {"stimulus": 2093, "trial": 34, "rt": 1063, "response": "Beta"}, "33": {"stimulus": 1437, "trial": 33, "rt": 722, "response": "Alpha"}, "55": {"stimulus": 2155, "trial": 55, "rt": 1040, "response": "Beta"}, "74": {"stimulus": 593, "trial": 74, "rt": 1001, "response": "Alpha"}, "32": {"stimulus": 1749, "trial": 32, "rt": 2743, "response": "Alpha"}, "57": {"stimulus": 1562, "trial": 57, "rt": 984, "response": "Beta"}, "50": {"stimulus": 2187, "trial": 50, "rt": 762, "response": "Beta"}}, "experiment": {"Paradigm": "TACL", "Stimuli": "Size-Color Squares", "Experiment": "Generating-Multiple-Categories"}, "submit": {"timeTotal": 469044, "age": "45", "comments": "thanks!", "sex": "male"}}