{"info": {"finish": 1548064805560, "participant": 153, "exposed": true, "lab": false, "start": 1548064316953, "counterbalance": 4, "gentype": 2, "condition": "Row", "browser": {"platform": "MacIntel", "userAgent": "Mozilla/5.0 (Macintosh; Intel Mac OS X 10.14; rv:64.0) Gecko/20100101 Firefox/64.0"}}, "observation": {"11": {"stimulus": 493, "trial": 11, "rt": 2153}, "10": {"stimulus": 582, "trial": 10, "rt": 2198}, "1": {"stimulus": 612, "trial": 1, "rt": 3241}, "0": {"stimulus": 421, "trial": 0, "rt": 5859}, "3": {"stimulus": 582, "trial": 3, "rt": 2230}, "2": {"stimulus": 493, "trial": 2, "rt": 2303}, "5": {"stimulus": 612, "trial": 5, "rt": 2247}, "4": {"stimulus": 582, "trial": 4, "rt": 2362}, "7": {"stimulus": 421, "trial": 7, "rt": 2178}, "6": {"stimulus": 493, "trial": 6, "rt": 2224}, "9": {"stimulus": 421, "trial": 9, "rt": 2097}, "8": {"stimulus": 612, "trial": 8, "rt": 3354}}, "generation": {"1": {"category": "Beta", "trial": 1, "stimulus": 16, "rt": 17436}, "0": {"category": "Beta", "trial": 0, "stimulus": 0, "rt": 21597}, "3": {"category": "Beta", "trial": 3, "stimulus": 49, "rt": 6413}, "2": {"category": "Beta", "trial": 2, "stimulus": 31, "rt": 7481}, "5": {"category": "Gamma", "trial": 5, "stimulus": 267, "rt": 7844}, "4": {"category": "Gamma", "trial": 4, "stimulus": 300, "rt": 52418}, "7": {"category": "Gamma", "trial": 7, "stimulus": 299, "rt": 6057}, "6": {"category": "Gamma", "trial": 6, "stimulus": 281, "rt": 7319}}, "generalization": {"56": {"stimulus": 2499, "trial": 56, "rt": 1204, "response": "Gamma"}, "77": {"stimulus": 1655, "trial": 77, "rt": 1465, "response": "Alpha"}, "54": {"stimulus": 1093, "trial": 54, "rt": 1684, "response": "Gamma"}, "42": {"stimulus": 468, "trial": 42, "rt": 1050, "response": "Beta"}, "48": {"stimulus": 2218, "trial": 48, "rt": 906, "response": "Alpha"}, "43": {"stimulus": 2030, "trial": 43, "rt": 1425, "response": "Alpha"}, "60": {"stimulus": 1593, "trial": 60, "rt": 3311, "response": "Alpha"}, "61": {"stimulus": 937, "trial": 61, "rt": 3330, "response": "Gamma"}, "62": {"stimulus": 1280, "trial": 62, "rt": 2217, "response": "Gamma"}, "63": {"stimulus": 1062, "trial": 63, "rt": 2408, "response": "Gamma"}, "64": {"stimulus": 968, "trial": 64, "rt": 1068, "response": "Gamma"}, "49": {"stimulus": 2343, "trial": 49, "rt": 1135, "response": "Alpha"}, "66": {"stimulus": 2437, "trial": 66, "rt": 1556, "response": "Alpha"}, "67": {"stimulus": 405, "trial": 67, "rt": 2305, "response": "Gamma"}, "68": {"stimulus": 1562, "trial": 68, "rt": 1202, "response": "Gamma"}, "69": {"stimulus": 1937, "trial": 69, "rt": 1696, "response": "Alpha"}, "80": {"stimulus": 749, "trial": 80, "rt": 2104, "response": "Gamma"}, "52": {"stimulus": 999, "trial": 52, "rt": 942, "response": "Gamma"}, "53": {"stimulus": 155, "trial": 53, "rt": 1244, "response": "Beta"}, "24": {"stimulus": 687, "trial": 24, "rt": 1166, "response": "Gamma"}, "25": {"stimulus": 2374, "trial": 25, "rt": 1770, "response": "Alpha"}, "26": {"stimulus": 93, "trial": 26, "rt": 1202, "response": "Beta"}, "27": {"stimulus": 1999, "trial": 27, "rt": 2014, "response": "Alpha"}, "20": {"stimulus": 437, "trial": 20, "rt": 1778, "response": "Beta"}, "21": {"stimulus": 843, "trial": 21, "rt": 1831, "response": "Gamma"}, "22": {"stimulus": 1124, "trial": 22, "rt": 1154, "response": "Gamma"}, "23": {"stimulus": 562, "trial": 23, "rt": 1580, "response": "Gamma"}, "46": {"stimulus": 249, "trial": 46, "rt": 1508, "response": "Gamma"}, "47": {"stimulus": 1187, "trial": 47, "rt": 1305, "response": "Gamma"}, "44": {"stimulus": 530, "trial": 44, "rt": 4004, "response": "Gamma"}, "45": {"stimulus": 1530, "trial": 45, "rt": 1616, "response": "Alpha"}, "28": {"stimulus": 343, "trial": 28, "rt": 2076, "response": "Beta"}, "29": {"stimulus": 812, "trial": 29, "rt": 1747, "response": "Gamma"}, "40": {"stimulus": 780, "trial": 40, "rt": 1477, "response": "Gamma"}, "41": {"stimulus": 0, "trial": 41, "rt": 1407, "response": "Beta"}, "1": {"stimulus": 124, "trial": 1, "rt": 4686, "response": "Beta"}, "0": {"stimulus": 1374, "trial": 0, "rt": 4105, "response": "Alpha"}, "3": {"stimulus": 62, "trial": 3, "rt": 1361, "response": "Beta"}, "2": {"stimulus": 280, "trial": 2, "rt": 1739, "response": "Beta"}, "5": {"stimulus": 593, "trial": 5, "rt": 1192, "response": "Gamma"}, "4": {"stimulus": 655, "trial": 4, "rt": 2677, "response": "Gamma"}, "7": {"stimulus": 1968, "trial": 7, "rt": 1246, "response": "Alpha"}, "6": {"stimulus": 1249, "trial": 6, "rt": 1927, "response": "Alpha"}, "9": {"stimulus": 624, "trial": 9, "rt": 2978, "response": "Gamma"}, "8": {"stimulus": 2124, "trial": 8, "rt": 1302, "response": "Alpha"}, "78": {"stimulus": 1437, "trial": 78, "rt": 1445, "response": "Alpha"}, "51": {"stimulus": 718, "trial": 51, "rt": 1544, "response": "Gamma"}, "39": {"stimulus": 1312, "trial": 39, "rt": 1646, "response": "Alpha"}, "65": {"stimulus": 1405, "trial": 65, "rt": 1494, "response": "Gamma"}, "76": {"stimulus": 2280, "trial": 76, "rt": 1290, "response": "Alpha"}, "75": {"stimulus": 374, "trial": 75, "rt": 2093, "response": "Gamma"}, "38": {"stimulus": 1812, "trial": 38, "rt": 1146, "response": "Alpha"}, "73": {"stimulus": 1780, "trial": 73, "rt": 1018, "response": "Alpha"}, "72": {"stimulus": 1624, "trial": 72, "rt": 1942, "response": "Alpha"}, "71": {"stimulus": 2093, "trial": 71, "rt": 1280, "response": "Alpha"}, "70": {"stimulus": 1030, "trial": 70, "rt": 1308, "response": "Gamma"}, "59": {"stimulus": 1874, "trial": 59, "rt": 1100, "response": "Gamma"}, "79": {"stimulus": 1843, "trial": 79, "rt": 1116, "response": "Alpha"}, "58": {"stimulus": 1499, "trial": 58, "rt": 1730, "response": "Gamma"}, "11": {"stimulus": 2062, "trial": 11, "rt": 1103, "response": "Alpha"}, "10": {"stimulus": 2249, "trial": 10, "rt": 1346, "response": "Alpha"}, "13": {"stimulus": 1905, "trial": 13, "rt": 2324, "response": "Alpha"}, "12": {"stimulus": 499, "trial": 12, "rt": 3634, "response": "Beta"}, "15": {"stimulus": 312, "trial": 15, "rt": 1237, "response": "Beta"}, "14": {"stimulus": 874, "trial": 14, "rt": 2734, "response": "Gamma"}, "17": {"stimulus": 187, "trial": 17, "rt": 2093, "response": "Beta"}, "16": {"stimulus": 1218, "trial": 16, "rt": 1884, "response": "Gamma"}, "19": {"stimulus": 1687, "trial": 19, "rt": 2285, "response": "Gamma"}, "18": {"stimulus": 905, "trial": 18, "rt": 1734, "response": "Beta"}, "31": {"stimulus": 2187, "trial": 31, "rt": 1044, "response": "Alpha"}, "30": {"stimulus": 1749, "trial": 30, "rt": 2069, "response": "Alpha"}, "37": {"stimulus": 1468, "trial": 37, "rt": 2474, "response": "Alpha"}, "36": {"stimulus": 2155, "trial": 36, "rt": 1507, "response": "Alpha"}, "35": {"stimulus": 30, "trial": 35, "rt": 1391, "response": "Beta"}, "34": {"stimulus": 1343, "trial": 34, "rt": 964, "response": "Gamma"}, "33": {"stimulus": 1155, "trial": 33, "rt": 1280, "response": "Gamma"}, "55": {"stimulus": 218, "trial": 55, "rt": 1156, "response": "Beta"}, "74": {"stimulus": 2468, "trial": 74, "rt": 1052, "response": "Alpha"}, "32": {"stimulus": 2312, "trial": 32, "rt": 1054, "response": "Alpha"}, "57": {"stimulus": 1718, "trial": 57, "rt": 905, "response": "Gamma"}, "50": {"stimulus": 2405, "trial": 50, "rt": 998, "response": "Alpha"}}, "experiment": {"Paradigm": "TACL", "Stimuli": "Size-Color Squares", "Experiment": "Generating-Multiple-Categories"}, "submit": {"timeTotal": 488805, "age": "31", "comments": "", "sex": "male"}}