{"info": {"finish": 1548064850608, "participant": 154, "exposed": true, "lab": false, "start": 1548064434303, "counterbalance": 2, "gentype": 1, "condition": "Row", "browser": {"platform": "Win32", "userAgent": "Mozilla/5.0 (Windows NT 10.0; Win64; x64; rv:64.0) Gecko/20100101 Firefox/64.0"}}, "observation": {"11": {"stimulus": 582, "trial": 11, "rt": 3832}, "10": {"stimulus": 421, "trial": 10, "rt": 9037}, "1": {"stimulus": 493, "trial": 1, "rt": 5965}, "0": {"stimulus": 612, "trial": 0, "rt": 7804}, "3": {"stimulus": 421, "trial": 3, "rt": 5308}, "2": {"stimulus": 582, "trial": 2, "rt": 5536}, "5": {"stimulus": 612, "trial": 5, "rt": 4626}, "4": {"stimulus": 582, "trial": 4, "rt": 4961}, "7": {"stimulus": 493, "trial": 7, "rt": 4285}, "6": {"stimulus": 421, "trial": 6, "rt": 4701}, "9": {"stimulus": 493, "trial": 9, "rt": 4953}, "8": {"stimulus": 612, "trial": 8, "rt": 5398}}, "generation": {"1": {"category": "Beta", "trial": 1, "stimulus": 2166, "rt": 6754}, "0": {"category": "Beta", "trial": 0, "stimulus": 2144, "rt": 19283}, "3": {"category": "Beta", "trial": 3, "stimulus": 2183, "rt": 4534}, "2": {"category": "Beta", "trial": 2, "stimulus": 2200, "rt": 5623}, "5": {"category": "Beta", "trial": 5, "stimulus": 2184, "rt": 5335}, "4": {"category": "Beta", "trial": 4, "stimulus": 2227, "rt": 4250}, "7": {"category": "Beta", "trial": 7, "stimulus": 2112, "rt": 4934}, "6": {"category": "Beta", "trial": 6, "stimulus": 2199, "rt": 4949}}, "generalization": {"56": {"stimulus": 1999, "trial": 56, "rt": 570, "response": "Beta"}, "77": {"stimulus": 1562, "trial": 77, "rt": 953, "response": "Beta"}, "54": {"stimulus": 2374, "trial": 54, "rt": 664, "response": "Beta"}, "42": {"stimulus": 2280, "trial": 42, "rt": 585, "response": "Beta"}, "48": {"stimulus": 843, "trial": 48, "rt": 848, "response": "Alpha"}, "43": {"stimulus": 2155, "trial": 43, "rt": 522, "response": "Beta"}, "60": {"stimulus": 2062, "trial": 60, "rt": 737, "response": "Beta"}, "61": {"stimulus": 312, "trial": 61, "rt": 659, "response": "Alpha"}, "62": {"stimulus": 0, "trial": 62, "rt": 515, "response": "Alpha"}, "63": {"stimulus": 1437, "trial": 63, "rt": 655, "response": "Beta"}, "64": {"stimulus": 1280, "trial": 64, "rt": 648, "response": "Beta"}, "49": {"stimulus": 1624, "trial": 49, "rt": 583, "response": "Beta"}, "66": {"stimulus": 1687, "trial": 66, "rt": 567, "response": "Beta"}, "67": {"stimulus": 812, "trial": 67, "rt": 889, "response": "Alpha"}, "68": {"stimulus": 593, "trial": 68, "rt": 751, "response": "Alpha"}, "69": {"stimulus": 468, "trial": 69, "rt": 1326, "response": "Alpha"}, "80": {"stimulus": 718, "trial": 80, "rt": 922, "response": "Alpha"}, "52": {"stimulus": 624, "trial": 52, "rt": 712, "response": "Alpha"}, "53": {"stimulus": 405, "trial": 53, "rt": 622, "response": "Alpha"}, "24": {"stimulus": 2187, "trial": 24, "rt": 883, "response": "Beta"}, "25": {"stimulus": 249, "trial": 25, "rt": 837, "response": "Alpha"}, "26": {"stimulus": 218, "trial": 26, "rt": 849, "response": "Alpha"}, "27": {"stimulus": 2437, "trial": 27, "rt": 778, "response": "Beta"}, "20": {"stimulus": 1468, "trial": 20, "rt": 1506, "response": "Beta"}, "21": {"stimulus": 1530, "trial": 21, "rt": 705, "response": "Beta"}, "22": {"stimulus": 1905, "trial": 22, "rt": 699, "response": "Beta"}, "23": {"stimulus": 749, "trial": 23, "rt": 740, "response": "Alpha"}, "46": {"stimulus": 1780, "trial": 46, "rt": 552, "response": "Beta"}, "47": {"stimulus": 905, "trial": 47, "rt": 1113, "response": "Alpha"}, "44": {"stimulus": 2468, "trial": 44, "rt": 471, "response": "Beta"}, "45": {"stimulus": 1124, "trial": 45, "rt": 1291, "response": "Beta"}, "28": {"stimulus": 1030, "trial": 28, "rt": 2823, "response": "Beta"}, "29": {"stimulus": 1718, "trial": 29, "rt": 1306, "response": "Beta"}, "40": {"stimulus": 1093, "trial": 40, "rt": 1125, "response": "Beta"}, "41": {"stimulus": 874, "trial": 41, "rt": 981, "response": "Alpha"}, "1": {"stimulus": 499, "trial": 1, "rt": 1197, "response": "Alpha"}, "0": {"stimulus": 1374, "trial": 0, "rt": 2188, "response": "Beta"}, "3": {"stimulus": 1405, "trial": 3, "rt": 869, "response": "Beta"}, "2": {"stimulus": 2218, "trial": 2, "rt": 1467, "response": "Beta"}, "5": {"stimulus": 280, "trial": 5, "rt": 1056, "response": "Alpha"}, "4": {"stimulus": 1155, "trial": 4, "rt": 2620, "response": "Beta"}, "7": {"stimulus": 1187, "trial": 7, "rt": 829, "response": "Beta"}, "6": {"stimulus": 1968, "trial": 6, "rt": 1041, "response": "Beta"}, "9": {"stimulus": 343, "trial": 9, "rt": 732, "response": "Alpha"}, "8": {"stimulus": 1499, "trial": 8, "rt": 703, "response": "Beta"}, "78": {"stimulus": 1749, "trial": 78, "rt": 552, "response": "Beta"}, "51": {"stimulus": 1843, "trial": 51, "rt": 516, "response": "Beta"}, "39": {"stimulus": 1312, "trial": 39, "rt": 739, "response": "Beta"}, "65": {"stimulus": 2405, "trial": 65, "rt": 531, "response": "Beta"}, "76": {"stimulus": 124, "trial": 76, "rt": 699, "response": "Alpha"}, "75": {"stimulus": 1655, "trial": 75, "rt": 765, "response": "Beta"}, "38": {"stimulus": 780, "trial": 38, "rt": 1619, "response": "Alpha"}, "73": {"stimulus": 562, "trial": 73, "rt": 663, "response": "Alpha"}, "72": {"stimulus": 937, "trial": 72, "rt": 2677, "response": "Beta"}, "71": {"stimulus": 1593, "trial": 71, "rt": 906, "response": "Beta"}, "70": {"stimulus": 2343, "trial": 70, "rt": 747, "response": "Beta"}, "59": {"stimulus": 374, "trial": 59, "rt": 641, "response": "Alpha"}, "79": {"stimulus": 1249, "trial": 79, "rt": 506, "response": "Beta"}, "58": {"stimulus": 1874, "trial": 58, "rt": 535, "response": "Beta"}, "11": {"stimulus": 655, "trial": 11, "rt": 2727, "response": "Alpha"}, "10": {"stimulus": 1937, "trial": 10, "rt": 857, "response": "Beta"}, "13": {"stimulus": 1812, "trial": 13, "rt": 859, "response": "Beta"}, "12": {"stimulus": 968, "trial": 12, "rt": 2013, "response": "Alpha"}, "15": {"stimulus": 93, "trial": 15, "rt": 591, "response": "Alpha"}, "14": {"stimulus": 530, "trial": 14, "rt": 943, "response": "Alpha"}, "17": {"stimulus": 155, "trial": 17, "rt": 765, "response": "Alpha"}, "16": {"stimulus": 2030, "trial": 16, "rt": 774, "response": "Beta"}, "19": {"stimulus": 1218, "trial": 19, "rt": 975, "response": "Beta"}, "18": {"stimulus": 1343, "trial": 18, "rt": 1783, "response": "Beta"}, "31": {"stimulus": 2124, "trial": 31, "rt": 632, "response": "Beta"}, "30": {"stimulus": 999, "trial": 30, "rt": 765, "response": "Alpha"}, "37": {"stimulus": 62, "trial": 37, "rt": 654, "response": "Alpha"}, "36": {"stimulus": 30, "trial": 36, "rt": 690, "response": "Alpha"}, "35": {"stimulus": 2312, "trial": 35, "rt": 1348, "response": "Beta"}, "34": {"stimulus": 187, "trial": 34, "rt": 789, "response": "Alpha"}, "33": {"stimulus": 437, "trial": 33, "rt": 737, "response": "Alpha"}, "55": {"stimulus": 687, "trial": 55, "rt": 721, "response": "Alpha"}, "74": {"stimulus": 2249, "trial": 74, "rt": 686, "response": "Beta"}, "32": {"stimulus": 2499, "trial": 32, "rt": 632, "response": "Beta"}, "57": {"stimulus": 2093, "trial": 57, "rt": 528, "response": "Beta"}, "50": {"stimulus": 1062, "trial": 50, "rt": 1221, "response": "Beta"}}, "experiment": {"Paradigm": "TACL", "Stimuli": "Size-Color Squares", "Experiment": "Generating-Multiple-Categories"}, "submit": {"timeTotal": 416533, "age": "31", "comments": "The instructions were clear and there were no technical issues so far.", "sex": "male"}}