{"info": {"finish": 1548064814194, "participant": 156, "exposed": true, "lab": false, "start": 1548064492269, "counterbalance": 5, "gentype": 0, "condition": "Cluster", "browser": {"platform": "Win32", "userAgent": "Mozilla/5.0 (Windows NT 6.1; Win64; x64) AppleWebKit/537.36 (KHTML, like Gecko) Chrome/71.0.3578.98 Safari/537.36"}}, "observation": {"11": {"stimulus": 1083, "trial": 11, "rt": 1502}, "10": {"stimulus": 1093, "trial": 10, "rt": 2456}, "1": {"stimulus": 583, "trial": 1, "rt": 2273}, "0": {"stimulus": 392, "trial": 0, "rt": 2995}, "3": {"stimulus": 1083, "trial": 3, "rt": 1760}, "2": {"stimulus": 1093, "trial": 2, "rt": 1988}, "5": {"stimulus": 1093, "trial": 5, "rt": 1743}, "4": {"stimulus": 1083, "trial": 4, "rt": 2529}, "7": {"stimulus": 392, "trial": 7, "rt": 1971}, "6": {"stimulus": 583, "trial": 6, "rt": 1708}, "9": {"stimulus": 583, "trial": 9, "rt": 1665}, "8": {"stimulus": 392, "trial": 8, "rt": 1693}}, "generation": {"1": {"category": "Not-Alpha", "trial": 1, "stimulus": 2450, "rt": 6617}, "0": {"category": "Not-Alpha", "trial": 0, "stimulus": 0, "rt": 8279}, "3": {"category": "Not-Alpha", "trial": 3, "stimulus": 2, "rt": 7675}, "2": {"category": "Not-Alpha", "trial": 2, "stimulus": 2452, "rt": 8710}, "5": {"category": "Not-Alpha", "trial": 5, "stimulus": 903, "rt": 6647}, "4": {"category": "Not-Alpha", "trial": 4, "stimulus": 1400, "rt": 6193}, "7": {"category": "Not-Alpha", "trial": 7, "stimulus": 1150, "rt": 13148}, "6": {"category": "Not-Alpha", "trial": 6, "stimulus": 400, "rt": 9021}}, "generalization": {"56": {"stimulus": 687, "trial": 56, "rt": 697, "response": "Alpha"}, "77": {"stimulus": 1843, "trial": 77, "rt": 651, "response": "Alpha"}, "54": {"stimulus": 1593, "trial": 54, "rt": 743, "response": "Alpha"}, "42": {"stimulus": 1655, "trial": 42, "rt": 762, "response": "Beta"}, "48": {"stimulus": 999, "trial": 48, "rt": 702, "response": "Alpha"}, "43": {"stimulus": 374, "trial": 43, "rt": 1018, "response": "Beta"}, "60": {"stimulus": 874, "trial": 60, "rt": 1621, "response": "Beta"}, "61": {"stimulus": 312, "trial": 61, "rt": 917, "response": "Beta"}, "62": {"stimulus": 968, "trial": 62, "rt": 656, "response": "Beta"}, "63": {"stimulus": 1812, "trial": 63, "rt": 639, "response": "Beta"}, "64": {"stimulus": 905, "trial": 64, "rt": 560, "response": "Beta"}, "49": {"stimulus": 437, "trial": 49, "rt": 1168, "response": "Alpha"}, "66": {"stimulus": 2249, "trial": 66, "rt": 635, "response": "Alpha"}, "67": {"stimulus": 2405, "trial": 67, "rt": 785, "response": "Beta"}, "68": {"stimulus": 780, "trial": 68, "rt": 532, "response": "Alpha"}, "69": {"stimulus": 1249, "trial": 69, "rt": 638, "response": "Alpha"}, "80": {"stimulus": 2374, "trial": 80, "rt": 735, "response": "Alpha"}, "52": {"stimulus": 812, "trial": 52, "rt": 837, "response": "Beta"}, "53": {"stimulus": 937, "trial": 53, "rt": 698, "response": "Alpha"}, "24": {"stimulus": 1312, "trial": 24, "rt": 580, "response": "Beta"}, "25": {"stimulus": 749, "trial": 25, "rt": 752, "response": "Alpha"}, "26": {"stimulus": 2280, "trial": 26, "rt": 865, "response": "Alpha"}, "27": {"stimulus": 1187, "trial": 27, "rt": 954, "response": "Alpha"}, "20": {"stimulus": 0, "trial": 20, "rt": 647, "response": "Beta"}, "21": {"stimulus": 187, "trial": 21, "rt": 1114, "response": "Alpha"}, "22": {"stimulus": 468, "trial": 22, "rt": 807, "response": "Beta"}, "23": {"stimulus": 2218, "trial": 23, "rt": 885, "response": "Beta"}, "46": {"stimulus": 2030, "trial": 46, "rt": 1464, "response": "Alpha"}, "47": {"stimulus": 1155, "trial": 47, "rt": 634, "response": "Beta"}, "44": {"stimulus": 1468, "trial": 44, "rt": 973, "response": "Beta"}, "45": {"stimulus": 1749, "trial": 45, "rt": 644, "response": "Alpha"}, "28": {"stimulus": 562, "trial": 28, "rt": 629, "response": "Beta"}, "29": {"stimulus": 1405, "trial": 29, "rt": 577, "response": "Beta"}, "40": {"stimulus": 1343, "trial": 40, "rt": 695, "response": "Alpha"}, "41": {"stimulus": 30, "trial": 41, "rt": 2330, "response": "Alpha"}, "1": {"stimulus": 593, "trial": 1, "rt": 2641, "response": "Alpha"}, "0": {"stimulus": 155, "trial": 0, "rt": 6709, "response": "Alpha"}, "3": {"stimulus": 1905, "trial": 3, "rt": 1738, "response": "Beta"}, "2": {"stimulus": 1968, "trial": 2, "rt": 1026, "response": "Alpha"}, "5": {"stimulus": 1374, "trial": 5, "rt": 867, "response": "Alpha"}, "4": {"stimulus": 2312, "trial": 4, "rt": 1054, "response": "Alpha"}, "7": {"stimulus": 624, "trial": 7, "rt": 1788, "response": "Alpha"}, "6": {"stimulus": 343, "trial": 6, "rt": 1289, "response": "Alpha"}, "9": {"stimulus": 718, "trial": 9, "rt": 1183, "response": "Beta"}, "8": {"stimulus": 1437, "trial": 8, "rt": 1266, "response": "Alpha"}, "78": {"stimulus": 2062, "trial": 78, "rt": 1097, "response": "Beta"}, "51": {"stimulus": 1874, "trial": 51, "rt": 1734, "response": "Beta"}, "39": {"stimulus": 1124, "trial": 39, "rt": 1573, "response": "Beta"}, "65": {"stimulus": 2468, "trial": 65, "rt": 569, "response": "Beta"}, "76": {"stimulus": 2155, "trial": 76, "rt": 820, "response": "Beta"}, "75": {"stimulus": 218, "trial": 75, "rt": 1505, "response": "Beta"}, "38": {"stimulus": 2499, "trial": 38, "rt": 776, "response": "Alpha"}, "73": {"stimulus": 499, "trial": 73, "rt": 624, "response": "Alpha"}, "72": {"stimulus": 280, "trial": 72, "rt": 562, "response": "Alpha"}, "71": {"stimulus": 1218, "trial": 71, "rt": 945, "response": "Beta"}, "70": {"stimulus": 1562, "trial": 70, "rt": 663, "response": "Beta"}, "59": {"stimulus": 843, "trial": 59, "rt": 557, "response": "Alpha"}, "79": {"stimulus": 62, "trial": 79, "rt": 744, "response": "Beta"}, "58": {"stimulus": 1093, "trial": 58, "rt": 557, "response": "Alpha"}, "11": {"stimulus": 1030, "trial": 11, "rt": 2474, "response": "Alpha"}, "10": {"stimulus": 2343, "trial": 10, "rt": 1116, "response": "Alpha"}, "13": {"stimulus": 1280, "trial": 13, "rt": 785, "response": "Alpha"}, "12": {"stimulus": 2437, "trial": 12, "rt": 833, "response": "Alpha"}, "15": {"stimulus": 1780, "trial": 15, "rt": 1865, "response": "Alpha"}, "14": {"stimulus": 124, "trial": 14, "rt": 846, "response": "Beta"}, "17": {"stimulus": 2187, "trial": 17, "rt": 1809, "response": "Alpha"}, "16": {"stimulus": 1530, "trial": 16, "rt": 989, "response": "Alpha"}, "19": {"stimulus": 1718, "trial": 19, "rt": 1062, "response": "Beta"}, "18": {"stimulus": 1999, "trial": 18, "rt": 973, "response": "Alpha"}, "31": {"stimulus": 249, "trial": 31, "rt": 814, "response": "Alpha"}, "30": {"stimulus": 93, "trial": 30, "rt": 736, "response": "Alpha"}, "37": {"stimulus": 655, "trial": 37, "rt": 582, "response": "Beta"}, "36": {"stimulus": 1687, "trial": 36, "rt": 684, "response": "Alpha"}, "35": {"stimulus": 530, "trial": 35, "rt": 1288, "response": "Beta"}, "34": {"stimulus": 1937, "trial": 34, "rt": 730, "response": "Alpha"}, "33": {"stimulus": 405, "trial": 33, "rt": 537, "response": "Beta"}, "55": {"stimulus": 1624, "trial": 55, "rt": 1061, "response": "Beta"}, "74": {"stimulus": 1499, "trial": 74, "rt": 585, "response": "Alpha"}, "32": {"stimulus": 2093, "trial": 32, "rt": 756, "response": "Alpha"}, "57": {"stimulus": 1062, "trial": 57, "rt": 700, "response": "Beta"}, "50": {"stimulus": 2124, "trial": 50, "rt": 3095, "response": "Beta"}}, "experiment": {"Paradigm": "TACL", "Stimuli": "Size-Color Squares", "Experiment": "Generating-Multiple-Categories"}, "submit": {"timeTotal": 322439, "age": "21", "comments": "", "sex": "Female"}}