{"info": {"finish": 1548071889849, "participant": 163, "exposed": true, "lab": false, "start": 1548071533467, "counterbalance": 7, "gentype": 2, "condition": "Row", "browser": {"platform": "Win32", "userAgent": "Mozilla/5.0 (Windows NT 6.1; Win64; x64) AppleWebKit/537.36 (KHTML, like Gecko) Chrome/71.0.3578.98 Safari/537.36"}}, "observation": {"11": {"stimulus": 612, "trial": 11, "rt": 1543}, "10": {"stimulus": 582, "trial": 10, "rt": 2283}, "1": {"stimulus": 582, "trial": 1, "rt": 10504}, "0": {"stimulus": 421, "trial": 0, "rt": 14125}, "3": {"stimulus": 612, "trial": 3, "rt": 3244}, "2": {"stimulus": 493, "trial": 2, "rt": 3331}, "5": {"stimulus": 582, "trial": 5, "rt": 2141}, "4": {"stimulus": 421, "trial": 4, "rt": 1820}, "7": {"stimulus": 612, "trial": 7, "rt": 1863}, "6": {"stimulus": 493, "trial": 6, "rt": 3580}, "9": {"stimulus": 421, "trial": 9, "rt": 1772}, "8": {"stimulus": 493, "trial": 8, "rt": 1972}}, "generation": {"1": {"category": "Beta", "trial": 1, "stimulus": 504, "rt": 7744}, "0": {"category": "Beta", "trial": 0, "stimulus": 603, "rt": 7828}, "3": {"category": "Beta", "trial": 3, "stimulus": 909, "rt": 7300}, "2": {"category": "Beta", "trial": 2, "stimulus": 1111, "rt": 3803}, "5": {"category": "Gamma", "trial": 5, "stimulus": 1110, "rt": 4235}, "4": {"category": "Gamma", "trial": 4, "stimulus": 1008, "rt": 5479}, "7": {"category": "Gamma", "trial": 7, "stimulus": 759, "rt": 3434}, "6": {"category": "Gamma", "trial": 6, "stimulus": 704, "rt": 9001}}, "generalization": {"56": {"stimulus": 249, "trial": 56, "rt": 350, "response": "Gamma"}, "77": {"stimulus": 30, "trial": 77, "rt": 2063, "response": "Gamma"}, "54": {"stimulus": 2437, "trial": 54, "rt": 593, "response": "Gamma"}, "42": {"stimulus": 1562, "trial": 42, "rt": 2801, "response": "Beta"}, "48": {"stimulus": 1437, "trial": 48, "rt": 601, "response": "Gamma"}, "43": {"stimulus": 1030, "trial": 43, "rt": 453, "response": "Beta"}, "60": {"stimulus": 1780, "trial": 60, "rt": 627, "response": "Gamma"}, "61": {"stimulus": 1062, "trial": 61, "rt": 470, "response": "Gamma"}, "62": {"stimulus": 2030, "trial": 62, "rt": 385, "response": "Gamma"}, "63": {"stimulus": 843, "trial": 63, "rt": 497, "response": "Gamma"}, "64": {"stimulus": 1093, "trial": 64, "rt": 944, "response": "Gamma"}, "49": {"stimulus": 1343, "trial": 49, "rt": 409, "response": "Gamma"}, "66": {"stimulus": 718, "trial": 66, "rt": 618, "response": "Gamma"}, "67": {"stimulus": 2405, "trial": 67, "rt": 1086, "response": "Gamma"}, "68": {"stimulus": 62, "trial": 68, "rt": 480, "response": "Beta"}, "69": {"stimulus": 1905, "trial": 69, "rt": 495, "response": "Gamma"}, "80": {"stimulus": 187, "trial": 80, "rt": 489, "response": "Alpha"}, "52": {"stimulus": 780, "trial": 52, "rt": 485, "response": "Gamma"}, "53": {"stimulus": 1874, "trial": 53, "rt": 400, "response": "Gamma"}, "24": {"stimulus": 1812, "trial": 24, "rt": 1063, "response": "Beta"}, "25": {"stimulus": 1593, "trial": 25, "rt": 551, "response": "Beta"}, "26": {"stimulus": 1249, "trial": 26, "rt": 444, "response": "Beta"}, "27": {"stimulus": 624, "trial": 27, "rt": 581, "response": "Beta"}, "20": {"stimulus": 1843, "trial": 20, "rt": 2912, "response": "Gamma"}, "21": {"stimulus": 1687, "trial": 21, "rt": 639, "response": "Gamma"}, "22": {"stimulus": 1749, "trial": 22, "rt": 628, "response": "Gamma"}, "23": {"stimulus": 655, "trial": 23, "rt": 687, "response": "Beta"}, "46": {"stimulus": 1312, "trial": 46, "rt": 1201, "response": "Gamma"}, "47": {"stimulus": 749, "trial": 47, "rt": 407, "response": "Gamma"}, "44": {"stimulus": 155, "trial": 44, "rt": 1540, "response": "Gamma"}, "45": {"stimulus": 312, "trial": 45, "rt": 784, "response": "Gamma"}, "28": {"stimulus": 218, "trial": 28, "rt": 773, "response": "Alpha"}, "29": {"stimulus": 2155, "trial": 29, "rt": 989, "response": "Beta"}, "40": {"stimulus": 905, "trial": 40, "rt": 521, "response": "Beta"}, "41": {"stimulus": 280, "trial": 41, "rt": 468, "response": "Beta"}, "1": {"stimulus": 530, "trial": 1, "rt": 4098, "response": "Beta"}, "0": {"stimulus": 2124, "trial": 0, "rt": 5319, "response": "Beta"}, "3": {"stimulus": 1655, "trial": 3, "rt": 1184, "response": "Beta"}, "2": {"stimulus": 2374, "trial": 2, "rt": 5328, "response": "Alpha"}, "5": {"stimulus": 1624, "trial": 5, "rt": 5581, "response": "Beta"}, "4": {"stimulus": 1937, "trial": 4, "rt": 7439, "response": "Alpha"}, "7": {"stimulus": 1124, "trial": 7, "rt": 1324, "response": "Alpha"}, "6": {"stimulus": 2312, "trial": 6, "rt": 939, "response": "Gamma"}, "9": {"stimulus": 2062, "trial": 9, "rt": 4136, "response": "Beta"}, "8": {"stimulus": 437, "trial": 8, "rt": 4896, "response": "Alpha"}, "78": {"stimulus": 2280, "trial": 78, "rt": 346, "response": "Alpha"}, "51": {"stimulus": 1530, "trial": 51, "rt": 1278, "response": "Gamma"}, "39": {"stimulus": 2093, "trial": 39, "rt": 402, "response": "Beta"}, "65": {"stimulus": 1405, "trial": 65, "rt": 1247, "response": "Gamma"}, "76": {"stimulus": 2218, "trial": 76, "rt": 439, "response": "Beta"}, "75": {"stimulus": 1968, "trial": 75, "rt": 409, "response": "Alpha"}, "38": {"stimulus": 1374, "trial": 38, "rt": 896, "response": "Gamma"}, "73": {"stimulus": 968, "trial": 73, "rt": 1369, "response": "Gamma"}, "72": {"stimulus": 343, "trial": 72, "rt": 344, "response": "Alpha"}, "71": {"stimulus": 2249, "trial": 71, "rt": 604, "response": "Beta"}, "70": {"stimulus": 937, "trial": 70, "rt": 1612, "response": "Gamma"}, "59": {"stimulus": 1155, "trial": 59, "rt": 10111, "response": "Gamma"}, "79": {"stimulus": 562, "trial": 79, "rt": 1642, "response": "Alpha"}, "58": {"stimulus": 1499, "trial": 58, "rt": 539, "response": "Gamma"}, "11": {"stimulus": 2468, "trial": 11, "rt": 1041, "response": "Beta"}, "10": {"stimulus": 1187, "trial": 10, "rt": 1112, "response": "Gamma"}, "13": {"stimulus": 2499, "trial": 13, "rt": 877, "response": "Beta"}, "12": {"stimulus": 2343, "trial": 12, "rt": 4952, "response": "Alpha"}, "15": {"stimulus": 1218, "trial": 15, "rt": 684, "response": "Beta"}, "14": {"stimulus": 812, "trial": 14, "rt": 1529, "response": "Beta"}, "17": {"stimulus": 499, "trial": 17, "rt": 911, "response": "Alpha"}, "16": {"stimulus": 1718, "trial": 16, "rt": 1035, "response": "Gamma"}, "19": {"stimulus": 687, "trial": 19, "rt": 458, "response": "Beta"}, "18": {"stimulus": 1999, "trial": 18, "rt": 719, "response": "Beta"}, "31": {"stimulus": 2187, "trial": 31, "rt": 536, "response": "Beta"}, "30": {"stimulus": 1468, "trial": 30, "rt": 526, "response": "Beta"}, "37": {"stimulus": 468, "trial": 37, "rt": 441, "response": "Gamma"}, "36": {"stimulus": 999, "trial": 36, "rt": 878, "response": "Gamma"}, "35": {"stimulus": 93, "trial": 35, "rt": 671, "response": "Gamma"}, "34": {"stimulus": 124, "trial": 34, "rt": 724, "response": "Gamma"}, "33": {"stimulus": 1280, "trial": 33, "rt": 6348, "response": "Gamma"}, "55": {"stimulus": 0, "trial": 55, "rt": 462, "response": "Gamma"}, "74": {"stimulus": 874, "trial": 74, "rt": 372, "response": "Beta"}, "32": {"stimulus": 374, "trial": 32, "rt": 909, "response": "Gamma"}, "57": {"stimulus": 593, "trial": 57, "rt": 418, "response": "Gamma"}, "50": {"stimulus": 405, "trial": 50, "rt": 393, "response": "Gamma"}}, "experiment": {"Paradigm": "TACL", "Stimuli": "Size-Color Squares", "Experiment": "Generating-Multiple-Categories"}, "submit": {"timeTotal": 357234, "age": "27", "comments": "NICE", "sex": "FEMALE"}}