{"info": {"finish": 1548072859534, "participant": 167, "exposed": true, "lab": false, "start": 1548072177348, "counterbalance": 6, "gentype": 2, "condition": "Cluster", "browser": {"platform": "Win32", "userAgent": "Mozilla/5.0 (Windows NT 10.0; Win64; x64) AppleWebKit/537.36 (KHTML, like Gecko) Chrome/71.0.3578.98 Safari/537.36"}}, "observation": {"11": {"stimulus": 1093, "trial": 11, "rt": 1740}, "10": {"stimulus": 1083, "trial": 10, "rt": 2068}, "1": {"stimulus": 1083, "trial": 1, "rt": 10472}, "0": {"stimulus": 392, "trial": 0, "rt": 4811}, "3": {"stimulus": 1093, "trial": 3, "rt": 2605}, "2": {"stimulus": 583, "trial": 2, "rt": 2405}, "5": {"stimulus": 1093, "trial": 5, "rt": 2030}, "4": {"stimulus": 1083, "trial": 4, "rt": 2151}, "7": {"stimulus": 583, "trial": 7, "rt": 1830}, "6": {"stimulus": 392, "trial": 6, "rt": 2694}, "9": {"stimulus": 583, "trial": 9, "rt": 1820}, "8": {"stimulus": 392, "trial": 8, "rt": 1623}}, "generation": {"1": {"category": "Beta", "trial": 1, "stimulus": 2144, "rt": 8418}, "0": {"category": "Beta", "trial": 0, "stimulus": 2449, "rt": 12363}, "3": {"category": "Beta", "trial": 3, "stimulus": 2445, "rt": 8288}, "2": {"category": "Beta", "trial": 2, "stimulus": 2099, "rt": 5869}, "5": {"category": "Gamma", "trial": 5, "stimulus": 350, "rt": 6583}, "4": {"category": "Gamma", "trial": 4, "stimulus": 104, "rt": 21617}, "7": {"category": "Gamma", "trial": 7, "stimulus": 258, "rt": 6370}, "6": {"category": "Gamma", "trial": 6, "stimulus": 5, "rt": 5742}}, "generalization": {"56": {"stimulus": 2374, "trial": 56, "rt": 917, "response": "Alpha"}, "77": {"stimulus": 812, "trial": 77, "rt": 1565, "response": "Gamma"}, "54": {"stimulus": 2499, "trial": 54, "rt": 1021, "response": "Beta"}, "42": {"stimulus": 124, "trial": 42, "rt": 1215, "response": "Gamma"}, "48": {"stimulus": 593, "trial": 48, "rt": 1056, "response": "Beta"}, "43": {"stimulus": 968, "trial": 43, "rt": 1100, "response": "Gamma"}, "60": {"stimulus": 1999, "trial": 60, "rt": 1228, "response": "Beta"}, "61": {"stimulus": 343, "trial": 61, "rt": 2111, "response": "Beta"}, "62": {"stimulus": 624, "trial": 62, "rt": 2043, "response": "Alpha"}, "63": {"stimulus": 749, "trial": 63, "rt": 1816, "response": "Beta"}, "64": {"stimulus": 1030, "trial": 64, "rt": 1327, "response": "Alpha"}, "49": {"stimulus": 905, "trial": 49, "rt": 1303, "response": "Gamma"}, "66": {"stimulus": 1530, "trial": 66, "rt": 894, "response": "Alpha"}, "67": {"stimulus": 1218, "trial": 67, "rt": 2355, "response": "Alpha"}, "68": {"stimulus": 1905, "trial": 68, "rt": 977, "response": "Gamma"}, "69": {"stimulus": 2030, "trial": 69, "rt": 1294, "response": "Alpha"}, "80": {"stimulus": 1874, "trial": 80, "rt": 1068, "response": "Alpha"}, "52": {"stimulus": 2468, "trial": 52, "rt": 1709, "response": "Gamma"}, "53": {"stimulus": 1468, "trial": 53, "rt": 1369, "response": "Gamma"}, "24": {"stimulus": 2062, "trial": 24, "rt": 3879, "response": "Gamma"}, "25": {"stimulus": 1655, "trial": 25, "rt": 807, "response": "Gamma"}, "26": {"stimulus": 1187, "trial": 26, "rt": 1958, "response": "Beta"}, "27": {"stimulus": 2124, "trial": 27, "rt": 1600, "response": "Alpha"}, "20": {"stimulus": 30, "trial": 20, "rt": 3073, "response": "Alpha"}, "21": {"stimulus": 1718, "trial": 21, "rt": 3246, "response": "Gamma"}, "22": {"stimulus": 843, "trial": 22, "rt": 1094, "response": "Beta"}, "23": {"stimulus": 2437, "trial": 23, "rt": 4383, "response": "Alpha"}, "46": {"stimulus": 218, "trial": 46, "rt": 2231, "response": "Gamma"}, "47": {"stimulus": 1749, "trial": 47, "rt": 974, "response": "Beta"}, "44": {"stimulus": 2343, "trial": 44, "rt": 1231, "response": "Beta"}, "45": {"stimulus": 1124, "trial": 45, "rt": 847, "response": "Alpha"}, "28": {"stimulus": 437, "trial": 28, "rt": 2311, "response": "Beta"}, "29": {"stimulus": 1937, "trial": 29, "rt": 2213, "response": "Beta"}, "40": {"stimulus": 1093, "trial": 40, "rt": 919, "response": "Beta"}, "41": {"stimulus": 1405, "trial": 41, "rt": 815, "response": "Gamma"}, "1": {"stimulus": 312, "trial": 1, "rt": 1972, "response": "Gamma"}, "0": {"stimulus": 1437, "trial": 0, "rt": 2860, "response": "Alpha"}, "3": {"stimulus": 1968, "trial": 3, "rt": 5318, "response": "Gamma"}, "2": {"stimulus": 1624, "trial": 2, "rt": 1317, "response": "Alpha"}, "5": {"stimulus": 1249, "trial": 5, "rt": 1056, "response": "Beta"}, "4": {"stimulus": 2218, "trial": 4, "rt": 1792, "response": "Gamma"}, "7": {"stimulus": 2155, "trial": 7, "rt": 1255, "response": "Gamma"}, "6": {"stimulus": 655, "trial": 6, "rt": 1079, "response": "Gamma"}, "9": {"stimulus": 249, "trial": 9, "rt": 1345, "response": "Beta"}, "8": {"stimulus": 1499, "trial": 8, "rt": 1326, "response": "Beta"}, "78": {"stimulus": 499, "trial": 78, "rt": 1941, "response": "Beta"}, "51": {"stimulus": 1343, "trial": 51, "rt": 869, "response": "Beta"}, "39": {"stimulus": 1687, "trial": 39, "rt": 1152, "response": "Beta"}, "65": {"stimulus": 468, "trial": 65, "rt": 2459, "response": "Alpha"}, "76": {"stimulus": 530, "trial": 76, "rt": 1360, "response": "Alpha"}, "75": {"stimulus": 2312, "trial": 75, "rt": 823, "response": "Gamma"}, "38": {"stimulus": 280, "trial": 38, "rt": 1003, "response": "Alpha"}, "73": {"stimulus": 2405, "trial": 73, "rt": 797, "response": "Gamma"}, "72": {"stimulus": 1593, "trial": 72, "rt": 1381, "response": "Beta"}, "71": {"stimulus": 780, "trial": 71, "rt": 1448, "response": "Alpha"}, "70": {"stimulus": 999, "trial": 70, "rt": 606, "response": "Beta"}, "59": {"stimulus": 155, "trial": 59, "rt": 824, "response": "Gamma"}, "79": {"stimulus": 187, "trial": 79, "rt": 9768, "response": "Beta"}, "58": {"stimulus": 405, "trial": 58, "rt": 731, "response": "Gamma"}, "11": {"stimulus": 2093, "trial": 11, "rt": 3701, "response": "Beta"}, "10": {"stimulus": 937, "trial": 10, "rt": 2970, "response": "Alpha"}, "13": {"stimulus": 1312, "trial": 13, "rt": 979, "response": "Gamma"}, "12": {"stimulus": 1812, "trial": 12, "rt": 3924, "response": "Gamma"}, "15": {"stimulus": 874, "trial": 15, "rt": 1170, "response": "Alpha"}, "14": {"stimulus": 1155, "trial": 14, "rt": 1025, "response": "Gamma"}, "17": {"stimulus": 562, "trial": 17, "rt": 2207, "response": "Gamma"}, "16": {"stimulus": 1374, "trial": 16, "rt": 1054, "response": "Alpha"}, "19": {"stimulus": 93, "trial": 19, "rt": 1098, "response": "Beta"}, "18": {"stimulus": 1780, "trial": 18, "rt": 1404, "response": "Alpha"}, "31": {"stimulus": 1562, "trial": 31, "rt": 1087, "response": "Gamma"}, "30": {"stimulus": 2249, "trial": 30, "rt": 2605, "response": "Beta"}, "37": {"stimulus": 1280, "trial": 37, "rt": 1396, "response": "Alpha"}, "36": {"stimulus": 1843, "trial": 36, "rt": 1024, "response": "Beta"}, "35": {"stimulus": 2280, "trial": 35, "rt": 1093, "response": "Alpha"}, "34": {"stimulus": 718, "trial": 34, "rt": 2669, "response": "Gamma"}, "33": {"stimulus": 2187, "trial": 33, "rt": 1310, "response": "Beta"}, "55": {"stimulus": 687, "trial": 55, "rt": 1101, "response": "Alpha"}, "74": {"stimulus": 0, "trial": 74, "rt": 652, "response": "Gamma"}, "32": {"stimulus": 374, "trial": 32, "rt": 1871, "response": "Alpha"}, "57": {"stimulus": 1062, "trial": 57, "rt": 942, "response": "Gamma"}, "50": {"stimulus": 62, "trial": 50, "rt": 810, "response": "Gamma"}}, "experiment": {"Paradigm": "TACL", "Stimuli": "Size-Color Squares", "Experiment": "Generating-Multiple-Categories"}, "submit": {"timeTotal": 682514, "age": "53", "comments": "nothing further to add", "sex": "male"}}