{"info": {"finish": 1548072513343, "participant": 168, "exposed": true, "lab": false, "start": 1548072237622, "counterbalance": 5, "gentype": 1, "condition": "XOR", "browser": {"platform": "Linux x86_64", "userAgent": "Mozilla/5.0 (X11; Linux x86_64) AppleWebKit/537.36 (KHTML, like Gecko) Chrome/71.0.3578.98 Safari/537.36"}}, "observation": {"11": {"stimulus": 818, "trial": 11, "rt": 2528}, "10": {"stimulus": 1479, "trial": 10, "rt": 1391}, "1": {"stimulus": 1890, "trial": 1, "rt": 2408}, "0": {"stimulus": 818, "trial": 0, "rt": 2410}, "3": {"stimulus": 1479, "trial": 3, "rt": 1497}, "2": {"stimulus": 403, "trial": 2, "rt": 1707}, "5": {"stimulus": 1479, "trial": 5, "rt": 1788}, "4": {"stimulus": 818, "trial": 4, "rt": 1741}, "7": {"stimulus": 1890, "trial": 7, "rt": 1680}, "6": {"stimulus": 403, "trial": 6, "rt": 1545}, "9": {"stimulus": 1890, "trial": 9, "rt": 1671}, "8": {"stimulus": 403, "trial": 8, "rt": 6131}}, "generation": {"1": {"category": "Beta", "trial": 1, "stimulus": 2474, "rt": 2716}, "0": {"category": "Beta", "trial": 0, "stimulus": 181, "rt": 7912}, "3": {"category": "Beta", "trial": 3, "stimulus": 49, "rt": 2875}, "2": {"category": "Beta", "trial": 2, "stimulus": 2494, "rt": 1945}, "5": {"category": "Beta", "trial": 5, "stimulus": 1481, "rt": 3351}, "4": {"category": "Beta", "trial": 4, "stimulus": 1022, "rt": 3821}, "7": {"category": "Beta", "trial": 7, "stimulus": 1931, "rt": 3764}, "6": {"category": "Beta", "trial": 6, "stimulus": 2396, "rt": 3803}}, "generalization": {"56": {"stimulus": 2093, "trial": 56, "rt": 471, "response": "Alpha"}, "77": {"stimulus": 780, "trial": 77, "rt": 387, "response": "Alpha"}, "54": {"stimulus": 1905, "trial": 54, "rt": 1550, "response": "Beta"}, "42": {"stimulus": 468, "trial": 42, "rt": 537, "response": "Alpha"}, "48": {"stimulus": 1155, "trial": 48, "rt": 347, "response": "Beta"}, "43": {"stimulus": 718, "trial": 43, "rt": 643, "response": "Alpha"}, "60": {"stimulus": 124, "trial": 60, "rt": 435, "response": "Alpha"}, "61": {"stimulus": 687, "trial": 61, "rt": 658, "response": "Alpha"}, "62": {"stimulus": 2218, "trial": 62, "rt": 647, "response": "Alpha"}, "63": {"stimulus": 593, "trial": 63, "rt": 1553, "response": "Alpha"}, "64": {"stimulus": 624, "trial": 64, "rt": 959, "response": "Beta"}, "49": {"stimulus": 1843, "trial": 49, "rt": 364, "response": "Alpha"}, "66": {"stimulus": 93, "trial": 66, "rt": 408, "response": "Alpha"}, "67": {"stimulus": 1437, "trial": 67, "rt": 1071, "response": "Alpha"}, "68": {"stimulus": 1280, "trial": 68, "rt": 1161, "response": "Beta"}, "69": {"stimulus": 218, "trial": 69, "rt": 720, "response": "Alpha"}, "80": {"stimulus": 1374, "trial": 80, "rt": 251, "response": "Alpha"}, "52": {"stimulus": 1312, "trial": 52, "rt": 430, "response": "Alpha"}, "53": {"stimulus": 374, "trial": 53, "rt": 1556, "response": "Alpha"}, "24": {"stimulus": 62, "trial": 24, "rt": 956, "response": "Beta"}, "25": {"stimulus": 2499, "trial": 25, "rt": 2940, "response": "Alpha"}, "26": {"stimulus": 1218, "trial": 26, "rt": 1364, "response": "Beta"}, "27": {"stimulus": 2437, "trial": 27, "rt": 887, "response": "Beta"}, "20": {"stimulus": 2187, "trial": 20, "rt": 582, "response": "Alpha"}, "21": {"stimulus": 2468, "trial": 21, "rt": 1180, "response": "Alpha"}, "22": {"stimulus": 1937, "trial": 22, "rt": 413, "response": "Beta"}, "23": {"stimulus": 1468, "trial": 23, "rt": 299, "response": "Alpha"}, "46": {"stimulus": 437, "trial": 46, "rt": 855, "response": "Beta"}, "47": {"stimulus": 1874, "trial": 47, "rt": 368, "response": "Alpha"}, "44": {"stimulus": 1749, "trial": 44, "rt": 598, "response": "Alpha"}, "45": {"stimulus": 1062, "trial": 45, "rt": 977, "response": "Alpha"}, "28": {"stimulus": 2124, "trial": 28, "rt": 625, "response": "Alpha"}, "29": {"stimulus": 1030, "trial": 29, "rt": 495, "response": "Alpha"}, "40": {"stimulus": 249, "trial": 40, "rt": 1588, "response": "Beta"}, "41": {"stimulus": 1405, "trial": 41, "rt": 331, "response": "Alpha"}, "1": {"stimulus": 1593, "trial": 1, "rt": 1837, "response": "Beta"}, "0": {"stimulus": 30, "trial": 0, "rt": 1664, "response": "Alpha"}, "3": {"stimulus": 1687, "trial": 3, "rt": 786, "response": "Alpha"}, "2": {"stimulus": 530, "trial": 2, "rt": 918, "response": "Alpha"}, "5": {"stimulus": 843, "trial": 5, "rt": 1359, "response": "Alpha"}, "4": {"stimulus": 187, "trial": 4, "rt": 1830, "response": "Beta"}, "7": {"stimulus": 2030, "trial": 7, "rt": 1010, "response": "Alpha"}, "6": {"stimulus": 1780, "trial": 6, "rt": 1783, "response": "Beta"}, "9": {"stimulus": 1718, "trial": 9, "rt": 1229, "response": "Alpha"}, "8": {"stimulus": 343, "trial": 8, "rt": 673, "response": "Alpha"}, "78": {"stimulus": 312, "trial": 78, "rt": 310, "response": "Alpha"}, "51": {"stimulus": 1093, "trial": 51, "rt": 342, "response": "Alpha"}, "39": {"stimulus": 562, "trial": 39, "rt": 926, "response": "Beta"}, "65": {"stimulus": 1249, "trial": 65, "rt": 1552, "response": "Alpha"}, "76": {"stimulus": 937, "trial": 76, "rt": 331, "response": "Beta"}, "75": {"stimulus": 1499, "trial": 75, "rt": 401, "response": "Alpha"}, "38": {"stimulus": 2249, "trial": 38, "rt": 846, "response": "Beta"}, "73": {"stimulus": 749, "trial": 73, "rt": 772, "response": "Beta"}, "72": {"stimulus": 2343, "trial": 72, "rt": 469, "response": "Alpha"}, "71": {"stimulus": 499, "trial": 71, "rt": 429, "response": "Alpha"}, "70": {"stimulus": 999, "trial": 70, "rt": 728, "response": "Alpha"}, "59": {"stimulus": 2405, "trial": 59, "rt": 1156, "response": "Alpha"}, "79": {"stimulus": 1187, "trial": 79, "rt": 521, "response": "Alpha"}, "58": {"stimulus": 1530, "trial": 58, "rt": 740, "response": "Beta"}, "11": {"stimulus": 1562, "trial": 11, "rt": 1496, "response": "Alpha"}, "10": {"stimulus": 0, "trial": 10, "rt": 866, "response": "Alpha"}, "13": {"stimulus": 2062, "trial": 13, "rt": 776, "response": "Beta"}, "12": {"stimulus": 968, "trial": 12, "rt": 677, "response": "Alpha"}, "15": {"stimulus": 1655, "trial": 15, "rt": 688, "response": "Beta"}, "14": {"stimulus": 1624, "trial": 14, "rt": 13846, "response": "Alpha"}, "17": {"stimulus": 812, "trial": 17, "rt": 1876, "response": "Alpha"}, "16": {"stimulus": 1343, "trial": 16, "rt": 865, "response": "Beta"}, "19": {"stimulus": 405, "trial": 19, "rt": 1728, "response": "Alpha"}, "18": {"stimulus": 280, "trial": 18, "rt": 856, "response": "Beta"}, "31": {"stimulus": 1999, "trial": 31, "rt": 474, "response": "Alpha"}, "30": {"stimulus": 2312, "trial": 30, "rt": 327, "response": "Alpha"}, "37": {"stimulus": 1968, "trial": 37, "rt": 550, "response": "Alpha"}, "36": {"stimulus": 2155, "trial": 36, "rt": 1122, "response": "Alpha"}, "35": {"stimulus": 655, "trial": 35, "rt": 1136, "response": "Alpha"}, "34": {"stimulus": 2374, "trial": 34, "rt": 550, "response": "Beta"}, "33": {"stimulus": 1124, "trial": 33, "rt": 968, "response": "Alpha"}, "55": {"stimulus": 1812, "trial": 55, "rt": 279, "response": "Alpha"}, "74": {"stimulus": 155, "trial": 74, "rt": 791, "response": "Alpha"}, "32": {"stimulus": 905, "trial": 32, "rt": 935, "response": "Alpha"}, "57": {"stimulus": 2280, "trial": 57, "rt": 1421, "response": "Beta"}, "50": {"stimulus": 874, "trial": 50, "rt": 732, "response": "Beta"}}, "experiment": {"Paradigm": "TACL", "Stimuli": "Size-Color Squares", "Experiment": "Generating-Multiple-Categories"}, "submit": {"timeTotal": 275818, "age": "27", "comments": "", "sex": "Male"}}