{"info": {"finish": 1548075974388, "participant": 171, "exposed": true, "lab": false, "start": 1548075572481, "counterbalance": 6, "gentype": 1, "condition": "Cluster", "browser": {"platform": "Win32", "userAgent": "Mozilla/5.0 (Windows NT 6.1; Win64; x64) AppleWebKit/537.36 (KHTML, like Gecko) Chrome/71.0.3578.98 Safari/537.36"}}, "observation": {"11": {"stimulus": 1093, "trial": 11, "rt": 2429}, "10": {"stimulus": 1083, "trial": 10, "rt": 1892}, "1": {"stimulus": 583, "trial": 1, "rt": 3060}, "0": {"stimulus": 1093, "trial": 0, "rt": 6119}, "3": {"stimulus": 392, "trial": 3, "rt": 2108}, "2": {"stimulus": 1083, "trial": 2, "rt": 2239}, "5": {"stimulus": 583, "trial": 5, "rt": 1844}, "4": {"stimulus": 1093, "trial": 4, "rt": 3105}, "7": {"stimulus": 392, "trial": 7, "rt": 1912}, "6": {"stimulus": 1083, "trial": 6, "rt": 2178}, "9": {"stimulus": 583, "trial": 9, "rt": 2541}, "8": {"stimulus": 392, "trial": 8, "rt": 1678}}, "generation": {"1": {"category": "Beta", "trial": 1, "stimulus": 1108, "rt": 7046}, "0": {"category": "Beta", "trial": 0, "stimulus": 1603, "rt": 26558}, "3": {"category": "Beta", "trial": 3, "stimulus": 109, "rt": 6338}, "2": {"category": "Beta", "trial": 2, "stimulus": 806, "rt": 8114}, "5": {"category": "Beta", "trial": 5, "stimulus": 107, "rt": 8561}, "4": {"category": "Beta", "trial": 4, "stimulus": 1805, "rt": 5880}, "7": {"category": "Beta", "trial": 7, "stimulus": 2352, "rt": 10518}, "6": {"category": "Beta", "trial": 6, "stimulus": 654, "rt": 6412}}, "generalization": {"56": {"stimulus": 2062, "trial": 56, "rt": 1840, "response": "Beta"}, "77": {"stimulus": 2374, "trial": 77, "rt": 718, "response": "Alpha"}, "54": {"stimulus": 968, "trial": 54, "rt": 1365, "response": "Beta"}, "42": {"stimulus": 343, "trial": 42, "rt": 1049, "response": "Alpha"}, "48": {"stimulus": 1155, "trial": 48, "rt": 1465, "response": "Beta"}, "43": {"stimulus": 1905, "trial": 43, "rt": 1062, "response": "Beta"}, "60": {"stimulus": 1593, "trial": 60, "rt": 900, "response": "Alpha"}, "61": {"stimulus": 874, "trial": 61, "rt": 983, "response": "Alpha"}, "62": {"stimulus": 1437, "trial": 62, "rt": 671, "response": "Alpha"}, "63": {"stimulus": 1374, "trial": 63, "rt": 582, "response": "Alpha"}, "64": {"stimulus": 2312, "trial": 64, "rt": 1126, "response": "Beta"}, "49": {"stimulus": 1655, "trial": 49, "rt": 619, "response": "Beta"}, "66": {"stimulus": 1124, "trial": 66, "rt": 705, "response": "Alpha"}, "67": {"stimulus": 1280, "trial": 67, "rt": 698, "response": "Alpha"}, "68": {"stimulus": 1249, "trial": 68, "rt": 666, "response": "Alpha"}, "69": {"stimulus": 1312, "trial": 69, "rt": 1240, "response": "Beta"}, "80": {"stimulus": 155, "trial": 80, "rt": 999, "response": "Beta"}, "52": {"stimulus": 1218, "trial": 52, "rt": 988, "response": "Alpha"}, "53": {"stimulus": 249, "trial": 53, "rt": 1337, "response": "Alpha"}, "24": {"stimulus": 1530, "trial": 24, "rt": 1130, "response": "Alpha"}, "25": {"stimulus": 1468, "trial": 25, "rt": 1870, "response": "Beta"}, "26": {"stimulus": 93, "trial": 26, "rt": 1122, "response": "Alpha"}, "27": {"stimulus": 812, "trial": 27, "rt": 1005, "response": "Beta"}, "20": {"stimulus": 1999, "trial": 20, "rt": 941, "response": "Alpha"}, "21": {"stimulus": 1562, "trial": 21, "rt": 868, "response": "Beta"}, "22": {"stimulus": 437, "trial": 22, "rt": 2622, "response": "Alpha"}, "23": {"stimulus": 124, "trial": 23, "rt": 1485, "response": "Alpha"}, "46": {"stimulus": 937, "trial": 46, "rt": 869, "response": "Alpha"}, "47": {"stimulus": 1843, "trial": 47, "rt": 2720, "response": "Alpha"}, "44": {"stimulus": 218, "trial": 44, "rt": 926, "response": "Beta"}, "45": {"stimulus": 1187, "trial": 45, "rt": 1335, "response": "Alpha"}, "28": {"stimulus": 562, "trial": 28, "rt": 2977, "response": "Beta"}, "29": {"stimulus": 374, "trial": 29, "rt": 1682, "response": "Alpha"}, "40": {"stimulus": 1343, "trial": 40, "rt": 975, "response": "Alpha"}, "41": {"stimulus": 1874, "trial": 41, "rt": 789, "response": "Alpha"}, "1": {"stimulus": 2468, "trial": 1, "rt": 1016, "response": "Beta"}, "0": {"stimulus": 843, "trial": 0, "rt": 1422, "response": "Alpha"}, "3": {"stimulus": 655, "trial": 3, "rt": 1004, "response": "Alpha"}, "2": {"stimulus": 749, "trial": 2, "rt": 951, "response": "Alpha"}, "5": {"stimulus": 2343, "trial": 5, "rt": 2058, "response": "Alpha"}, "4": {"stimulus": 2499, "trial": 4, "rt": 5000, "response": "Alpha"}, "7": {"stimulus": 280, "trial": 7, "rt": 2042, "response": "Alpha"}, "6": {"stimulus": 1780, "trial": 6, "rt": 1009, "response": "Alpha"}, "9": {"stimulus": 2187, "trial": 9, "rt": 1078, "response": "Alpha"}, "8": {"stimulus": 468, "trial": 8, "rt": 1021, "response": "Beta"}, "78": {"stimulus": 2249, "trial": 78, "rt": 1127, "response": "Alpha"}, "51": {"stimulus": 2124, "trial": 51, "rt": 1235, "response": "Alpha"}, "39": {"stimulus": 1405, "trial": 39, "rt": 1064, "response": "Beta"}, "65": {"stimulus": 1749, "trial": 65, "rt": 722, "response": "Alpha"}, "76": {"stimulus": 30, "trial": 76, "rt": 607, "response": "Alpha"}, "75": {"stimulus": 780, "trial": 75, "rt": 1129, "response": "Alpha"}, "38": {"stimulus": 1687, "trial": 38, "rt": 614, "response": "Alpha"}, "73": {"stimulus": 2437, "trial": 73, "rt": 1026, "response": "Alpha"}, "72": {"stimulus": 62, "trial": 72, "rt": 802, "response": "Beta"}, "71": {"stimulus": 2405, "trial": 71, "rt": 946, "response": "Beta"}, "70": {"stimulus": 0, "trial": 70, "rt": 983, "response": "Beta"}, "59": {"stimulus": 1062, "trial": 59, "rt": 1453, "response": "Beta"}, "79": {"stimulus": 624, "trial": 79, "rt": 752, "response": "Alpha"}, "58": {"stimulus": 1030, "trial": 58, "rt": 1223, "response": "Alpha"}, "11": {"stimulus": 187, "trial": 11, "rt": 1333, "response": "Alpha"}, "10": {"stimulus": 499, "trial": 10, "rt": 1380, "response": "Alpha"}, "13": {"stimulus": 2030, "trial": 13, "rt": 2476, "response": "Alpha"}, "12": {"stimulus": 1968, "trial": 12, "rt": 936, "response": "Beta"}, "15": {"stimulus": 2155, "trial": 15, "rt": 1238, "response": "Beta"}, "14": {"stimulus": 2093, "trial": 14, "rt": 879, "response": "Alpha"}, "17": {"stimulus": 718, "trial": 17, "rt": 1345, "response": "Beta"}, "16": {"stimulus": 1624, "trial": 16, "rt": 1072, "response": "Alpha"}, "19": {"stimulus": 687, "trial": 19, "rt": 1016, "response": "Alpha"}, "18": {"stimulus": 999, "trial": 18, "rt": 933, "response": "Alpha"}, "31": {"stimulus": 2218, "trial": 31, "rt": 1620, "response": "Beta"}, "30": {"stimulus": 1499, "trial": 30, "rt": 1046, "response": "Alpha"}, "37": {"stimulus": 530, "trial": 37, "rt": 834, "response": "Alpha"}, "36": {"stimulus": 1093, "trial": 36, "rt": 803, "response": "Alpha"}, "35": {"stimulus": 593, "trial": 35, "rt": 977, "response": "Alpha"}, "34": {"stimulus": 2280, "trial": 34, "rt": 1140, "response": "Alpha"}, "33": {"stimulus": 1718, "trial": 33, "rt": 1495, "response": "Beta"}, "55": {"stimulus": 405, "trial": 55, "rt": 921, "response": "Beta"}, "74": {"stimulus": 1812, "trial": 74, "rt": 1525, "response": "Beta"}, "32": {"stimulus": 1937, "trial": 32, "rt": 857, "response": "Alpha"}, "57": {"stimulus": 905, "trial": 57, "rt": 930, "response": "Beta"}, "50": {"stimulus": 312, "trial": 50, "rt": 722, "response": "Beta"}}, "experiment": {"Paradigm": "TACL", "Stimuli": "Size-Color Squares", "Experiment": "Generating-Multiple-Categories"}, "submit": {"timeTotal": 403042, "age": "33", "comments": "none", "sex": "male"}}