{"info": {"finish": 1548078751161, "participant": 176, "exposed": true, "lab": false, "start": 1548078330291, "counterbalance": 5, "gentype": 1, "condition": "Row", "browser": {"platform": "MacIntel", "userAgent": "Mozilla/5.0 (Macintosh; Intel Mac OS X 10_14_2) AppleWebKit/537.36 (KHTML, like Gecko) Chrome/71.0.3578.98 Safari/537.36"}}, "observation": {"11": {"stimulus": 421, "trial": 11, "rt": 2070}, "10": {"stimulus": 582, "trial": 10, "rt": 2126}, "1": {"stimulus": 612, "trial": 1, "rt": 3004}, "0": {"stimulus": 421, "trial": 0, "rt": 3655}, "3": {"stimulus": 582, "trial": 3, "rt": 3131}, "2": {"stimulus": 493, "trial": 2, "rt": 2563}, "5": {"stimulus": 612, "trial": 5, "rt": 3554}, "4": {"stimulus": 582, "trial": 4, "rt": 3879}, "7": {"stimulus": 493, "trial": 7, "rt": 2822}, "6": {"stimulus": 421, "trial": 6, "rt": 2250}, "9": {"stimulus": 612, "trial": 9, "rt": 1968}, "8": {"stimulus": 493, "trial": 8, "rt": 3669}}, "generation": {"1": {"category": "Beta", "trial": 1, "stimulus": 0, "rt": 40400}, "0": {"category": "Beta", "trial": 0, "stimulus": 49, "rt": 10766}, "3": {"category": "Beta", "trial": 3, "stimulus": 16, "rt": 14446}, "2": {"category": "Beta", "trial": 2, "stimulus": 8, "rt": 8617}, "5": {"category": "Beta", "trial": 5, "stimulus": 27, "rt": 5581}, "4": {"category": "Beta", "trial": 4, "stimulus": 23, "rt": 7368}, "7": {"category": "Beta", "trial": 7, "stimulus": 39, "rt": 4332}, "6": {"category": "Beta", "trial": 6, "stimulus": 31, "rt": 6380}}, "generalization": {"56": {"stimulus": 1280, "trial": 56, "rt": 1777, "response": "Beta"}, "77": {"stimulus": 1343, "trial": 77, "rt": 2554, "response": "Alpha"}, "54": {"stimulus": 2124, "trial": 54, "rt": 1168, "response": "Alpha"}, "42": {"stimulus": 2218, "trial": 42, "rt": 774, "response": "Alpha"}, "48": {"stimulus": 1124, "trial": 48, "rt": 1542, "response": "Beta"}, "43": {"stimulus": 2374, "trial": 43, "rt": 686, "response": "Alpha"}, "60": {"stimulus": 1593, "trial": 60, "rt": 953, "response": "Alpha"}, "61": {"stimulus": 218, "trial": 61, "rt": 843, "response": "Beta"}, "62": {"stimulus": 1968, "trial": 62, "rt": 878, "response": "Alpha"}, "63": {"stimulus": 780, "trial": 63, "rt": 911, "response": "Beta"}, "64": {"stimulus": 1905, "trial": 64, "rt": 888, "response": "Alpha"}, "49": {"stimulus": 937, "trial": 49, "rt": 1115, "response": "Beta"}, "66": {"stimulus": 30, "trial": 66, "rt": 675, "response": "Beta"}, "67": {"stimulus": 1687, "trial": 67, "rt": 876, "response": "Alpha"}, "68": {"stimulus": 374, "trial": 68, "rt": 718, "response": "Beta"}, "69": {"stimulus": 718, "trial": 69, "rt": 1597, "response": "Beta"}, "80": {"stimulus": 2249, "trial": 80, "rt": 676, "response": "Alpha"}, "52": {"stimulus": 2437, "trial": 52, "rt": 654, "response": "Alpha"}, "53": {"stimulus": 843, "trial": 53, "rt": 753, "response": "Beta"}, "24": {"stimulus": 2062, "trial": 24, "rt": 1138, "response": "Alpha"}, "25": {"stimulus": 2499, "trial": 25, "rt": 900, "response": "Alpha"}, "26": {"stimulus": 249, "trial": 26, "rt": 922, "response": "Beta"}, "27": {"stimulus": 687, "trial": 27, "rt": 1236, "response": "Beta"}, "20": {"stimulus": 1468, "trial": 20, "rt": 888, "response": "Alpha"}, "21": {"stimulus": 1218, "trial": 21, "rt": 1159, "response": "Alpha"}, "22": {"stimulus": 1812, "trial": 22, "rt": 990, "response": "Alpha"}, "23": {"stimulus": 62, "trial": 23, "rt": 720, "response": "Beta"}, "46": {"stimulus": 530, "trial": 46, "rt": 833, "response": "Beta"}, "47": {"stimulus": 312, "trial": 47, "rt": 754, "response": "Beta"}, "44": {"stimulus": 1249, "trial": 44, "rt": 6760, "response": "Beta"}, "45": {"stimulus": 499, "trial": 45, "rt": 788, "response": "Beta"}, "28": {"stimulus": 1093, "trial": 28, "rt": 1112, "response": "Beta"}, "29": {"stimulus": 562, "trial": 29, "rt": 1158, "response": "Beta"}, "40": {"stimulus": 0, "trial": 40, "rt": 921, "response": "Beta"}, "41": {"stimulus": 1843, "trial": 41, "rt": 1058, "response": "Alpha"}, "1": {"stimulus": 812, "trial": 1, "rt": 1294, "response": "Beta"}, "0": {"stimulus": 2312, "trial": 0, "rt": 1417, "response": "Alpha"}, "3": {"stimulus": 1780, "trial": 3, "rt": 1181, "response": "Alpha"}, "2": {"stimulus": 624, "trial": 2, "rt": 1721, "response": "Beta"}, "5": {"stimulus": 1312, "trial": 5, "rt": 878, "response": "Alpha"}, "4": {"stimulus": 1718, "trial": 4, "rt": 1203, "response": "Alpha"}, "7": {"stimulus": 2093, "trial": 7, "rt": 698, "response": "Alpha"}, "6": {"stimulus": 1374, "trial": 6, "rt": 943, "response": "Alpha"}, "9": {"stimulus": 1187, "trial": 9, "rt": 1080, "response": "Beta"}, "8": {"stimulus": 343, "trial": 8, "rt": 1170, "response": "Beta"}, "78": {"stimulus": 1062, "trial": 78, "rt": 3004, "response": "Beta"}, "51": {"stimulus": 2155, "trial": 51, "rt": 899, "response": "Alpha"}, "39": {"stimulus": 999, "trial": 39, "rt": 1045, "response": "Beta"}, "65": {"stimulus": 1624, "trial": 65, "rt": 910, "response": "Alpha"}, "76": {"stimulus": 1999, "trial": 76, "rt": 1011, "response": "Alpha"}, "75": {"stimulus": 124, "trial": 75, "rt": 640, "response": "Beta"}, "38": {"stimulus": 1437, "trial": 38, "rt": 774, "response": "Alpha"}, "73": {"stimulus": 187, "trial": 73, "rt": 841, "response": "Beta"}, "72": {"stimulus": 468, "trial": 72, "rt": 620, "response": "Beta"}, "71": {"stimulus": 2187, "trial": 71, "rt": 818, "response": "Alpha"}, "70": {"stimulus": 437, "trial": 70, "rt": 853, "response": "Beta"}, "59": {"stimulus": 93, "trial": 59, "rt": 722, "response": "Beta"}, "79": {"stimulus": 1530, "trial": 79, "rt": 4194, "response": "Alpha"}, "58": {"stimulus": 655, "trial": 58, "rt": 639, "response": "Beta"}, "11": {"stimulus": 1874, "trial": 11, "rt": 942, "response": "Alpha"}, "10": {"stimulus": 1655, "trial": 10, "rt": 1564, "response": "Alpha"}, "13": {"stimulus": 1030, "trial": 13, "rt": 877, "response": "Beta"}, "12": {"stimulus": 1405, "trial": 12, "rt": 1328, "response": "Alpha"}, "15": {"stimulus": 155, "trial": 15, "rt": 1260, "response": "Beta"}, "14": {"stimulus": 2280, "trial": 14, "rt": 854, "response": "Alpha"}, "17": {"stimulus": 874, "trial": 17, "rt": 1023, "response": "Beta"}, "16": {"stimulus": 2343, "trial": 16, "rt": 957, "response": "Alpha"}, "19": {"stimulus": 749, "trial": 19, "rt": 956, "response": "Beta"}, "18": {"stimulus": 1562, "trial": 18, "rt": 1215, "response": "Alpha"}, "31": {"stimulus": 593, "trial": 31, "rt": 755, "response": "Beta"}, "30": {"stimulus": 1937, "trial": 30, "rt": 807, "response": "Alpha"}, "37": {"stimulus": 968, "trial": 37, "rt": 865, "response": "Beta"}, "36": {"stimulus": 1155, "trial": 36, "rt": 911, "response": "Beta"}, "35": {"stimulus": 905, "trial": 35, "rt": 833, "response": "Beta"}, "34": {"stimulus": 2468, "trial": 34, "rt": 955, "response": "Alpha"}, "33": {"stimulus": 1499, "trial": 33, "rt": 1689, "response": "Alpha"}, "55": {"stimulus": 1749, "trial": 55, "rt": 1843, "response": "Alpha"}, "74": {"stimulus": 280, "trial": 74, "rt": 618, "response": "Beta"}, "32": {"stimulus": 2030, "trial": 32, "rt": 776, "response": "Alpha"}, "57": {"stimulus": 405, "trial": 57, "rt": 810, "response": "Beta"}, "50": {"stimulus": 2405, "trial": 50, "rt": 697, "response": "Alpha"}}, "experiment": {"Paradigm": "TACL", "Stimuli": "Size-Color Squares", "Experiment": "Generating-Multiple-Categories"}, "submit": {"timeTotal": 421174, "age": "70", "comments": "Instructions were too sparse.  It would be helpful to provide a \"practise\" round for choosing Beta.", "sex": "female"}}