{"info": {"finish": 1548078745964, "participant": 177, "exposed": true, "lab": false, "start": 1548078395921, "counterbalance": 7, "gentype": 1, "condition": "Row", "browser": {"platform": "Win32", "userAgent": "Mozilla/5.0 (Windows NT 6.1; Win64; x64) AppleWebKit/537.36 (KHTML, like Gecko) Chrome/71.0.3578.98 Safari/537.36"}}, "observation": {"11": {"stimulus": 582, "trial": 11, "rt": 2274}, "10": {"stimulus": 612, "trial": 10, "rt": 2461}, "1": {"stimulus": 582, "trial": 1, "rt": 2281}, "0": {"stimulus": 493, "trial": 0, "rt": 4432}, "3": {"stimulus": 612, "trial": 3, "rt": 2295}, "2": {"stimulus": 421, "trial": 2, "rt": 2495}, "5": {"stimulus": 421, "trial": 5, "rt": 2270}, "4": {"stimulus": 582, "trial": 4, "rt": 2371}, "7": {"stimulus": 612, "trial": 7, "rt": 2332}, "6": {"stimulus": 493, "trial": 6, "rt": 2366}, "9": {"stimulus": 493, "trial": 9, "rt": 2422}, "8": {"stimulus": 421, "trial": 8, "rt": 2510}}, "generation": {"1": {"category": "Beta", "trial": 1, "stimulus": 2450, "rt": 11222}, "0": {"category": "Beta", "trial": 0, "stimulus": 2494, "rt": 18731}, "3": {"category": "Beta", "trial": 3, "stimulus": 2472, "rt": 7056}, "2": {"category": "Beta", "trial": 2, "stimulus": 2454, "rt": 8460}, "5": {"category": "Beta", "trial": 5, "stimulus": 2499, "rt": 7538}, "4": {"category": "Beta", "trial": 4, "stimulus": 2483, "rt": 7725}, "7": {"category": "Beta", "trial": 7, "stimulus": 2489, "rt": 6667}, "6": {"category": "Beta", "trial": 6, "stimulus": 2490, "rt": 8296}}, "generalization": {"56": {"stimulus": 405, "trial": 56, "rt": 1547, "response": "Alpha"}, "77": {"stimulus": 1874, "trial": 77, "rt": 2092, "response": "Beta"}, "54": {"stimulus": 2280, "trial": 54, "rt": 527, "response": "Beta"}, "42": {"stimulus": 155, "trial": 42, "rt": 1488, "response": "Alpha"}, "48": {"stimulus": 1374, "trial": 48, "rt": 1704, "response": "Alpha"}, "43": {"stimulus": 905, "trial": 43, "rt": 756, "response": "Alpha"}, "60": {"stimulus": 1062, "trial": 60, "rt": 723, "response": "Alpha"}, "61": {"stimulus": 843, "trial": 61, "rt": 558, "response": "Alpha"}, "62": {"stimulus": 2499, "trial": 62, "rt": 425, "response": "Alpha"}, "63": {"stimulus": 1468, "trial": 63, "rt": 2719, "response": "Beta"}, "64": {"stimulus": 562, "trial": 64, "rt": 1361, "response": "Alpha"}, "49": {"stimulus": 780, "trial": 49, "rt": 719, "response": "Alpha"}, "66": {"stimulus": 1812, "trial": 66, "rt": 523, "response": "Beta"}, "67": {"stimulus": 1624, "trial": 67, "rt": 487, "response": "Beta"}, "68": {"stimulus": 2468, "trial": 68, "rt": 500, "response": "Beta"}, "69": {"stimulus": 1530, "trial": 69, "rt": 812, "response": "Beta"}, "80": {"stimulus": 999, "trial": 80, "rt": 1601, "response": "Alpha"}, "52": {"stimulus": 655, "trial": 52, "rt": 682, "response": "Alpha"}, "53": {"stimulus": 1687, "trial": 53, "rt": 1886, "response": "Beta"}, "24": {"stimulus": 624, "trial": 24, "rt": 1424, "response": "Alpha"}, "25": {"stimulus": 218, "trial": 25, "rt": 671, "response": "Alpha"}, "26": {"stimulus": 749, "trial": 26, "rt": 651, "response": "Alpha"}, "27": {"stimulus": 187, "trial": 27, "rt": 711, "response": "Alpha"}, "20": {"stimulus": 343, "trial": 20, "rt": 1446, "response": "Alpha"}, "21": {"stimulus": 2062, "trial": 21, "rt": 1250, "response": "Beta"}, "22": {"stimulus": 2437, "trial": 22, "rt": 646, "response": "Beta"}, "23": {"stimulus": 2093, "trial": 23, "rt": 788, "response": "Beta"}, "46": {"stimulus": 1030, "trial": 46, "rt": 749, "response": "Alpha"}, "47": {"stimulus": 93, "trial": 47, "rt": 673, "response": "Alpha"}, "44": {"stimulus": 1562, "trial": 44, "rt": 2096, "response": "Beta"}, "45": {"stimulus": 1249, "trial": 45, "rt": 2764, "response": "Alpha"}, "28": {"stimulus": 687, "trial": 28, "rt": 796, "response": "Alpha"}, "29": {"stimulus": 2030, "trial": 29, "rt": 1305, "response": "Beta"}, "40": {"stimulus": 1780, "trial": 40, "rt": 1501, "response": "Beta"}, "41": {"stimulus": 1718, "trial": 41, "rt": 570, "response": "Beta"}, "1": {"stimulus": 1187, "trial": 1, "rt": 1024, "response": "Alpha"}, "0": {"stimulus": 1093, "trial": 0, "rt": 3306, "response": "Alpha"}, "3": {"stimulus": 2155, "trial": 3, "rt": 2144, "response": "Alpha"}, "2": {"stimulus": 1280, "trial": 2, "rt": 1100, "response": "Alpha"}, "5": {"stimulus": 968, "trial": 5, "rt": 749, "response": "Alpha"}, "4": {"stimulus": 1655, "trial": 4, "rt": 915, "response": "Alpha"}, "7": {"stimulus": 1312, "trial": 7, "rt": 2212, "response": "Alpha"}, "6": {"stimulus": 374, "trial": 6, "rt": 1008, "response": "Alpha"}, "9": {"stimulus": 2374, "trial": 9, "rt": 1565, "response": "Beta"}, "8": {"stimulus": 30, "trial": 8, "rt": 862, "response": "Alpha"}, "78": {"stimulus": 62, "trial": 78, "rt": 1557, "response": "Alpha"}, "51": {"stimulus": 1155, "trial": 51, "rt": 1947, "response": "Alpha"}, "39": {"stimulus": 1124, "trial": 39, "rt": 545, "response": "Alpha"}, "65": {"stimulus": 2343, "trial": 65, "rt": 1358, "response": "Beta"}, "76": {"stimulus": 530, "trial": 76, "rt": 1631, "response": "Alpha"}, "75": {"stimulus": 468, "trial": 75, "rt": 1516, "response": "Alpha"}, "38": {"stimulus": 437, "trial": 38, "rt": 1265, "response": "Alpha"}, "73": {"stimulus": 874, "trial": 73, "rt": 1545, "response": "Alpha"}, "72": {"stimulus": 1437, "trial": 72, "rt": 3724, "response": "Beta"}, "71": {"stimulus": 2312, "trial": 71, "rt": 581, "response": "Alpha"}, "70": {"stimulus": 718, "trial": 70, "rt": 1408, "response": "Alpha"}, "59": {"stimulus": 937, "trial": 59, "rt": 4707, "response": "Alpha"}, "79": {"stimulus": 1218, "trial": 79, "rt": 1319, "response": "Beta"}, "58": {"stimulus": 1499, "trial": 58, "rt": 595, "response": "Beta"}, "11": {"stimulus": 312, "trial": 11, "rt": 857, "response": "Alpha"}, "10": {"stimulus": 280, "trial": 10, "rt": 1363, "response": "Alpha"}, "13": {"stimulus": 1343, "trial": 13, "rt": 1890, "response": "Alpha"}, "12": {"stimulus": 1593, "trial": 12, "rt": 1427, "response": "Beta"}, "15": {"stimulus": 124, "trial": 15, "rt": 1583, "response": "Alpha"}, "14": {"stimulus": 1937, "trial": 14, "rt": 1535, "response": "Beta"}, "17": {"stimulus": 593, "trial": 17, "rt": 1585, "response": "Alpha"}, "16": {"stimulus": 1905, "trial": 16, "rt": 1283, "response": "Beta"}, "19": {"stimulus": 2187, "trial": 19, "rt": 672, "response": "Beta"}, "18": {"stimulus": 1749, "trial": 18, "rt": 1337, "response": "Beta"}, "31": {"stimulus": 812, "trial": 31, "rt": 807, "response": "Alpha"}, "30": {"stimulus": 499, "trial": 30, "rt": 1272, "response": "Alpha"}, "37": {"stimulus": 2405, "trial": 37, "rt": 564, "response": "Beta"}, "36": {"stimulus": 1405, "trial": 36, "rt": 638, "response": "Beta"}, "35": {"stimulus": 2218, "trial": 35, "rt": 1222, "response": "Beta"}, "34": {"stimulus": 0, "trial": 34, "rt": 1512, "response": "Alpha"}, "33": {"stimulus": 2124, "trial": 33, "rt": 600, "response": "Beta"}, "55": {"stimulus": 1968, "trial": 55, "rt": 521, "response": "Beta"}, "74": {"stimulus": 1999, "trial": 74, "rt": 1245, "response": "Beta"}, "32": {"stimulus": 2249, "trial": 32, "rt": 1223, "response": "Beta"}, "57": {"stimulus": 1843, "trial": 57, "rt": 1509, "response": "Beta"}, "50": {"stimulus": 249, "trial": 50, "rt": 634, "response": "Alpha"}}, "experiment": {"Paradigm": "TACL", "Stimuli": "Size-Color Squares", "Experiment": "Generating-Multiple-Categories"}, "submit": {"timeTotal": 350352, "age": "57", "comments": "hard to judge the sizes and I accidentally hit alpha when i meant to hit beta at least once", "sex": "female"}}