{"info": {"finish": 1548078906850, "participant": 178, "exposed": true, "lab": false, "start": 1548078441934, "counterbalance": 0, "gentype": 2, "condition": "Row", "browser": {"platform": "Linux x86_64", "userAgent": "Mozilla/5.0 (X11; CrOS x86_64 10895.78.0) AppleWebKit/537.36 (KHTML, like Gecko) Chrome/69.0.3497.120 Safari/537.36"}}, "observation": {"11": {"stimulus": 582, "trial": 11, "rt": 2367}, "10": {"stimulus": 493, "trial": 10, "rt": 1864}, "1": {"stimulus": 612, "trial": 1, "rt": 2626}, "0": {"stimulus": 493, "trial": 0, "rt": 4701}, "3": {"stimulus": 582, "trial": 3, "rt": 2480}, "2": {"stimulus": 421, "trial": 2, "rt": 3261}, "5": {"stimulus": 421, "trial": 5, "rt": 2982}, "4": {"stimulus": 582, "trial": 4, "rt": 2520}, "7": {"stimulus": 493, "trial": 7, "rt": 1969}, "6": {"stimulus": 612, "trial": 6, "rt": 2063}, "9": {"stimulus": 612, "trial": 9, "rt": 1964}, "8": {"stimulus": 421, "trial": 8, "rt": 1840}}, "generation": {"1": {"category": "Beta", "trial": 1, "stimulus": 2461, "rt": 7652}, "0": {"category": "Beta", "trial": 0, "stimulus": 2450, "rt": 17851}, "3": {"category": "Beta", "trial": 3, "stimulus": 2490, "rt": 4704}, "2": {"category": "Beta", "trial": 2, "stimulus": 2476, "rt": 8169}, "5": {"category": "Gamma", "trial": 5, "stimulus": 1237, "rt": 14783}, "4": {"category": "Gamma", "trial": 4, "stimulus": 1249, "rt": 19443}, "7": {"category": "Gamma", "trial": 7, "stimulus": 1100, "rt": 8874}, "6": {"category": "Gamma", "trial": 6, "stimulus": 1116, "rt": 12257}}, "generalization": {"56": {"stimulus": 687, "trial": 56, "rt": 2001, "response": "Alpha"}, "77": {"stimulus": 2374, "trial": 77, "rt": 1346, "response": "Gamma"}, "54": {"stimulus": 2062, "trial": 54, "rt": 871, "response": "Gamma"}, "42": {"stimulus": 780, "trial": 42, "rt": 2919, "response": "Beta"}, "48": {"stimulus": 2343, "trial": 48, "rt": 1024, "response": "Gamma"}, "43": {"stimulus": 499, "trial": 43, "rt": 1839, "response": "Alpha"}, "60": {"stimulus": 874, "trial": 60, "rt": 2570, "response": "Beta"}, "61": {"stimulus": 124, "trial": 61, "rt": 1411, "response": "Alpha"}, "62": {"stimulus": 1718, "trial": 62, "rt": 2715, "response": "Gamma"}, "63": {"stimulus": 1062, "trial": 63, "rt": 1471, "response": "Beta"}, "64": {"stimulus": 1593, "trial": 64, "rt": 2875, "response": "Gamma"}, "49": {"stimulus": 2280, "trial": 49, "rt": 1368, "response": "Gamma"}, "66": {"stimulus": 1155, "trial": 66, "rt": 1445, "response": "Beta"}, "67": {"stimulus": 843, "trial": 67, "rt": 2631, "response": "Alpha"}, "68": {"stimulus": 905, "trial": 68, "rt": 5174, "response": "Beta"}, "69": {"stimulus": 999, "trial": 69, "rt": 884, "response": "Beta"}, "80": {"stimulus": 2155, "trial": 80, "rt": 3445, "response": "Beta"}, "52": {"stimulus": 1687, "trial": 52, "rt": 759, "response": "Beta"}, "53": {"stimulus": 2312, "trial": 53, "rt": 1206, "response": "Gamma"}, "24": {"stimulus": 1968, "trial": 24, "rt": 1194, "response": "Gamma"}, "25": {"stimulus": 1843, "trial": 25, "rt": 837, "response": "Gamma"}, "26": {"stimulus": 187, "trial": 26, "rt": 1923, "response": "Alpha"}, "27": {"stimulus": 1468, "trial": 27, "rt": 4372, "response": "Gamma"}, "20": {"stimulus": 562, "trial": 20, "rt": 2254, "response": "Beta"}, "21": {"stimulus": 155, "trial": 21, "rt": 1213, "response": "Alpha"}, "22": {"stimulus": 937, "trial": 22, "rt": 1450, "response": "Beta"}, "23": {"stimulus": 218, "trial": 23, "rt": 1216, "response": "Alpha"}, "46": {"stimulus": 62, "trial": 46, "rt": 1338, "response": "Alpha"}, "47": {"stimulus": 2249, "trial": 47, "rt": 1555, "response": "Gamma"}, "44": {"stimulus": 1812, "trial": 44, "rt": 1379, "response": "Gamma"}, "45": {"stimulus": 1030, "trial": 45, "rt": 1231, "response": "Beta"}, "28": {"stimulus": 1655, "trial": 28, "rt": 781, "response": "Gamma"}, "29": {"stimulus": 1093, "trial": 29, "rt": 2678, "response": "Beta"}, "40": {"stimulus": 343, "trial": 40, "rt": 1972, "response": "Alpha"}, "41": {"stimulus": 624, "trial": 41, "rt": 2182, "response": "Alpha"}, "1": {"stimulus": 437, "trial": 1, "rt": 5224, "response": "Beta"}, "0": {"stimulus": 1249, "trial": 0, "rt": 4779, "response": "Gamma"}, "3": {"stimulus": 1530, "trial": 3, "rt": 1148, "response": "Beta"}, "2": {"stimulus": 1905, "trial": 2, "rt": 2169, "response": "Gamma"}, "5": {"stimulus": 93, "trial": 5, "rt": 7810, "response": "Beta"}, "4": {"stimulus": 718, "trial": 4, "rt": 3146, "response": "Alpha"}, "7": {"stimulus": 530, "trial": 7, "rt": 1334, "response": "Alpha"}, "6": {"stimulus": 968, "trial": 6, "rt": 1286, "response": "Gamma"}, "9": {"stimulus": 1562, "trial": 9, "rt": 1541, "response": "Gamma"}, "8": {"stimulus": 1312, "trial": 8, "rt": 1439, "response": "Gamma"}, "78": {"stimulus": 280, "trial": 78, "rt": 1674, "response": "Alpha"}, "51": {"stimulus": 1343, "trial": 51, "rt": 826, "response": "Beta"}, "39": {"stimulus": 2124, "trial": 39, "rt": 892, "response": "Gamma"}, "65": {"stimulus": 0, "trial": 65, "rt": 1303, "response": "Alpha"}, "76": {"stimulus": 1749, "trial": 76, "rt": 2205, "response": "Beta"}, "75": {"stimulus": 2093, "trial": 75, "rt": 1464, "response": "Beta"}, "38": {"stimulus": 2030, "trial": 38, "rt": 2479, "response": "Gamma"}, "73": {"stimulus": 1999, "trial": 73, "rt": 1483, "response": "Beta"}, "72": {"stimulus": 1218, "trial": 72, "rt": 1129, "response": "Beta"}, "71": {"stimulus": 2405, "trial": 71, "rt": 1795, "response": "Gamma"}, "70": {"stimulus": 2437, "trial": 70, "rt": 1306, "response": "Gamma"}, "59": {"stimulus": 1874, "trial": 59, "rt": 1326, "response": "Beta"}, "79": {"stimulus": 1499, "trial": 79, "rt": 5218, "response": "Beta"}, "58": {"stimulus": 2218, "trial": 58, "rt": 648, "response": "Gamma"}, "11": {"stimulus": 1937, "trial": 11, "rt": 1287, "response": "Gamma"}, "10": {"stimulus": 374, "trial": 10, "rt": 1767, "response": "Beta"}, "13": {"stimulus": 1124, "trial": 13, "rt": 4656, "response": "Gamma"}, "12": {"stimulus": 30, "trial": 12, "rt": 4198, "response": "Alpha"}, "15": {"stimulus": 2187, "trial": 15, "rt": 5234, "response": "Gamma"}, "14": {"stimulus": 655, "trial": 14, "rt": 1842, "response": "Beta"}, "17": {"stimulus": 812, "trial": 17, "rt": 1496, "response": "Beta"}, "16": {"stimulus": 468, "trial": 16, "rt": 2729, "response": "Alpha"}, "19": {"stimulus": 405, "trial": 19, "rt": 1451, "response": "Alpha"}, "18": {"stimulus": 749, "trial": 18, "rt": 1515, "response": "Beta"}, "31": {"stimulus": 1280, "trial": 31, "rt": 1355, "response": "Beta"}, "30": {"stimulus": 2499, "trial": 30, "rt": 1307, "response": "Gamma"}, "37": {"stimulus": 1187, "trial": 37, "rt": 1152, "response": "Gamma"}, "36": {"stimulus": 1624, "trial": 36, "rt": 745, "response": "Gamma"}, "35": {"stimulus": 1437, "trial": 35, "rt": 2664, "response": "Gamma"}, "34": {"stimulus": 593, "trial": 34, "rt": 1782, "response": "Alpha"}, "33": {"stimulus": 1374, "trial": 33, "rt": 2606, "response": "Beta"}, "55": {"stimulus": 312, "trial": 55, "rt": 1360, "response": "Alpha"}, "74": {"stimulus": 1780, "trial": 74, "rt": 1484, "response": "Beta"}, "32": {"stimulus": 249, "trial": 32, "rt": 1196, "response": "Alpha"}, "57": {"stimulus": 2468, "trial": 57, "rt": 2282, "response": "Gamma"}, "50": {"stimulus": 1405, "trial": 50, "rt": 1213, "response": "Beta"}}, "experiment": {"Paradigm": "TACL", "Stimuli": "Size-Color Squares", "Experiment": "Generating-Multiple-Categories"}, "submit": {"timeTotal": 465159, "age": "61", "comments": "This was harder then what you would think.  Thank you", "sex": "female"}}