{"info": {"finish": 1548043953053, "participant": 18, "exposed": true, "lab": false, "start": 1548043033932, "counterbalance": 1, "gentype": 1, "condition": "Row", "browser": {"platform": "Win32", "userAgent": "Mozilla/5.0 (Windows NT 6.1; Win64; x64) AppleWebKit/537.36 (KHTML, like Gecko) Chrome/71.0.3578.98 Safari/537.36"}}, "observation": {"11": {"stimulus": 612, "trial": 11, "rt": 1504}, "10": {"stimulus": 421, "trial": 10, "rt": 1816}, "1": {"stimulus": 612, "trial": 1, "rt": 1638}, "0": {"stimulus": 493, "trial": 0, "rt": 3294}, "3": {"stimulus": 421, "trial": 3, "rt": 2542}, "2": {"stimulus": 582, "trial": 2, "rt": 1681}, "5": {"stimulus": 582, "trial": 5, "rt": 29530}, "4": {"stimulus": 493, "trial": 4, "rt": 2514}, "7": {"stimulus": 421, "trial": 7, "rt": 1536}, "6": {"stimulus": 612, "trial": 6, "rt": 23248}, "9": {"stimulus": 582, "trial": 9, "rt": 1917}, "8": {"stimulus": 493, "trial": 8, "rt": 1521}}, "generation": {"1": {"category": "Beta", "trial": 1, "stimulus": 1116, "rt": 6381}, "0": {"category": "Beta", "trial": 0, "stimulus": 770, "rt": 14492}, "3": {"category": "Beta", "trial": 3, "stimulus": 380, "rt": 9426}, "2": {"category": "Beta", "trial": 2, "stimulus": 571, "rt": 5842}, "5": {"category": "Beta", "trial": 5, "stimulus": 535, "rt": 7003}, "4": {"category": "Beta", "trial": 4, "stimulus": 637, "rt": 57825}, "7": {"category": "Beta", "trial": 7, "stimulus": 566, "rt": 6349}, "6": {"category": "Beta", "trial": 6, "stimulus": 869, "rt": 6541}}, "generalization": {"56": {"stimulus": 312, "trial": 56, "rt": 639, "response": "Alpha"}, "77": {"stimulus": 2218, "trial": 77, "rt": 783, "response": "Beta"}, "54": {"stimulus": 562, "trial": 54, "rt": 946, "response": "Alpha"}, "42": {"stimulus": 0, "trial": 42, "rt": 1527, "response": "Alpha"}, "48": {"stimulus": 999, "trial": 48, "rt": 673, "response": "Alpha"}, "43": {"stimulus": 937, "trial": 43, "rt": 896, "response": "Alpha"}, "60": {"stimulus": 2312, "trial": 60, "rt": 1264, "response": "Beta"}, "61": {"stimulus": 1343, "trial": 61, "rt": 1799, "response": "Alpha"}, "62": {"stimulus": 1780, "trial": 62, "rt": 5416, "response": "Beta"}, "63": {"stimulus": 187, "trial": 63, "rt": 800, "response": "Alpha"}, "64": {"stimulus": 2062, "trial": 64, "rt": 654, "response": "Beta"}, "49": {"stimulus": 62, "trial": 49, "rt": 960, "response": "Alpha"}, "66": {"stimulus": 30, "trial": 66, "rt": 783, "response": "Alpha"}, "67": {"stimulus": 812, "trial": 67, "rt": 8408, "response": "Alpha"}, "68": {"stimulus": 905, "trial": 68, "rt": 575, "response": "Alpha"}, "69": {"stimulus": 1968, "trial": 69, "rt": 1128, "response": "Beta"}, "80": {"stimulus": 874, "trial": 80, "rt": 799, "response": "Alpha"}, "52": {"stimulus": 2437, "trial": 52, "rt": 782, "response": "Beta"}, "53": {"stimulus": 1812, "trial": 53, "rt": 966, "response": "Beta"}, "24": {"stimulus": 1655, "trial": 24, "rt": 639, "response": "Beta"}, "25": {"stimulus": 624, "trial": 25, "rt": 632, "response": "Alpha"}, "26": {"stimulus": 2030, "trial": 26, "rt": 663, "response": "Beta"}, "27": {"stimulus": 437, "trial": 27, "rt": 594, "response": "Alpha"}, "20": {"stimulus": 2280, "trial": 20, "rt": 559, "response": "Beta"}, "21": {"stimulus": 2468, "trial": 21, "rt": 551, "response": "Beta"}, "22": {"stimulus": 499, "trial": 22, "rt": 774, "response": "Alpha"}, "23": {"stimulus": 1562, "trial": 23, "rt": 648, "response": "Beta"}, "46": {"stimulus": 1624, "trial": 46, "rt": 831, "response": "Beta"}, "47": {"stimulus": 593, "trial": 47, "rt": 1183, "response": "Alpha"}, "44": {"stimulus": 1124, "trial": 44, "rt": 1587, "response": "Alpha"}, "45": {"stimulus": 1530, "trial": 45, "rt": 907, "response": "Beta"}, "28": {"stimulus": 280, "trial": 28, "rt": 936, "response": "Alpha"}, "29": {"stimulus": 2093, "trial": 29, "rt": 7759, "response": "Beta"}, "40": {"stimulus": 687, "trial": 40, "rt": 1272, "response": "Alpha"}, "41": {"stimulus": 718, "trial": 41, "rt": 1017, "response": "Alpha"}, "1": {"stimulus": 1843, "trial": 1, "rt": 3954, "response": "Beta"}, "0": {"stimulus": 1905, "trial": 0, "rt": 8262, "response": "Beta"}, "3": {"stimulus": 2124, "trial": 3, "rt": 730, "response": "Beta"}, "2": {"stimulus": 1468, "trial": 2, "rt": 737, "response": "Beta"}, "5": {"stimulus": 1593, "trial": 5, "rt": 13449, "response": "Alpha"}, "4": {"stimulus": 1187, "trial": 4, "rt": 1705, "response": "Alpha"}, "7": {"stimulus": 1937, "trial": 7, "rt": 952, "response": "Beta"}, "6": {"stimulus": 1405, "trial": 6, "rt": 1951, "response": "Beta"}, "9": {"stimulus": 1218, "trial": 9, "rt": 486, "response": "Alpha"}, "8": {"stimulus": 1374, "trial": 8, "rt": 1081, "response": "Alpha"}, "78": {"stimulus": 124, "trial": 78, "rt": 927, "response": "Alpha"}, "51": {"stimulus": 843, "trial": 51, "rt": 1183, "response": "Alpha"}, "39": {"stimulus": 2405, "trial": 39, "rt": 726, "response": "Beta"}, "65": {"stimulus": 1718, "trial": 65, "rt": 768, "response": "Beta"}, "76": {"stimulus": 1499, "trial": 76, "rt": 6823, "response": "Beta"}, "75": {"stimulus": 1999, "trial": 75, "rt": 865, "response": "Beta"}, "38": {"stimulus": 655, "trial": 38, "rt": 583, "response": "Alpha"}, "73": {"stimulus": 155, "trial": 73, "rt": 750, "response": "Alpha"}, "72": {"stimulus": 218, "trial": 72, "rt": 1231, "response": "Alpha"}, "71": {"stimulus": 93, "trial": 71, "rt": 1624, "response": "Alpha"}, "70": {"stimulus": 1280, "trial": 70, "rt": 2743, "response": "Alpha"}, "59": {"stimulus": 374, "trial": 59, "rt": 1247, "response": "Alpha"}, "79": {"stimulus": 530, "trial": 79, "rt": 599, "response": "Alpha"}, "58": {"stimulus": 1687, "trial": 58, "rt": 1489, "response": "Beta"}, "11": {"stimulus": 1874, "trial": 11, "rt": 717, "response": "Beta"}, "10": {"stimulus": 1312, "trial": 10, "rt": 488, "response": "Alpha"}, "13": {"stimulus": 2343, "trial": 13, "rt": 784, "response": "Beta"}, "12": {"stimulus": 1030, "trial": 12, "rt": 527, "response": "Alpha"}, "15": {"stimulus": 343, "trial": 15, "rt": 575, "response": "Alpha"}, "14": {"stimulus": 968, "trial": 14, "rt": 654, "response": "Alpha"}, "17": {"stimulus": 468, "trial": 17, "rt": 5295, "response": "Alpha"}, "16": {"stimulus": 2155, "trial": 16, "rt": 815, "response": "Beta"}, "19": {"stimulus": 2187, "trial": 19, "rt": 735, "response": "Beta"}, "18": {"stimulus": 1155, "trial": 18, "rt": 800, "response": "Beta"}, "31": {"stimulus": 1437, "trial": 31, "rt": 5959, "response": "Alpha"}, "30": {"stimulus": 749, "trial": 30, "rt": 880, "response": "Alpha"}, "37": {"stimulus": 249, "trial": 37, "rt": 1039, "response": "Alpha"}, "36": {"stimulus": 2249, "trial": 36, "rt": 5286, "response": "Beta"}, "35": {"stimulus": 1749, "trial": 35, "rt": 5809, "response": "Beta"}, "34": {"stimulus": 780, "trial": 34, "rt": 1439, "response": "Alpha"}, "33": {"stimulus": 2374, "trial": 33, "rt": 814, "response": "Beta"}, "55": {"stimulus": 1062, "trial": 55, "rt": 743, "response": "Alpha"}, "74": {"stimulus": 405, "trial": 74, "rt": 1383, "response": "Alpha"}, "32": {"stimulus": 1093, "trial": 32, "rt": 6727, "response": "Alpha"}, "57": {"stimulus": 1249, "trial": 57, "rt": 2976, "response": "Alpha"}, "50": {"stimulus": 2499, "trial": 50, "rt": 822, "response": "Beta"}}, "experiment": {"Paradigm": "TACL", "Stimuli": "Size-Color Squares", "Experiment": "Generating-Multiple-Categories"}, "submit": {"timeTotal": 919342, "age": "34", "comments": "it was original\n", "sex": "male "}}