{"info": {"finish": 1548079832533, "participant": 180, "exposed": true, "lab": false, "start": 1548078673620, "counterbalance": 0, "gentype": 0, "condition": "Row", "browser": {"platform": "MacIntel", "userAgent": "Mozilla/5.0 (Macintosh; Intel Mac OS X 10_14_2) AppleWebKit/537.36 (KHTML, like Gecko) Chrome/71.0.3578.98 Safari/537.36"}}, "observation": {"11": {"stimulus": 421, "trial": 11, "rt": 2296}, "10": {"stimulus": 493, "trial": 10, "rt": 3081}, "1": {"stimulus": 493, "trial": 1, "rt": 2952}, "0": {"stimulus": 421, "trial": 0, "rt": 3881}, "3": {"stimulus": 612, "trial": 3, "rt": 2179}, "2": {"stimulus": 582, "trial": 2, "rt": 3030}, "5": {"stimulus": 582, "trial": 5, "rt": 1899}, "4": {"stimulus": 493, "trial": 4, "rt": 2798}, "7": {"stimulus": 612, "trial": 7, "rt": 2182}, "6": {"stimulus": 421, "trial": 6, "rt": 2491}, "9": {"stimulus": 582, "trial": 9, "rt": 2040}, "8": {"stimulus": 612, "trial": 8, "rt": 2357}}, "generation": {"1": {"category": "Not-Alpha", "trial": 1, "stimulus": 2421, "rt": 7286}, "0": {"category": "Not-Alpha", "trial": 0, "stimulus": 2456, "rt": 14753}, "3": {"category": "Not-Alpha", "trial": 3, "stimulus": 2472, "rt": 4988}, "2": {"category": "Not-Alpha", "trial": 2, "stimulus": 2450, "rt": 4734}, "5": {"category": "Not-Alpha", "trial": 5, "stimulus": 2269, "rt": 6788}, "4": {"category": "Not-Alpha", "trial": 4, "stimulus": 2486, "rt": 6951}, "7": {"category": "Not-Alpha", "trial": 7, "stimulus": 2479, "rt": 5302}, "6": {"category": "Not-Alpha", "trial": 6, "stimulus": 2499, "rt": 6842}}, "generalization": {"56": {"stimulus": 155, "trial": 56, "rt": 810, "response": "Alpha"}, "77": {"stimulus": 687, "trial": 77, "rt": 808, "response": "Alpha"}, "54": {"stimulus": 2405, "trial": 54, "rt": 771, "response": "Beta"}, "42": {"stimulus": 1187, "trial": 42, "rt": 830, "response": "Alpha"}, "48": {"stimulus": 1437, "trial": 48, "rt": 1799, "response": "Alpha"}, "43": {"stimulus": 1624, "trial": 43, "rt": 1665, "response": "Beta"}, "60": {"stimulus": 1030, "trial": 60, "rt": 2087, "response": "Alpha"}, "61": {"stimulus": 0, "trial": 61, "rt": 3405, "response": "Alpha"}, "62": {"stimulus": 2249, "trial": 62, "rt": 1170, "response": "Beta"}, "63": {"stimulus": 280, "trial": 63, "rt": 1076, "response": "Alpha"}, "64": {"stimulus": 1968, "trial": 64, "rt": 922, "response": "Beta"}, "49": {"stimulus": 2187, "trial": 49, "rt": 976, "response": "Beta"}, "66": {"stimulus": 2468, "trial": 66, "rt": 853, "response": "Beta"}, "67": {"stimulus": 468, "trial": 67, "rt": 962, "response": "Alpha"}, "68": {"stimulus": 1718, "trial": 68, "rt": 1045, "response": "Beta"}, "69": {"stimulus": 93, "trial": 69, "rt": 1468, "response": "Alpha"}, "80": {"stimulus": 1062, "trial": 80, "rt": 766, "response": "Alpha"}, "52": {"stimulus": 562, "trial": 52, "rt": 858, "response": "Alpha"}, "53": {"stimulus": 1905, "trial": 53, "rt": 972, "response": "Beta"}, "24": {"stimulus": 530, "trial": 24, "rt": 1998, "response": "Alpha"}, "25": {"stimulus": 1468, "trial": 25, "rt": 1001, "response": "Beta"}, "26": {"stimulus": 1499, "trial": 26, "rt": 3535, "response": "Beta"}, "27": {"stimulus": 718, "trial": 27, "rt": 2024, "response": "Beta"}, "20": {"stimulus": 1280, "trial": 20, "rt": 1387, "response": "Beta"}, "21": {"stimulus": 2093, "trial": 21, "rt": 888, "response": "Beta"}, "22": {"stimulus": 343, "trial": 22, "rt": 720, "response": "Alpha"}, "23": {"stimulus": 1937, "trial": 23, "rt": 942, "response": "Beta"}, "46": {"stimulus": 968, "trial": 46, "rt": 1491, "response": "Alpha"}, "47": {"stimulus": 124, "trial": 47, "rt": 1394, "response": "Alpha"}, "44": {"stimulus": 937, "trial": 44, "rt": 1508, "response": "Alpha"}, "45": {"stimulus": 1874, "trial": 45, "rt": 764, "response": "Beta"}, "28": {"stimulus": 1343, "trial": 28, "rt": 1548, "response": "Beta"}, "29": {"stimulus": 2499, "trial": 29, "rt": 1184, "response": "Beta"}, "40": {"stimulus": 749, "trial": 40, "rt": 1044, "response": "Alpha"}, "41": {"stimulus": 1405, "trial": 41, "rt": 1298, "response": "Alpha"}, "1": {"stimulus": 499, "trial": 1, "rt": 865, "response": "Alpha"}, "0": {"stimulus": 843, "trial": 0, "rt": 5641, "response": "Alpha"}, "3": {"stimulus": 1749, "trial": 3, "rt": 928, "response": "Beta"}, "2": {"stimulus": 593, "trial": 2, "rt": 774, "response": "Alpha"}, "5": {"stimulus": 437, "trial": 5, "rt": 921, "response": "Alpha"}, "4": {"stimulus": 812, "trial": 4, "rt": 2395, "response": "Alpha"}, "7": {"stimulus": 2218, "trial": 7, "rt": 1494, "response": "Beta"}, "6": {"stimulus": 1093, "trial": 6, "rt": 1072, "response": "Beta"}, "9": {"stimulus": 1530, "trial": 9, "rt": 1309, "response": "Beta"}, "8": {"stimulus": 312, "trial": 8, "rt": 1312, "response": "Alpha"}, "78": {"stimulus": 1155, "trial": 78, "rt": 1069, "response": "Beta"}, "51": {"stimulus": 624, "trial": 51, "rt": 1366, "response": "Alpha"}, "39": {"stimulus": 2343, "trial": 39, "rt": 1013, "response": "Beta"}, "65": {"stimulus": 780, "trial": 65, "rt": 1569, "response": "Alpha"}, "76": {"stimulus": 2124, "trial": 76, "rt": 1060, "response": "Beta"}, "75": {"stimulus": 999, "trial": 75, "rt": 972, "response": "Alpha"}, "38": {"stimulus": 374, "trial": 38, "rt": 896, "response": "Alpha"}, "73": {"stimulus": 2062, "trial": 73, "rt": 1307, "response": "Beta"}, "72": {"stimulus": 30, "trial": 72, "rt": 23508, "response": "Alpha"}, "71": {"stimulus": 1780, "trial": 71, "rt": 1190, "response": "Beta"}, "70": {"stimulus": 1218, "trial": 70, "rt": 1509, "response": "Alpha"}, "59": {"stimulus": 249, "trial": 59, "rt": 969, "response": "Alpha"}, "79": {"stimulus": 62, "trial": 79, "rt": 717, "response": "Alpha"}, "58": {"stimulus": 1655, "trial": 58, "rt": 1018, "response": "Beta"}, "11": {"stimulus": 655, "trial": 11, "rt": 1044, "response": "Alpha"}, "10": {"stimulus": 1999, "trial": 10, "rt": 1670, "response": "Beta"}, "13": {"stimulus": 1593, "trial": 13, "rt": 1457, "response": "Beta"}, "12": {"stimulus": 1687, "trial": 12, "rt": 930, "response": "Beta"}, "15": {"stimulus": 187, "trial": 15, "rt": 1074, "response": "Alpha"}, "14": {"stimulus": 2374, "trial": 14, "rt": 1131, "response": "Beta"}, "17": {"stimulus": 2155, "trial": 17, "rt": 801, "response": "Beta"}, "16": {"stimulus": 405, "trial": 16, "rt": 945, "response": "Alpha"}, "19": {"stimulus": 1812, "trial": 19, "rt": 661, "response": "Beta"}, "18": {"stimulus": 2280, "trial": 18, "rt": 842, "response": "Beta"}, "31": {"stimulus": 1562, "trial": 31, "rt": 1055, "response": "Beta"}, "30": {"stimulus": 1249, "trial": 30, "rt": 1473, "response": "Beta"}, "37": {"stimulus": 218, "trial": 37, "rt": 837, "response": "Alpha"}, "36": {"stimulus": 2437, "trial": 36, "rt": 812, "response": "Beta"}, "35": {"stimulus": 1124, "trial": 35, "rt": 3537, "response": "Alpha"}, "34": {"stimulus": 2030, "trial": 34, "rt": 948, "response": "Beta"}, "33": {"stimulus": 1843, "trial": 33, "rt": 837, "response": "Beta"}, "55": {"stimulus": 905, "trial": 55, "rt": 1834, "response": "Alpha"}, "74": {"stimulus": 1312, "trial": 74, "rt": 1244, "response": "Beta"}, "32": {"stimulus": 1374, "trial": 32, "rt": 670, "response": "Beta"}, "57": {"stimulus": 874, "trial": 57, "rt": 1247, "response": "Alpha"}, "50": {"stimulus": 2312, "trial": 50, "rt": 558, "response": "Beta"}}, "experiment": {"Paradigm": "TACL", "Stimuli": "Size-Color Squares", "Experiment": "Generating-Multiple-Categories"}, "submit": {"timeTotal": 1159130, "age": "24", "comments": "", "sex": "Male"}}