{"info": {"finish": 1548085591545, "participant": 185, "exposed": true, "lab": false, "start": 1548085231706, "counterbalance": 1, "gentype": 2, "condition": "Cluster", "browser": {"platform": "Win32", "userAgent": "Mozilla/5.0 (Windows NT 10.0; Win64; x64) AppleWebKit/537.36 (KHTML, like Gecko) Chrome/71.0.3578.98 Safari/537.36"}}, "observation": {"11": {"stimulus": 392, "trial": 11, "rt": 1618}, "10": {"stimulus": 1093, "trial": 10, "rt": 1751}, "1": {"stimulus": 1083, "trial": 1, "rt": 2265}, "0": {"stimulus": 1093, "trial": 0, "rt": 2720}, "3": {"stimulus": 583, "trial": 3, "rt": 2172}, "2": {"stimulus": 392, "trial": 2, "rt": 9154}, "5": {"stimulus": 392, "trial": 5, "rt": 1838}, "4": {"stimulus": 1093, "trial": 4, "rt": 2265}, "7": {"stimulus": 1083, "trial": 7, "rt": 1968}, "6": {"stimulus": 583, "trial": 6, "rt": 1793}, "9": {"stimulus": 1083, "trial": 9, "rt": 1751}, "8": {"stimulus": 583, "trial": 8, "rt": 1805}}, "generation": {"1": {"category": "Beta", "trial": 1, "stimulus": 1968, "rt": 9610}, "0": {"category": "Beta", "trial": 0, "stimulus": 2210, "rt": 12321}, "3": {"category": "Beta", "trial": 3, "stimulus": 9, "rt": 6620}, "2": {"category": "Beta", "trial": 2, "stimulus": 2476, "rt": 8780}, "5": {"category": "Gamma", "trial": 5, "stimulus": 2475, "rt": 7497}, "4": {"category": "Gamma", "trial": 4, "stimulus": 2499, "rt": 8228}, "7": {"category": "Gamma", "trial": 7, "stimulus": 1778, "rt": 6037}, "6": {"category": "Gamma", "trial": 6, "stimulus": 2450, "rt": 6017}}, "generalization": {"56": {"stimulus": 687, "trial": 56, "rt": 2257, "response": "Beta"}, "77": {"stimulus": 1218, "trial": 77, "rt": 700, "response": "Gamma"}, "54": {"stimulus": 1905, "trial": 54, "rt": 615, "response": "Gamma"}, "42": {"stimulus": 593, "trial": 42, "rt": 1191, "response": "Alpha"}, "48": {"stimulus": 562, "trial": 48, "rt": 562, "response": "Beta"}, "43": {"stimulus": 1437, "trial": 43, "rt": 696, "response": "Alpha"}, "60": {"stimulus": 2374, "trial": 60, "rt": 694, "response": "Beta"}, "61": {"stimulus": 93, "trial": 61, "rt": 1516, "response": "Beta"}, "62": {"stimulus": 2499, "trial": 62, "rt": 1134, "response": "Alpha"}, "63": {"stimulus": 1343, "trial": 63, "rt": 770, "response": "Alpha"}, "64": {"stimulus": 405, "trial": 64, "rt": 1428, "response": "Gamma"}, "49": {"stimulus": 1468, "trial": 49, "rt": 2276, "response": "Gamma"}, "66": {"stimulus": 499, "trial": 66, "rt": 748, "response": "Alpha"}, "67": {"stimulus": 1874, "trial": 67, "rt": 1623, "response": "Beta"}, "68": {"stimulus": 62, "trial": 68, "rt": 696, "response": "Beta"}, "69": {"stimulus": 2218, "trial": 69, "rt": 819, "response": "Beta"}, "80": {"stimulus": 0, "trial": 80, "rt": 578, "response": "Beta"}, "52": {"stimulus": 1155, "trial": 52, "rt": 657, "response": "Beta"}, "53": {"stimulus": 468, "trial": 53, "rt": 1550, "response": "Gamma"}, "24": {"stimulus": 187, "trial": 24, "rt": 644, "response": "Gamma"}, "25": {"stimulus": 530, "trial": 25, "rt": 445, "response": "Beta"}, "26": {"stimulus": 1530, "trial": 26, "rt": 887, "response": "Beta"}, "27": {"stimulus": 1030, "trial": 27, "rt": 709, "response": "Alpha"}, "20": {"stimulus": 1593, "trial": 20, "rt": 1468, "response": "Beta"}, "21": {"stimulus": 1499, "trial": 21, "rt": 1774, "response": "Alpha"}, "22": {"stimulus": 1562, "trial": 22, "rt": 18169, "response": "Alpha"}, "23": {"stimulus": 2124, "trial": 23, "rt": 639, "response": "Beta"}, "46": {"stimulus": 1093, "trial": 46, "rt": 1896, "response": "Beta"}, "47": {"stimulus": 718, "trial": 47, "rt": 3204, "response": "Beta"}, "44": {"stimulus": 749, "trial": 44, "rt": 1190, "response": "Alpha"}, "45": {"stimulus": 968, "trial": 45, "rt": 875, "response": "Beta"}, "28": {"stimulus": 937, "trial": 28, "rt": 1590, "response": "Alpha"}, "29": {"stimulus": 249, "trial": 29, "rt": 1792, "response": "Alpha"}, "40": {"stimulus": 124, "trial": 40, "rt": 1283, "response": "Beta"}, "41": {"stimulus": 2312, "trial": 41, "rt": 735, "response": "Beta"}, "1": {"stimulus": 437, "trial": 1, "rt": 948, "response": "Gamma"}, "0": {"stimulus": 1968, "trial": 0, "rt": 2821, "response": "Beta"}, "3": {"stimulus": 1655, "trial": 3, "rt": 688, "response": "Alpha"}, "2": {"stimulus": 1718, "trial": 2, "rt": 600, "response": "Beta"}, "5": {"stimulus": 343, "trial": 5, "rt": 1172, "response": "Alpha"}, "4": {"stimulus": 374, "trial": 4, "rt": 1516, "response": "Beta"}, "7": {"stimulus": 2280, "trial": 7, "rt": 1470, "response": "Gamma"}, "6": {"stimulus": 1062, "trial": 6, "rt": 953, "response": "Beta"}, "9": {"stimulus": 1624, "trial": 9, "rt": 1040, "response": "Beta"}, "8": {"stimulus": 2249, "trial": 8, "rt": 568, "response": "Beta"}, "78": {"stimulus": 1405, "trial": 78, "rt": 597, "response": "Gamma"}, "51": {"stimulus": 30, "trial": 51, "rt": 1375, "response": "Beta"}, "39": {"stimulus": 999, "trial": 39, "rt": 849, "response": "Alpha"}, "65": {"stimulus": 812, "trial": 65, "rt": 815, "response": "Gamma"}, "76": {"stimulus": 2468, "trial": 76, "rt": 1159, "response": "Gamma"}, "75": {"stimulus": 1187, "trial": 75, "rt": 661, "response": "Alpha"}, "38": {"stimulus": 1843, "trial": 38, "rt": 693, "response": "Alpha"}, "73": {"stimulus": 874, "trial": 73, "rt": 659, "response": "Alpha"}, "72": {"stimulus": 2405, "trial": 72, "rt": 611, "response": "Beta"}, "71": {"stimulus": 1124, "trial": 71, "rt": 783, "response": "Beta"}, "70": {"stimulus": 2155, "trial": 70, "rt": 2420, "response": "Gamma"}, "59": {"stimulus": 312, "trial": 59, "rt": 951, "response": "Beta"}, "79": {"stimulus": 1812, "trial": 79, "rt": 654, "response": "Beta"}, "58": {"stimulus": 1280, "trial": 58, "rt": 784, "response": "Gamma"}, "11": {"stimulus": 905, "trial": 11, "rt": 1106, "response": "Beta"}, "10": {"stimulus": 1374, "trial": 10, "rt": 1566, "response": "Gamma"}, "13": {"stimulus": 1312, "trial": 13, "rt": 2280, "response": "Gamma"}, "12": {"stimulus": 2093, "trial": 12, "rt": 940, "response": "Beta"}, "15": {"stimulus": 1937, "trial": 15, "rt": 1825, "response": "Beta"}, "14": {"stimulus": 1249, "trial": 14, "rt": 1529, "response": "Alpha"}, "17": {"stimulus": 843, "trial": 17, "rt": 6409, "response": "Gamma"}, "16": {"stimulus": 624, "trial": 16, "rt": 849, "response": "Beta"}, "19": {"stimulus": 1749, "trial": 19, "rt": 1146, "response": "Alpha"}, "18": {"stimulus": 2062, "trial": 18, "rt": 538, "response": "Gamma"}, "31": {"stimulus": 780, "trial": 31, "rt": 654, "response": "Beta"}, "30": {"stimulus": 2437, "trial": 30, "rt": 1114, "response": "Beta"}, "37": {"stimulus": 1999, "trial": 37, "rt": 1421, "response": "Alpha"}, "36": {"stimulus": 655, "trial": 36, "rt": 1191, "response": "Gamma"}, "35": {"stimulus": 280, "trial": 35, "rt": 1304, "response": "Beta"}, "34": {"stimulus": 155, "trial": 34, "rt": 1025, "response": "Gamma"}, "33": {"stimulus": 2030, "trial": 33, "rt": 944, "response": "Beta"}, "55": {"stimulus": 1687, "trial": 55, "rt": 1156, "response": "Beta"}, "74": {"stimulus": 2343, "trial": 74, "rt": 357, "response": "Beta"}, "32": {"stimulus": 1780, "trial": 32, "rt": 706, "response": "Beta"}, "57": {"stimulus": 218, "trial": 57, "rt": 1224, "response": "Gamma"}, "50": {"stimulus": 2187, "trial": 50, "rt": 1681, "response": "Gamma"}}, "experiment": {"Paradigm": "TACL", "Stimuli": "Size-Color Squares", "Experiment": "Generating-Multiple-Categories"}, "submit": {"timeTotal": 360885, "age": "28", "comments": "NA", "sex": "Male"}}