{"info": {"finish": 1548086582502, "participant": 191, "exposed": true, "lab": false, "start": 1548086303164, "counterbalance": 1, "gentype": 1, "condition": "Cluster", "browser": {"platform": "Win32", "userAgent": "Mozilla/5.0 (Windows NT 10.0; Win64; x64) AppleWebKit/537.36 (KHTML, like Gecko) Chrome/71.0.3578.98 Safari/537.36"}}, "observation": {"11": {"stimulus": 1093, "trial": 11, "rt": 1408}, "10": {"stimulus": 583, "trial": 10, "rt": 1396}, "1": {"stimulus": 583, "trial": 1, "rt": 1814}, "0": {"stimulus": 1083, "trial": 0, "rt": 1799}, "3": {"stimulus": 392, "trial": 3, "rt": 1498}, "2": {"stimulus": 1093, "trial": 2, "rt": 1743}, "5": {"stimulus": 392, "trial": 5, "rt": 1613}, "4": {"stimulus": 1083, "trial": 4, "rt": 1541}, "7": {"stimulus": 583, "trial": 7, "rt": 1534}, "6": {"stimulus": 1093, "trial": 6, "rt": 1535}, "9": {"stimulus": 392, "trial": 9, "rt": 2756}, "8": {"stimulus": 1083, "trial": 8, "rt": 1429}}, "generation": {"1": {"category": "Beta", "trial": 1, "stimulus": 2002, "rt": 5788}, "0": {"category": "Beta", "trial": 0, "stimulus": 2452, "rt": 16641}, "3": {"category": "Beta", "trial": 3, "stimulus": 2401, "rt": 4969}, "2": {"category": "Beta", "trial": 2, "stimulus": 2450, "rt": 4259}, "5": {"category": "Beta", "trial": 5, "stimulus": 2200, "rt": 2016}, "4": {"category": "Beta", "trial": 4, "stimulus": 2302, "rt": 5829}, "7": {"category": "Beta", "trial": 7, "stimulus": 2107, "rt": 3906}, "6": {"category": "Beta", "trial": 6, "stimulus": 2455, "rt": 2724}}, "generalization": {"56": {"stimulus": 93, "trial": 56, "rt": 452, "response": "Alpha"}, "77": {"stimulus": 937, "trial": 77, "rt": 935, "response": "Alpha"}, "54": {"stimulus": 374, "trial": 54, "rt": 466, "response": "Alpha"}, "42": {"stimulus": 1655, "trial": 42, "rt": 425, "response": "Beta"}, "48": {"stimulus": 1280, "trial": 48, "rt": 635, "response": "Alpha"}, "43": {"stimulus": 905, "trial": 43, "rt": 404, "response": "Beta"}, "60": {"stimulus": 874, "trial": 60, "rt": 785, "response": "Alpha"}, "61": {"stimulus": 1624, "trial": 61, "rt": 983, "response": "Alpha"}, "62": {"stimulus": 2405, "trial": 62, "rt": 837, "response": "Beta"}, "63": {"stimulus": 2155, "trial": 63, "rt": 4149, "response": "Beta"}, "64": {"stimulus": 1343, "trial": 64, "rt": 1942, "response": "Alpha"}, "49": {"stimulus": 655, "trial": 49, "rt": 527, "response": "Alpha"}, "66": {"stimulus": 2093, "trial": 66, "rt": 982, "response": "Beta"}, "67": {"stimulus": 155, "trial": 67, "rt": 1520, "response": "Alpha"}, "68": {"stimulus": 812, "trial": 68, "rt": 706, "response": "Alpha"}, "69": {"stimulus": 530, "trial": 69, "rt": 1231, "response": "Alpha"}, "80": {"stimulus": 249, "trial": 80, "rt": 715, "response": "Alpha"}, "52": {"stimulus": 312, "trial": 52, "rt": 1326, "response": "Alpha"}, "53": {"stimulus": 968, "trial": 53, "rt": 700, "response": "Alpha"}, "24": {"stimulus": 1218, "trial": 24, "rt": 745, "response": "Alpha"}, "25": {"stimulus": 1749, "trial": 25, "rt": 954, "response": "Beta"}, "26": {"stimulus": 2062, "trial": 26, "rt": 430, "response": "Beta"}, "27": {"stimulus": 1905, "trial": 27, "rt": 423, "response": "Beta"}, "20": {"stimulus": 1249, "trial": 20, "rt": 853, "response": "Beta"}, "21": {"stimulus": 2249, "trial": 21, "rt": 809, "response": "Beta"}, "22": {"stimulus": 1499, "trial": 22, "rt": 820, "response": "Beta"}, "23": {"stimulus": 187, "trial": 23, "rt": 647, "response": "Alpha"}, "46": {"stimulus": 593, "trial": 46, "rt": 790, "response": "Alpha"}, "47": {"stimulus": 562, "trial": 47, "rt": 914, "response": "Alpha"}, "44": {"stimulus": 1718, "trial": 44, "rt": 729, "response": "Beta"}, "45": {"stimulus": 1437, "trial": 45, "rt": 1573, "response": "Beta"}, "28": {"stimulus": 718, "trial": 28, "rt": 911, "response": "Alpha"}, "29": {"stimulus": 437, "trial": 29, "rt": 463, "response": "Alpha"}, "40": {"stimulus": 1812, "trial": 40, "rt": 564, "response": "Beta"}, "41": {"stimulus": 1562, "trial": 41, "rt": 412, "response": "Beta"}, "1": {"stimulus": 2499, "trial": 1, "rt": 1096, "response": "Beta"}, "0": {"stimulus": 405, "trial": 0, "rt": 1104, "response": "Alpha"}, "3": {"stimulus": 1030, "trial": 3, "rt": 975, "response": "Alpha"}, "2": {"stimulus": 1937, "trial": 2, "rt": 1510, "response": "Alpha"}, "5": {"stimulus": 30, "trial": 5, "rt": 929, "response": "Alpha"}, "4": {"stimulus": 1312, "trial": 4, "rt": 1139, "response": "Alpha"}, "7": {"stimulus": 1124, "trial": 7, "rt": 1056, "response": "Alpha"}, "6": {"stimulus": 1468, "trial": 6, "rt": 1490, "response": "Beta"}, "9": {"stimulus": 2218, "trial": 9, "rt": 692, "response": "Beta"}, "8": {"stimulus": 1155, "trial": 8, "rt": 782, "response": "Alpha"}, "78": {"stimulus": 780, "trial": 78, "rt": 854, "response": "Alpha"}, "51": {"stimulus": 1874, "trial": 51, "rt": 980, "response": "Beta"}, "39": {"stimulus": 1843, "trial": 39, "rt": 752, "response": "Beta"}, "65": {"stimulus": 1374, "trial": 65, "rt": 1979, "response": "Alpha"}, "76": {"stimulus": 1593, "trial": 76, "rt": 595, "response": "Beta"}, "75": {"stimulus": 2468, "trial": 75, "rt": 624, "response": "Beta"}, "38": {"stimulus": 1062, "trial": 38, "rt": 650, "response": "Alpha"}, "73": {"stimulus": 1187, "trial": 73, "rt": 876, "response": "Alpha"}, "72": {"stimulus": 1780, "trial": 72, "rt": 1215, "response": "Alpha"}, "71": {"stimulus": 1968, "trial": 71, "rt": 1158, "response": "Beta"}, "70": {"stimulus": 624, "trial": 70, "rt": 1917, "response": "Alpha"}, "59": {"stimulus": 1999, "trial": 59, "rt": 1146, "response": "Beta"}, "79": {"stimulus": 2437, "trial": 79, "rt": 1075, "response": "Beta"}, "58": {"stimulus": 1405, "trial": 58, "rt": 834, "response": "Alpha"}, "11": {"stimulus": 2124, "trial": 11, "rt": 685, "response": "Beta"}, "10": {"stimulus": 687, "trial": 10, "rt": 751, "response": "Alpha"}, "13": {"stimulus": 2343, "trial": 13, "rt": 666, "response": "Beta"}, "12": {"stimulus": 280, "trial": 12, "rt": 949, "response": "Alpha"}, "15": {"stimulus": 2187, "trial": 15, "rt": 654, "response": "Beta"}, "14": {"stimulus": 999, "trial": 14, "rt": 674, "response": "Alpha"}, "17": {"stimulus": 0, "trial": 17, "rt": 786, "response": "Alpha"}, "16": {"stimulus": 1530, "trial": 16, "rt": 911, "response": "Alpha"}, "19": {"stimulus": 1687, "trial": 19, "rt": 1264, "response": "Beta"}, "18": {"stimulus": 218, "trial": 18, "rt": 820, "response": "Alpha"}, "31": {"stimulus": 499, "trial": 31, "rt": 773, "response": "Alpha"}, "30": {"stimulus": 2312, "trial": 30, "rt": 677, "response": "Beta"}, "37": {"stimulus": 749, "trial": 37, "rt": 823, "response": "Alpha"}, "36": {"stimulus": 124, "trial": 36, "rt": 510, "response": "Alpha"}, "35": {"stimulus": 2374, "trial": 35, "rt": 626, "response": "Beta"}, "34": {"stimulus": 343, "trial": 34, "rt": 1047, "response": "Alpha"}, "33": {"stimulus": 2030, "trial": 33, "rt": 856, "response": "Beta"}, "55": {"stimulus": 843, "trial": 55, "rt": 505, "response": "Alpha"}, "74": {"stimulus": 468, "trial": 74, "rt": 484, "response": "Alpha"}, "32": {"stimulus": 1093, "trial": 32, "rt": 523, "response": "Alpha"}, "57": {"stimulus": 62, "trial": 57, "rt": 454, "response": "Alpha"}, "50": {"stimulus": 2280, "trial": 50, "rt": 719, "response": "Beta"}}, "experiment": {"Paradigm": "TACL", "Stimuli": "Size-Color Squares", "Experiment": "Generating-Multiple-Categories"}, "submit": {"timeTotal": 279667, "age": "25", "comments": "", "sex": "Female"}}