{"info": {"finish": 1548087394608, "participant": 192, "exposed": true, "lab": false, "start": 1548086671035, "counterbalance": 3, "gentype": 1, "condition": "Cluster", "browser": {"platform": "Win32", "userAgent": "Mozilla/5.0 (Windows NT 6.1) AppleWebKit/537.36 (KHTML, like Gecko) Chrome/71.0.3578.98 Safari/537.36"}}, "observation": {"11": {"stimulus": 1093, "trial": 11, "rt": 2399}, "10": {"stimulus": 1083, "trial": 10, "rt": 2025}, "1": {"stimulus": 1093, "trial": 1, "rt": 5665}, "0": {"stimulus": 583, "trial": 0, "rt": 2978}, "3": {"stimulus": 392, "trial": 3, "rt": 96742}, "2": {"stimulus": 1083, "trial": 2, "rt": 3546}, "5": {"stimulus": 1083, "trial": 5, "rt": 2084}, "4": {"stimulus": 1093, "trial": 4, "rt": 8950}, "7": {"stimulus": 583, "trial": 7, "rt": 1508}, "6": {"stimulus": 392, "trial": 6, "rt": 1974}, "9": {"stimulus": 583, "trial": 9, "rt": 2675}, "8": {"stimulus": 392, "trial": 8, "rt": 2737}}, "generation": {"1": {"category": "Beta", "trial": 1, "stimulus": 1331, "rt": 10363}, "0": {"category": "Beta", "trial": 0, "stimulus": 1340, "rt": 10864}, "3": {"category": "Beta", "trial": 3, "stimulus": 881, "rt": 6765}, "2": {"category": "Beta", "trial": 2, "stimulus": 1435, "rt": 4746}, "5": {"category": "Beta", "trial": 5, "stimulus": 1078, "rt": 13357}, "4": {"category": "Beta", "trial": 4, "stimulus": 1230, "rt": 17104}, "7": {"category": "Beta", "trial": 7, "stimulus": 1234, "rt": 9733}, "6": {"category": "Beta", "trial": 6, "stimulus": 1280, "rt": 39832}}, "generalization": {"56": {"stimulus": 218, "trial": 56, "rt": 29740, "response": "Alpha"}, "77": {"stimulus": 1343, "trial": 77, "rt": 656, "response": "Alpha"}, "54": {"stimulus": 2312, "trial": 54, "rt": 1172, "response": "Beta"}, "42": {"stimulus": 1155, "trial": 42, "rt": 2004, "response": "Alpha"}, "48": {"stimulus": 1437, "trial": 48, "rt": 1881, "response": "Beta"}, "43": {"stimulus": 1530, "trial": 43, "rt": 1321, "response": "Beta"}, "60": {"stimulus": 2280, "trial": 60, "rt": 1136, "response": "Beta"}, "61": {"stimulus": 2030, "trial": 61, "rt": 1187, "response": "Beta"}, "62": {"stimulus": 1749, "trial": 62, "rt": 1110, "response": "Beta"}, "63": {"stimulus": 2187, "trial": 63, "rt": 874, "response": "Beta"}, "64": {"stimulus": 843, "trial": 64, "rt": 1455, "response": "Alpha"}, "49": {"stimulus": 1280, "trial": 49, "rt": 976, "response": "Alpha"}, "66": {"stimulus": 2155, "trial": 66, "rt": 1002, "response": "Beta"}, "67": {"stimulus": 280, "trial": 67, "rt": 705, "response": "Alpha"}, "68": {"stimulus": 655, "trial": 68, "rt": 816, "response": "Alpha"}, "69": {"stimulus": 1499, "trial": 69, "rt": 2405, "response": "Beta"}, "80": {"stimulus": 2249, "trial": 80, "rt": 1185, "response": "Beta"}, "52": {"stimulus": 780, "trial": 52, "rt": 543, "response": "Alpha"}, "53": {"stimulus": 1468, "trial": 53, "rt": 1502, "response": "Beta"}, "24": {"stimulus": 812, "trial": 24, "rt": 940, "response": "Alpha"}, "25": {"stimulus": 249, "trial": 25, "rt": 553, "response": "Alpha"}, "26": {"stimulus": 1374, "trial": 26, "rt": 1092, "response": "Alpha"}, "27": {"stimulus": 749, "trial": 27, "rt": 3312, "response": "Alpha"}, "20": {"stimulus": 0, "trial": 20, "rt": 813, "response": "Alpha"}, "21": {"stimulus": 1780, "trial": 21, "rt": 1128, "response": "Beta"}, "22": {"stimulus": 62, "trial": 22, "rt": 1051, "response": "Alpha"}, "23": {"stimulus": 687, "trial": 23, "rt": 3214, "response": "Alpha"}, "46": {"stimulus": 1312, "trial": 46, "rt": 2676, "response": "Alpha"}, "47": {"stimulus": 1843, "trial": 47, "rt": 1379, "response": "Beta"}, "44": {"stimulus": 1562, "trial": 44, "rt": 1531, "response": "Beta"}, "45": {"stimulus": 1937, "trial": 45, "rt": 1351, "response": "Beta"}, "28": {"stimulus": 1655, "trial": 28, "rt": 1751, "response": "Beta"}, "29": {"stimulus": 468, "trial": 29, "rt": 13148, "response": "Alpha"}, "40": {"stimulus": 1687, "trial": 40, "rt": 1989, "response": "Beta"}, "41": {"stimulus": 1624, "trial": 41, "rt": 999, "response": "Beta"}, "1": {"stimulus": 999, "trial": 1, "rt": 1836, "response": "Beta"}, "0": {"stimulus": 343, "trial": 0, "rt": 70452, "response": "Alpha"}, "3": {"stimulus": 1874, "trial": 3, "rt": 1138, "response": "Alpha"}, "2": {"stimulus": 2499, "trial": 2, "rt": 869, "response": "Beta"}, "5": {"stimulus": 93, "trial": 5, "rt": 29465, "response": "Alpha"}, "4": {"stimulus": 905, "trial": 4, "rt": 1328, "response": "Alpha"}, "7": {"stimulus": 968, "trial": 7, "rt": 1044, "response": "Alpha"}, "6": {"stimulus": 2124, "trial": 6, "rt": 1048, "response": "Beta"}, "9": {"stimulus": 2468, "trial": 9, "rt": 1070, "response": "Beta"}, "8": {"stimulus": 1062, "trial": 8, "rt": 631, "response": "Beta"}, "78": {"stimulus": 937, "trial": 78, "rt": 557, "response": "Alpha"}, "51": {"stimulus": 874, "trial": 51, "rt": 666, "response": "Alpha"}, "39": {"stimulus": 155, "trial": 39, "rt": 581, "response": "Alpha"}, "65": {"stimulus": 499, "trial": 65, "rt": 1053, "response": "Alpha"}, "76": {"stimulus": 1187, "trial": 76, "rt": 804, "response": "Alpha"}, "75": {"stimulus": 2437, "trial": 75, "rt": 817, "response": "Beta"}, "38": {"stimulus": 124, "trial": 38, "rt": 856, "response": "Alpha"}, "73": {"stimulus": 624, "trial": 73, "rt": 762, "response": "Alpha"}, "72": {"stimulus": 1249, "trial": 72, "rt": 1178, "response": "Alpha"}, "71": {"stimulus": 1812, "trial": 71, "rt": 631, "response": "Beta"}, "70": {"stimulus": 2374, "trial": 70, "rt": 1168, "response": "Beta"}, "59": {"stimulus": 1030, "trial": 59, "rt": 1505, "response": "Alpha"}, "79": {"stimulus": 312, "trial": 79, "rt": 603, "response": "Alpha"}, "58": {"stimulus": 562, "trial": 58, "rt": 1374, "response": "Alpha"}, "11": {"stimulus": 2062, "trial": 11, "rt": 1151, "response": "Beta"}, "10": {"stimulus": 1405, "trial": 10, "rt": 847, "response": "Alpha"}, "13": {"stimulus": 593, "trial": 13, "rt": 23368, "response": "Alpha"}, "12": {"stimulus": 1905, "trial": 12, "rt": 23879, "response": "Beta"}, "15": {"stimulus": 530, "trial": 15, "rt": 7749, "response": "Alpha"}, "14": {"stimulus": 2343, "trial": 14, "rt": 1562, "response": "Beta"}, "17": {"stimulus": 187, "trial": 17, "rt": 1473, "response": "Alpha"}, "16": {"stimulus": 2093, "trial": 16, "rt": 1279, "response": "Beta"}, "19": {"stimulus": 1718, "trial": 19, "rt": 755, "response": "Beta"}, "18": {"stimulus": 2405, "trial": 18, "rt": 1288, "response": "Beta"}, "31": {"stimulus": 405, "trial": 31, "rt": 1011, "response": "Alpha"}, "30": {"stimulus": 1218, "trial": 30, "rt": 1608, "response": "Alpha"}, "37": {"stimulus": 1593, "trial": 37, "rt": 2318, "response": "Beta"}, "36": {"stimulus": 1093, "trial": 36, "rt": 991, "response": "Alpha"}, "35": {"stimulus": 1968, "trial": 35, "rt": 2191, "response": "Beta"}, "34": {"stimulus": 1124, "trial": 34, "rt": 1705, "response": "Alpha"}, "33": {"stimulus": 374, "trial": 33, "rt": 806, "response": "Alpha"}, "55": {"stimulus": 718, "trial": 55, "rt": 816, "response": "Alpha"}, "74": {"stimulus": 2218, "trial": 74, "rt": 942, "response": "Beta"}, "32": {"stimulus": 437, "trial": 32, "rt": 1002, "response": "Alpha"}, "57": {"stimulus": 1999, "trial": 57, "rt": 53616, "response": "Beta"}, "50": {"stimulus": 30, "trial": 50, "rt": 1030, "response": "Alpha"}}, "experiment": {"Paradigm": "TACL", "Stimuli": "Size-Color Squares", "Experiment": "Generating-Multiple-Categories"}, "submit": {"timeTotal": 725281, "age": "25", "comments": "This study is full focus on my mind", "sex": "Male"}}