{"info": {"finish": 1548088443355, "participant": 193, "exposed": true, "lab": false, "start": 1548087924879, "counterbalance": 2, "gentype": 0, "condition": "XOR", "browser": {"platform": "Win32", "userAgent": "Mozilla/5.0 (Windows NT 10.0; Win64; x64) AppleWebKit/537.36 (KHTML, like Gecko) Chrome/71.0.3578.98 Safari/537.36"}}, "observation": {"11": {"stimulus": 1890, "trial": 11, "rt": 4618}, "10": {"stimulus": 1479, "trial": 10, "rt": 1886}, "1": {"stimulus": 818, "trial": 1, "rt": 2181}, "0": {"stimulus": 403, "trial": 0, "rt": 6760}, "3": {"stimulus": 1479, "trial": 3, "rt": 1945}, "2": {"stimulus": 1890, "trial": 2, "rt": 2293}, "5": {"stimulus": 1890, "trial": 5, "rt": 1572}, "4": {"stimulus": 1479, "trial": 4, "rt": 4620}, "7": {"stimulus": 403, "trial": 7, "rt": 2066}, "6": {"stimulus": 818, "trial": 6, "rt": 1775}, "9": {"stimulus": 403, "trial": 9, "rt": 1474}, "8": {"stimulus": 818, "trial": 8, "rt": 1495}}, "generation": {"1": {"category": "Not-Alpha", "trial": 1, "stimulus": 0, "rt": 7365}, "0": {"category": "Not-Alpha", "trial": 0, "stimulus": 48, "rt": 9408}, "3": {"category": "Not-Alpha", "trial": 3, "stimulus": 49, "rt": 4865}, "2": {"category": "Not-Alpha", "trial": 2, "stimulus": 53, "rt": 7588}, "5": {"category": "Not-Alpha", "trial": 5, "stimulus": 97, "rt": 6371}, "4": {"category": "Not-Alpha", "trial": 4, "stimulus": 47, "rt": 5147}, "7": {"category": "Not-Alpha", "trial": 7, "stimulus": 198, "rt": 8210}, "6": {"category": "Not-Alpha", "trial": 6, "stimulus": 102, "rt": 7881}}, "generalization": {"56": {"stimulus": 1530, "trial": 56, "rt": 930, "response": "Alpha"}, "77": {"stimulus": 468, "trial": 77, "rt": 1628, "response": "Alpha"}, "54": {"stimulus": 2124, "trial": 54, "rt": 819, "response": "Alpha"}, "42": {"stimulus": 999, "trial": 42, "rt": 1115, "response": "Beta"}, "48": {"stimulus": 1562, "trial": 48, "rt": 1584, "response": "Alpha"}, "43": {"stimulus": 1812, "trial": 43, "rt": 1190, "response": "Beta"}, "60": {"stimulus": 1780, "trial": 60, "rt": 16956, "response": "Alpha"}, "61": {"stimulus": 249, "trial": 61, "rt": 1327, "response": "Beta"}, "62": {"stimulus": 93, "trial": 62, "rt": 615, "response": "Beta"}, "63": {"stimulus": 937, "trial": 63, "rt": 1087, "response": "Beta"}, "64": {"stimulus": 2312, "trial": 64, "rt": 822, "response": "Alpha"}, "49": {"stimulus": 2218, "trial": 49, "rt": 822, "response": "Alpha"}, "66": {"stimulus": 1468, "trial": 66, "rt": 1301, "response": "Alpha"}, "67": {"stimulus": 780, "trial": 67, "rt": 1415, "response": "Alpha"}, "68": {"stimulus": 812, "trial": 68, "rt": 757, "response": "Alpha"}, "69": {"stimulus": 1937, "trial": 69, "rt": 649, "response": "Alpha"}, "80": {"stimulus": 1249, "trial": 80, "rt": 745, "response": "Beta"}, "52": {"stimulus": 499, "trial": 52, "rt": 1078, "response": "Beta"}, "53": {"stimulus": 1499, "trial": 53, "rt": 1211, "response": "Beta"}, "24": {"stimulus": 1280, "trial": 24, "rt": 860, "response": "Alpha"}, "25": {"stimulus": 1405, "trial": 25, "rt": 2018, "response": "Beta"}, "26": {"stimulus": 1093, "trial": 26, "rt": 20260, "response": "Beta"}, "27": {"stimulus": 124, "trial": 27, "rt": 982, "response": "Beta"}, "20": {"stimulus": 1749, "trial": 20, "rt": 1254, "response": "Beta"}, "21": {"stimulus": 749, "trial": 21, "rt": 793, "response": "Beta"}, "22": {"stimulus": 30, "trial": 22, "rt": 853, "response": "Beta"}, "23": {"stimulus": 1624, "trial": 23, "rt": 1083, "response": "Alpha"}, "46": {"stimulus": 1843, "trial": 46, "rt": 849, "response": "Beta"}, "47": {"stimulus": 0, "trial": 47, "rt": 4021, "response": "Beta"}, "44": {"stimulus": 843, "trial": 44, "rt": 915, "response": "Beta"}, "45": {"stimulus": 374, "trial": 45, "rt": 1599, "response": "Beta"}, "28": {"stimulus": 2405, "trial": 28, "rt": 1277, "response": "Beta"}, "29": {"stimulus": 1905, "trial": 29, "rt": 2236, "response": "Beta"}, "40": {"stimulus": 405, "trial": 40, "rt": 663, "response": "Beta"}, "41": {"stimulus": 2249, "trial": 41, "rt": 1047, "response": "Beta"}, "1": {"stimulus": 1437, "trial": 1, "rt": 640, "response": "Alpha"}, "0": {"stimulus": 1030, "trial": 0, "rt": 1294, "response": "Alpha"}, "3": {"stimulus": 2030, "trial": 3, "rt": 994, "response": "Alpha"}, "2": {"stimulus": 1155, "trial": 2, "rt": 1095, "response": "Beta"}, "5": {"stimulus": 280, "trial": 5, "rt": 1215, "response": "Beta"}, "4": {"stimulus": 437, "trial": 4, "rt": 1259, "response": "Beta"}, "7": {"stimulus": 2437, "trial": 7, "rt": 1349, "response": "Alpha"}, "6": {"stimulus": 1718, "trial": 6, "rt": 1167, "response": "Alpha"}, "9": {"stimulus": 1874, "trial": 9, "rt": 2524, "response": "Alpha"}, "8": {"stimulus": 187, "trial": 8, "rt": 1109, "response": "Beta"}, "78": {"stimulus": 2093, "trial": 78, "rt": 1477, "response": "Alpha"}, "51": {"stimulus": 655, "trial": 51, "rt": 1043, "response": "Alpha"}, "39": {"stimulus": 562, "trial": 39, "rt": 734, "response": "Beta"}, "65": {"stimulus": 1312, "trial": 65, "rt": 1149, "response": "Beta"}, "76": {"stimulus": 2155, "trial": 76, "rt": 669, "response": "Alpha"}, "75": {"stimulus": 624, "trial": 75, "rt": 36685, "response": "Alpha"}, "38": {"stimulus": 1062, "trial": 38, "rt": 967, "response": "Beta"}, "73": {"stimulus": 155, "trial": 73, "rt": 936, "response": "Beta"}, "72": {"stimulus": 1343, "trial": 72, "rt": 1800, "response": "Beta"}, "71": {"stimulus": 968, "trial": 71, "rt": 3518, "response": "Alpha"}, "70": {"stimulus": 343, "trial": 70, "rt": 1084, "response": "Beta"}, "59": {"stimulus": 1187, "trial": 59, "rt": 941, "response": "Alpha"}, "79": {"stimulus": 1593, "trial": 79, "rt": 11189, "response": "Beta"}, "58": {"stimulus": 1687, "trial": 58, "rt": 895, "response": "Alpha"}, "11": {"stimulus": 1218, "trial": 11, "rt": 1100, "response": "Beta"}, "10": {"stimulus": 530, "trial": 10, "rt": 1704, "response": "Alpha"}, "13": {"stimulus": 905, "trial": 13, "rt": 990, "response": "Beta"}, "12": {"stimulus": 687, "trial": 12, "rt": 741, "response": "Alpha"}, "15": {"stimulus": 1968, "trial": 15, "rt": 2192, "response": "Beta"}, "14": {"stimulus": 62, "trial": 14, "rt": 1086, "response": "Beta"}, "17": {"stimulus": 2499, "trial": 17, "rt": 2980, "response": "Beta"}, "16": {"stimulus": 1655, "trial": 16, "rt": 2335, "response": "Beta"}, "19": {"stimulus": 2187, "trial": 19, "rt": 34738, "response": "Alpha"}, "18": {"stimulus": 2062, "trial": 18, "rt": 12749, "response": "Beta"}, "31": {"stimulus": 2280, "trial": 31, "rt": 974, "response": "Alpha"}, "30": {"stimulus": 2468, "trial": 30, "rt": 958, "response": "Beta"}, "37": {"stimulus": 1999, "trial": 37, "rt": 1704, "response": "Beta"}, "36": {"stimulus": 312, "trial": 36, "rt": 2775, "response": "Beta"}, "35": {"stimulus": 2374, "trial": 35, "rt": 1115, "response": "Beta"}, "34": {"stimulus": 593, "trial": 34, "rt": 1487, "response": "Beta"}, "33": {"stimulus": 2343, "trial": 33, "rt": 1396, "response": "Beta"}, "55": {"stimulus": 718, "trial": 55, "rt": 1609, "response": "Beta"}, "74": {"stimulus": 218, "trial": 74, "rt": 671, "response": "Beta"}, "32": {"stimulus": 1124, "trial": 32, "rt": 972, "response": "Alpha"}, "57": {"stimulus": 874, "trial": 57, "rt": 1710, "response": "Alpha"}, "50": {"stimulus": 1374, "trial": 50, "rt": 70977, "response": "Alpha"}}, "experiment": {"Paradigm": "TACL", "Stimuli": "Size-Color Squares", "Experiment": "Generating-Multiple-Categories"}, "submit": {"timeTotal": 518941, "age": "38", "comments": "all good", "sex": "female"}}