{"info": {"finish": 1548088934862, "participant": 194, "exposed": true, "lab": false, "start": 1548088153665, "counterbalance": 2, "gentype": 2, "condition": "XOR", "browser": {"platform": "Win32", "userAgent": "Mozilla/5.0 (Windows NT 6.1; Win64; x64) AppleWebKit/537.36 (KHTML, like Gecko) Chrome/71.0.3578.98 Safari/537.36"}}, "observation": {"11": {"stimulus": 818, "trial": 11, "rt": 67017}, "10": {"stimulus": 403, "trial": 10, "rt": 90131}, "1": {"stimulus": 1479, "trial": 1, "rt": 56816}, "0": {"stimulus": 403, "trial": 0, "rt": 4604}, "3": {"stimulus": 818, "trial": 3, "rt": 40616}, "2": {"stimulus": 1890, "trial": 2, "rt": 2518}, "5": {"stimulus": 403, "trial": 5, "rt": 92145}, "4": {"stimulus": 1890, "trial": 4, "rt": 2563}, "7": {"stimulus": 1479, "trial": 7, "rt": 28916}, "6": {"stimulus": 818, "trial": 6, "rt": 2183}, "9": {"stimulus": 1479, "trial": 9, "rt": 5595}, "8": {"stimulus": 1890, "trial": 8, "rt": 51428}}, "generation": {"1": {"category": "Beta", "trial": 1, "stimulus": 1424, "rt": 4386}, "0": {"category": "Beta", "trial": 0, "stimulus": 1119, "rt": 30575}, "3": {"category": "Beta", "trial": 3, "stimulus": 1325, "rt": 5174}, "2": {"category": "Beta", "trial": 2, "stimulus": 1524, "rt": 3786}, "5": {"category": "Gamma", "trial": 5, "stimulus": 1460, "rt": 4667}, "4": {"category": "Gamma", "trial": 4, "stimulus": 1805, "rt": 4169}, "7": {"category": "Gamma", "trial": 7, "stimulus": 1571, "rt": 4084}, "6": {"category": "Gamma", "trial": 6, "stimulus": 1418, "rt": 4369}}, "generalization": {"56": {"stimulus": 1312, "trial": 56, "rt": 1086, "response": "Beta"}, "77": {"stimulus": 1280, "trial": 77, "rt": 789, "response": "Beta"}, "54": {"stimulus": 2405, "trial": 54, "rt": 1370, "response": "Gamma"}, "42": {"stimulus": 812, "trial": 42, "rt": 2151, "response": "Beta"}, "48": {"stimulus": 62, "trial": 48, "rt": 1822, "response": "Alpha"}, "43": {"stimulus": 2218, "trial": 43, "rt": 1211, "response": "Gamma"}, "60": {"stimulus": 2249, "trial": 60, "rt": 1507, "response": "Gamma"}, "61": {"stimulus": 1249, "trial": 61, "rt": 1093, "response": "Beta"}, "62": {"stimulus": 0, "trial": 62, "rt": 1364, "response": "Alpha"}, "63": {"stimulus": 2312, "trial": 63, "rt": 3039, "response": "Gamma"}, "64": {"stimulus": 2280, "trial": 64, "rt": 1319, "response": "Gamma"}, "49": {"stimulus": 218, "trial": 49, "rt": 1591, "response": "Alpha"}, "66": {"stimulus": 437, "trial": 66, "rt": 1389, "response": "Alpha"}, "67": {"stimulus": 1749, "trial": 67, "rt": 1147, "response": "Gamma"}, "68": {"stimulus": 1343, "trial": 68, "rt": 1485, "response": "Gamma"}, "69": {"stimulus": 124, "trial": 69, "rt": 1444, "response": "Alpha"}, "80": {"stimulus": 1030, "trial": 80, "rt": 1346, "response": "Beta"}, "52": {"stimulus": 874, "trial": 52, "rt": 1149, "response": "Beta"}, "53": {"stimulus": 249, "trial": 53, "rt": 1278, "response": "Alpha"}, "24": {"stimulus": 593, "trial": 24, "rt": 1256, "response": "Alpha"}, "25": {"stimulus": 1499, "trial": 25, "rt": 1358, "response": "Beta"}, "26": {"stimulus": 374, "trial": 26, "rt": 1536, "response": "Alpha"}, "27": {"stimulus": 1874, "trial": 27, "rt": 1295, "response": "Gamma"}, "20": {"stimulus": 1968, "trial": 20, "rt": 1608, "response": "Gamma"}, "21": {"stimulus": 280, "trial": 21, "rt": 1576, "response": "Alpha"}, "22": {"stimulus": 905, "trial": 22, "rt": 901, "response": "Beta"}, "23": {"stimulus": 1905, "trial": 23, "rt": 1223, "response": "Gamma"}, "46": {"stimulus": 1937, "trial": 46, "rt": 1368, "response": "Gamma"}, "47": {"stimulus": 2093, "trial": 47, "rt": 1193, "response": "Gamma"}, "44": {"stimulus": 1999, "trial": 44, "rt": 958, "response": "Gamma"}, "45": {"stimulus": 155, "trial": 45, "rt": 1490, "response": "Alpha"}, "28": {"stimulus": 780, "trial": 28, "rt": 1036, "response": "Beta"}, "29": {"stimulus": 1530, "trial": 29, "rt": 2233, "response": "Beta"}, "40": {"stimulus": 1093, "trial": 40, "rt": 1394, "response": "Beta"}, "41": {"stimulus": 93, "trial": 41, "rt": 1359, "response": "Alpha"}, "1": {"stimulus": 562, "trial": 1, "rt": 1025, "response": "Beta"}, "0": {"stimulus": 343, "trial": 0, "rt": 4914, "response": "Alpha"}, "3": {"stimulus": 2343, "trial": 3, "rt": 1670, "response": "Gamma"}, "2": {"stimulus": 1812, "trial": 2, "rt": 982, "response": "Gamma"}, "5": {"stimulus": 2030, "trial": 5, "rt": 2061, "response": "Gamma"}, "4": {"stimulus": 1124, "trial": 4, "rt": 1011, "response": "Beta"}, "7": {"stimulus": 749, "trial": 7, "rt": 1870, "response": "Beta"}, "6": {"stimulus": 2187, "trial": 6, "rt": 1384, "response": "Gamma"}, "9": {"stimulus": 405, "trial": 9, "rt": 1653, "response": "Alpha"}, "8": {"stimulus": 468, "trial": 8, "rt": 1098, "response": "Alpha"}, "78": {"stimulus": 1468, "trial": 78, "rt": 727, "response": "Beta"}, "51": {"stimulus": 624, "trial": 51, "rt": 1145, "response": "Beta"}, "39": {"stimulus": 2124, "trial": 39, "rt": 1082, "response": "Gamma"}, "65": {"stimulus": 1437, "trial": 65, "rt": 12303, "response": "Beta"}, "76": {"stimulus": 1218, "trial": 76, "rt": 934, "response": "Beta"}, "75": {"stimulus": 1062, "trial": 75, "rt": 1095, "response": "Beta"}, "38": {"stimulus": 2499, "trial": 38, "rt": 1324, "response": "Gamma"}, "73": {"stimulus": 312, "trial": 73, "rt": 1899, "response": "Alpha"}, "72": {"stimulus": 1405, "trial": 72, "rt": 1402, "response": "Gamma"}, "71": {"stimulus": 1687, "trial": 71, "rt": 1903, "response": "Gamma"}, "70": {"stimulus": 1655, "trial": 70, "rt": 1503, "response": "Gamma"}, "59": {"stimulus": 1624, "trial": 59, "rt": 1035, "response": "Beta"}, "79": {"stimulus": 1780, "trial": 79, "rt": 1536, "response": "Beta"}, "58": {"stimulus": 843, "trial": 58, "rt": 1207, "response": "Beta"}, "11": {"stimulus": 2062, "trial": 11, "rt": 1668, "response": "Gamma"}, "10": {"stimulus": 718, "trial": 10, "rt": 1073, "response": "Alpha"}, "13": {"stimulus": 1593, "trial": 13, "rt": 910, "response": "Beta"}, "12": {"stimulus": 687, "trial": 12, "rt": 1579, "response": "Alpha"}, "15": {"stimulus": 1374, "trial": 15, "rt": 800, "response": "Beta"}, "14": {"stimulus": 530, "trial": 14, "rt": 1209, "response": "Alpha"}, "17": {"stimulus": 999, "trial": 17, "rt": 1097, "response": "Beta"}, "16": {"stimulus": 1718, "trial": 16, "rt": 1697, "response": "Gamma"}, "19": {"stimulus": 499, "trial": 19, "rt": 1944, "response": "Alpha"}, "18": {"stimulus": 1843, "trial": 18, "rt": 1384, "response": "Gamma"}, "31": {"stimulus": 655, "trial": 31, "rt": 1355, "response": "Beta"}, "30": {"stimulus": 187, "trial": 30, "rt": 1009, "response": "Alpha"}, "37": {"stimulus": 968, "trial": 37, "rt": 1426, "response": "Beta"}, "36": {"stimulus": 1155, "trial": 36, "rt": 1025, "response": "Beta"}, "35": {"stimulus": 2468, "trial": 35, "rt": 1678, "response": "Gamma"}, "34": {"stimulus": 1562, "trial": 34, "rt": 1355, "response": "Gamma"}, "33": {"stimulus": 30, "trial": 33, "rt": 2478, "response": "Alpha"}, "55": {"stimulus": 1187, "trial": 55, "rt": 1160, "response": "Beta"}, "74": {"stimulus": 2437, "trial": 74, "rt": 1712, "response": "Gamma"}, "32": {"stimulus": 937, "trial": 32, "rt": 1601, "response": "Gamma"}, "57": {"stimulus": 2374, "trial": 57, "rt": 1526, "response": "Gamma"}, "50": {"stimulus": 2155, "trial": 50, "rt": 1374, "response": "Gamma"}}, "experiment": {"Paradigm": "TACL", "Stimuli": "Size-Color Squares", "Experiment": "Generating-Multiple-Categories"}, "submit": {"timeTotal": 782960, "age": "46", "comments": "good", "sex": "Female"}}