{"info": {"finish": 1548092331358, "participant": 199, "exposed": true, "lab": false, "start": 1548091987292, "counterbalance": 2, "gentype": 1, "condition": "Cluster", "browser": {"platform": "Win32", "userAgent": "Mozilla/5.0 (Windows NT 10.0; Win64; x64) AppleWebKit/537.36 (KHTML, like Gecko) Chrome/71.0.3578.98 Safari/537.36"}}, "observation": {"11": {"stimulus": 392, "trial": 11, "rt": 1667}, "10": {"stimulus": 1093, "trial": 10, "rt": 3212}, "1": {"stimulus": 392, "trial": 1, "rt": 2100}, "0": {"stimulus": 583, "trial": 0, "rt": 3151}, "3": {"stimulus": 1093, "trial": 3, "rt": 1863}, "2": {"stimulus": 1083, "trial": 2, "rt": 2758}, "5": {"stimulus": 1093, "trial": 5, "rt": 1827}, "4": {"stimulus": 583, "trial": 4, "rt": 2033}, "7": {"stimulus": 1083, "trial": 7, "rt": 2665}, "6": {"stimulus": 392, "trial": 6, "rt": 4309}, "9": {"stimulus": 583, "trial": 9, "rt": 7712}, "8": {"stimulus": 1083, "trial": 8, "rt": 3066}}, "generation": {"1": {"category": "Beta", "trial": 1, "stimulus": 2498, "rt": 6080}, "0": {"category": "Beta", "trial": 0, "stimulus": 2490, "rt": 17570}, "3": {"category": "Beta", "trial": 3, "stimulus": 2264, "rt": 8171}, "2": {"category": "Beta", "trial": 2, "stimulus": 2477, "rt": 5567}, "5": {"category": "Beta", "trial": 5, "stimulus": 2450, "rt": 7117}, "4": {"category": "Beta", "trial": 4, "stimulus": 2499, "rt": 5720}, "7": {"category": "Beta", "trial": 7, "stimulus": 2050, "rt": 7147}, "6": {"category": "Beta", "trial": 6, "stimulus": 2464, "rt": 5888}}, "generalization": {"56": {"stimulus": 1312, "trial": 56, "rt": 712, "response": "Beta"}, "77": {"stimulus": 1812, "trial": 77, "rt": 979, "response": "Alpha"}, "54": {"stimulus": 2030, "trial": 54, "rt": 517, "response": "Beta"}, "42": {"stimulus": 2280, "trial": 42, "rt": 895, "response": "Beta"}, "48": {"stimulus": 2062, "trial": 48, "rt": 732, "response": "Beta"}, "43": {"stimulus": 1687, "trial": 43, "rt": 714, "response": "Beta"}, "60": {"stimulus": 249, "trial": 60, "rt": 788, "response": "Alpha"}, "61": {"stimulus": 1062, "trial": 61, "rt": 909, "response": "Beta"}, "62": {"stimulus": 1374, "trial": 62, "rt": 1320, "response": "Beta"}, "63": {"stimulus": 968, "trial": 63, "rt": 958, "response": "Beta"}, "64": {"stimulus": 374, "trial": 64, "rt": 839, "response": "Alpha"}, "49": {"stimulus": 718, "trial": 49, "rt": 813, "response": "Alpha"}, "66": {"stimulus": 2124, "trial": 66, "rt": 963, "response": "Beta"}, "67": {"stimulus": 2499, "trial": 67, "rt": 512, "response": "Beta"}, "68": {"stimulus": 1624, "trial": 68, "rt": 699, "response": "Beta"}, "69": {"stimulus": 2405, "trial": 69, "rt": 614, "response": "Beta"}, "80": {"stimulus": 1843, "trial": 80, "rt": 845, "response": "Beta"}, "52": {"stimulus": 1780, "trial": 52, "rt": 652, "response": "Beta"}, "53": {"stimulus": 1530, "trial": 53, "rt": 606, "response": "Beta"}, "24": {"stimulus": 1155, "trial": 24, "rt": 835, "response": "Beta"}, "25": {"stimulus": 749, "trial": 25, "rt": 571, "response": "Alpha"}, "26": {"stimulus": 593, "trial": 26, "rt": 539, "response": "Alpha"}, "27": {"stimulus": 2374, "trial": 27, "rt": 732, "response": "Beta"}, "20": {"stimulus": 2249, "trial": 20, "rt": 865, "response": "Beta"}, "21": {"stimulus": 1499, "trial": 21, "rt": 776, "response": "Beta"}, "22": {"stimulus": 280, "trial": 22, "rt": 633, "response": "Alpha"}, "23": {"stimulus": 187, "trial": 23, "rt": 735, "response": "Alpha"}, "46": {"stimulus": 812, "trial": 46, "rt": 1006, "response": "Alpha"}, "47": {"stimulus": 2343, "trial": 47, "rt": 848, "response": "Beta"}, "44": {"stimulus": 1655, "trial": 44, "rt": 710, "response": "Beta"}, "45": {"stimulus": 124, "trial": 45, "rt": 1142, "response": "Alpha"}, "28": {"stimulus": 1405, "trial": 28, "rt": 1280, "response": "Beta"}, "29": {"stimulus": 405, "trial": 29, "rt": 745, "response": "Alpha"}, "40": {"stimulus": 1968, "trial": 40, "rt": 812, "response": "Beta"}, "41": {"stimulus": 93, "trial": 41, "rt": 945, "response": "Alpha"}, "1": {"stimulus": 1468, "trial": 1, "rt": 1121, "response": "Beta"}, "0": {"stimulus": 437, "trial": 0, "rt": 4905, "response": "Alpha"}, "3": {"stimulus": 1937, "trial": 3, "rt": 907, "response": "Beta"}, "2": {"stimulus": 1562, "trial": 2, "rt": 2927, "response": "Beta"}, "5": {"stimulus": 1749, "trial": 5, "rt": 908, "response": "Beta"}, "4": {"stimulus": 312, "trial": 4, "rt": 1023, "response": "Alpha"}, "7": {"stimulus": 1905, "trial": 7, "rt": 879, "response": "Beta"}, "6": {"stimulus": 62, "trial": 6, "rt": 694, "response": "Alpha"}, "9": {"stimulus": 1030, "trial": 9, "rt": 760, "response": "Beta"}, "8": {"stimulus": 1280, "trial": 8, "rt": 680, "response": "Beta"}, "78": {"stimulus": 562, "trial": 78, "rt": 722, "response": "Alpha"}, "51": {"stimulus": 2093, "trial": 51, "rt": 883, "response": "Beta"}, "39": {"stimulus": 999, "trial": 39, "rt": 759, "response": "Alpha"}, "65": {"stimulus": 468, "trial": 65, "rt": 630, "response": "Alpha"}, "76": {"stimulus": 1218, "trial": 76, "rt": 2382, "response": "Alpha"}, "75": {"stimulus": 2218, "trial": 75, "rt": 1044, "response": "Beta"}, "38": {"stimulus": 30, "trial": 38, "rt": 1386, "response": "Alpha"}, "73": {"stimulus": 624, "trial": 73, "rt": 651, "response": "Alpha"}, "72": {"stimulus": 655, "trial": 72, "rt": 1033, "response": "Alpha"}, "71": {"stimulus": 843, "trial": 71, "rt": 1204, "response": "Beta"}, "70": {"stimulus": 1187, "trial": 70, "rt": 731, "response": "Beta"}, "59": {"stimulus": 2155, "trial": 59, "rt": 573, "response": "Beta"}, "79": {"stimulus": 530, "trial": 79, "rt": 1468, "response": "Alpha"}, "58": {"stimulus": 2468, "trial": 58, "rt": 1091, "response": "Beta"}, "11": {"stimulus": 937, "trial": 11, "rt": 1459, "response": "Alpha"}, "10": {"stimulus": 1343, "trial": 10, "rt": 879, "response": "Beta"}, "13": {"stimulus": 1437, "trial": 13, "rt": 1014, "response": "Beta"}, "12": {"stimulus": 2437, "trial": 12, "rt": 846, "response": "Beta"}, "15": {"stimulus": 905, "trial": 15, "rt": 493, "response": "Alpha"}, "14": {"stimulus": 155, "trial": 14, "rt": 677, "response": "Alpha"}, "17": {"stimulus": 687, "trial": 17, "rt": 582, "response": "Alpha"}, "16": {"stimulus": 1593, "trial": 16, "rt": 1435, "response": "Beta"}, "19": {"stimulus": 780, "trial": 19, "rt": 654, "response": "Alpha"}, "18": {"stimulus": 0, "trial": 18, "rt": 570, "response": "Alpha"}, "31": {"stimulus": 874, "trial": 31, "rt": 860, "response": "Alpha"}, "30": {"stimulus": 1249, "trial": 30, "rt": 933, "response": "Beta"}, "37": {"stimulus": 1874, "trial": 37, "rt": 863, "response": "Beta"}, "36": {"stimulus": 1718, "trial": 36, "rt": 649, "response": "Beta"}, "35": {"stimulus": 2187, "trial": 35, "rt": 695, "response": "Beta"}, "34": {"stimulus": 2312, "trial": 34, "rt": 728, "response": "Beta"}, "33": {"stimulus": 1124, "trial": 33, "rt": 902, "response": "Beta"}, "55": {"stimulus": 1093, "trial": 55, "rt": 977, "response": "Beta"}, "74": {"stimulus": 343, "trial": 74, "rt": 638, "response": "Alpha"}, "32": {"stimulus": 1999, "trial": 32, "rt": 836, "response": "Beta"}, "57": {"stimulus": 218, "trial": 57, "rt": 905, "response": "Alpha"}, "50": {"stimulus": 499, "trial": 50, "rt": 546, "response": "Alpha"}}, "experiment": {"Paradigm": "TACL", "Stimuli": "Size-Color Squares", "Experiment": "Generating-Multiple-Categories"}, "submit": {"timeTotal": 345061, "age": "21", "comments": "satisfactory", "sex": "Female"}}