{"info": {"finish": 1548042239691, "participant": 2, "exposed": true, "lab": true, "start": 1548042037932, "counterbalance": 7, "gentype": 1, "condition": "XOR", "browser": {"platform": "MacIntel", "userAgent": "Mozilla/5.0 (Macintosh; Intel Mac OS X 10.14; rv:64.0) Gecko/20100101 Firefox/64.0"}}, "observation": {"11": {"stimulus": 1479, "trial": 11, "rt": 1609}, "10": {"stimulus": 403, "trial": 10, "rt": 1512}, "1": {"stimulus": 1479, "trial": 1, "rt": 1442}, "0": {"stimulus": 1890, "trial": 0, "rt": 2322}, "3": {"stimulus": 403, "trial": 3, "rt": 1215}, "2": {"stimulus": 818, "trial": 2, "rt": 1395}, "5": {"stimulus": 1890, "trial": 5, "rt": 1222}, "4": {"stimulus": 818, "trial": 4, "rt": 1330}, "7": {"stimulus": 1479, "trial": 7, "rt": 1316}, "6": {"stimulus": 403, "trial": 6, "rt": 1387}, "9": {"stimulus": 818, "trial": 9, "rt": 1368}, "8": {"stimulus": 1890, "trial": 8, "rt": 1437}}, "generation": {"1": {"category": "Beta", "trial": 1, "stimulus": 808, "rt": 1933}, "0": {"category": "Beta", "trial": 0, "stimulus": 543, "rt": 4277}, "3": {"category": "Beta", "trial": 3, "stimulus": 2194, "rt": 1201}, "2": {"category": "Beta", "trial": 2, "stimulus": 1670, "rt": 1885}, "5": {"category": "Beta", "trial": 5, "stimulus": 1044, "rt": 2051}, "4": {"category": "Beta", "trial": 4, "stimulus": 2214, "rt": 1666}, "7": {"category": "Beta", "trial": 7, "stimulus": 1064, "rt": 2100}, "6": {"category": "Beta", "trial": 6, "stimulus": 2208, "rt": 1866}}, "generalization": {"56": {"stimulus": 2155, "trial": 56, "rt": 313, "response": "Beta"}, "77": {"stimulus": 1124, "trial": 77, "rt": 210, "response": "Beta"}, "54": {"stimulus": 249, "trial": 54, "rt": 483, "response": "Beta"}, "42": {"stimulus": 1374, "trial": 42, "rt": 326, "response": "Beta"}, "48": {"stimulus": 562, "trial": 48, "rt": 335, "response": "Beta"}, "43": {"stimulus": 374, "trial": 43, "rt": 204, "response": "Beta"}, "60": {"stimulus": 2405, "trial": 60, "rt": 381, "response": "Beta"}, "61": {"stimulus": 1218, "trial": 61, "rt": 346, "response": "Beta"}, "62": {"stimulus": 1499, "trial": 62, "rt": 350, "response": "Beta"}, "63": {"stimulus": 1655, "trial": 63, "rt": 574, "response": "Beta"}, "64": {"stimulus": 1749, "trial": 64, "rt": 544, "response": "Beta"}, "49": {"stimulus": 2187, "trial": 49, "rt": 347, "response": "Beta"}, "66": {"stimulus": 687, "trial": 66, "rt": 331, "response": "Beta"}, "67": {"stimulus": 1093, "trial": 67, "rt": 507, "response": "Beta"}, "68": {"stimulus": 1030, "trial": 68, "rt": 568, "response": "Beta"}, "69": {"stimulus": 1562, "trial": 69, "rt": 639, "response": "Beta"}, "80": {"stimulus": 1593, "trial": 80, "rt": 306, "response": "Beta"}, "52": {"stimulus": 1905, "trial": 52, "rt": 376, "response": "Beta"}, "53": {"stimulus": 405, "trial": 53, "rt": 408, "response": "Beta"}, "24": {"stimulus": 218, "trial": 24, "rt": 178, "response": "Beta"}, "25": {"stimulus": 874, "trial": 25, "rt": 338, "response": "Beta"}, "26": {"stimulus": 655, "trial": 26, "rt": 246, "response": "Beta"}, "27": {"stimulus": 812, "trial": 27, "rt": 354, "response": "Beta"}, "20": {"stimulus": 2093, "trial": 20, "rt": 241, "response": "Beta"}, "21": {"stimulus": 1530, "trial": 21, "rt": 367, "response": "Beta"}, "22": {"stimulus": 62, "trial": 22, "rt": 295, "response": "Beta"}, "23": {"stimulus": 905, "trial": 23, "rt": 299, "response": "Beta"}, "46": {"stimulus": 2030, "trial": 46, "rt": 185, "response": "Beta"}, "47": {"stimulus": 0, "trial": 47, "rt": 290, "response": "Beta"}, "44": {"stimulus": 1343, "trial": 44, "rt": 421, "response": "Beta"}, "45": {"stimulus": 2499, "trial": 45, "rt": 339, "response": "Beta"}, "28": {"stimulus": 468, "trial": 28, "rt": 284, "response": "Beta"}, "29": {"stimulus": 343, "trial": 29, "rt": 199, "response": "Beta"}, "40": {"stimulus": 718, "trial": 40, "rt": 667, "response": "Beta"}, "41": {"stimulus": 1687, "trial": 41, "rt": 328, "response": "Beta"}, "1": {"stimulus": 312, "trial": 1, "rt": 459, "response": "Beta"}, "0": {"stimulus": 1187, "trial": 0, "rt": 844, "response": "Beta"}, "3": {"stimulus": 968, "trial": 3, "rt": 352, "response": "Beta"}, "2": {"stimulus": 1812, "trial": 2, "rt": 302, "response": "Beta"}, "5": {"stimulus": 624, "trial": 5, "rt": 247, "response": "Alpha"}, "4": {"stimulus": 2062, "trial": 4, "rt": 295, "response": "Alpha"}, "7": {"stimulus": 1780, "trial": 7, "rt": 324, "response": "Alpha"}, "6": {"stimulus": 1468, "trial": 6, "rt": 341, "response": "Alpha"}, "9": {"stimulus": 2374, "trial": 9, "rt": 263, "response": "Alpha"}, "8": {"stimulus": 2218, "trial": 8, "rt": 312, "response": "Alpha"}, "78": {"stimulus": 2249, "trial": 78, "rt": 210, "response": "Beta"}, "51": {"stimulus": 124, "trial": 51, "rt": 314, "response": "Beta"}, "39": {"stimulus": 1937, "trial": 39, "rt": 235, "response": "Beta"}, "65": {"stimulus": 2343, "trial": 65, "rt": 408, "response": "Beta"}, "76": {"stimulus": 93, "trial": 76, "rt": 242, "response": "Beta"}, "75": {"stimulus": 2312, "trial": 75, "rt": 326, "response": "Beta"}, "38": {"stimulus": 1968, "trial": 38, "rt": 202, "response": "Beta"}, "73": {"stimulus": 499, "trial": 73, "rt": 713, "response": "Beta"}, "72": {"stimulus": 1718, "trial": 72, "rt": 1282, "response": "Beta"}, "71": {"stimulus": 999, "trial": 71, "rt": 962, "response": "Beta"}, "70": {"stimulus": 2124, "trial": 70, "rt": 665, "response": "Beta"}, "59": {"stimulus": 1062, "trial": 59, "rt": 350, "response": "Beta"}, "79": {"stimulus": 937, "trial": 79, "rt": 188, "response": "Beta"}, "58": {"stimulus": 1874, "trial": 58, "rt": 313, "response": "Beta"}, "11": {"stimulus": 1999, "trial": 11, "rt": 280, "response": "Alpha"}, "10": {"stimulus": 1843, "trial": 10, "rt": 332, "response": "Alpha"}, "13": {"stimulus": 593, "trial": 13, "rt": 237, "response": "Alpha"}, "12": {"stimulus": 1624, "trial": 12, "rt": 325, "response": "Alpha"}, "15": {"stimulus": 437, "trial": 15, "rt": 296, "response": "Alpha"}, "14": {"stimulus": 1405, "trial": 14, "rt": 315, "response": "Alpha"}, "17": {"stimulus": 1437, "trial": 17, "rt": 289, "response": "Beta"}, "16": {"stimulus": 1249, "trial": 16, "rt": 204, "response": "Alpha"}, "19": {"stimulus": 2280, "trial": 19, "rt": 277, "response": "Beta"}, "18": {"stimulus": 2468, "trial": 18, "rt": 277, "response": "Beta"}, "31": {"stimulus": 1280, "trial": 31, "rt": 312, "response": "Beta"}, "30": {"stimulus": 843, "trial": 30, "rt": 325, "response": "Beta"}, "37": {"stimulus": 30, "trial": 37, "rt": 277, "response": "Beta"}, "36": {"stimulus": 155, "trial": 36, "rt": 258, "response": "Beta"}, "35": {"stimulus": 1155, "trial": 35, "rt": 323, "response": "Beta"}, "34": {"stimulus": 280, "trial": 34, "rt": 287, "response": "Beta"}, "33": {"stimulus": 187, "trial": 33, "rt": 321, "response": "Beta"}, "55": {"stimulus": 749, "trial": 55, "rt": 395, "response": "Beta"}, "74": {"stimulus": 780, "trial": 74, "rt": 346, "response": "Beta"}, "32": {"stimulus": 1312, "trial": 32, "rt": 430, "response": "Beta"}, "57": {"stimulus": 530, "trial": 57, "rt": 164, "response": "Beta"}, "50": {"stimulus": 2437, "trial": 50, "rt": 336, "response": "Beta"}}, "experiment": {"Paradigm": "TACL", "Stimuli": "Size-Color Squares", "Experiment": "Generating-Multiple-Categories"}, "submit": {"timeTotal": 202402, "age": "45", "comments": "hello thar./", "sex": "hi"}}