{"info": {"finish": 1548092668605, "participant": 202, "exposed": true, "lab": false, "start": 1548092337108, "counterbalance": 4, "gentype": 0, "condition": "XOR", "browser": {"platform": "Win32", "userAgent": "Mozilla/5.0 (Windows NT 10.0; Win64; x64) AppleWebKit/537.36 (KHTML, like Gecko) Chrome/71.0.3578.98 Safari/537.36"}}, "observation": {"11": {"stimulus": 1890, "trial": 11, "rt": 2226}, "10": {"stimulus": 1479, "trial": 10, "rt": 2019}, "1": {"stimulus": 1479, "trial": 1, "rt": 3301}, "0": {"stimulus": 403, "trial": 0, "rt": 4624}, "3": {"stimulus": 1890, "trial": 3, "rt": 3335}, "2": {"stimulus": 818, "trial": 2, "rt": 2325}, "5": {"stimulus": 1479, "trial": 5, "rt": 2018}, "4": {"stimulus": 403, "trial": 4, "rt": 1861}, "7": {"stimulus": 818, "trial": 7, "rt": 2034}, "6": {"stimulus": 1890, "trial": 6, "rt": 2217}, "9": {"stimulus": 818, "trial": 9, "rt": 2233}, "8": {"stimulus": 403, "trial": 8, "rt": 2102}}, "generation": {"1": {"category": "Not-Alpha", "trial": 1, "stimulus": 920, "rt": 8519}, "0": {"category": "Not-Alpha", "trial": 0, "stimulus": 500, "rt": 18058}, "3": {"category": "Not-Alpha", "trial": 3, "stimulus": 849, "rt": 4894}, "2": {"category": "Not-Alpha", "trial": 2, "stimulus": 652, "rt": 5066}, "5": {"category": "Not-Alpha", "trial": 5, "stimulus": 0, "rt": 5181}, "4": {"category": "Not-Alpha", "trial": 4, "stimulus": 1022, "rt": 5164}, "7": {"category": "Not-Alpha", "trial": 7, "stimulus": 2099, "rt": 7131}, "6": {"category": "Not-Alpha", "trial": 6, "stimulus": 2450, "rt": 7440}}, "generalization": {"56": {"stimulus": 1405, "trial": 56, "rt": 896, "response": "Beta"}, "77": {"stimulus": 249, "trial": 77, "rt": 1049, "response": "Alpha"}, "54": {"stimulus": 1124, "trial": 54, "rt": 780, "response": "Beta"}, "42": {"stimulus": 1030, "trial": 42, "rt": 758, "response": "Beta"}, "48": {"stimulus": 2312, "trial": 48, "rt": 707, "response": "Beta"}, "43": {"stimulus": 1093, "trial": 43, "rt": 1032, "response": "Alpha"}, "60": {"stimulus": 655, "trial": 60, "rt": 916, "response": "Alpha"}, "61": {"stimulus": 843, "trial": 61, "rt": 719, "response": "Alpha"}, "62": {"stimulus": 1968, "trial": 62, "rt": 4429, "response": "Beta"}, "63": {"stimulus": 1624, "trial": 63, "rt": 799, "response": "Beta"}, "64": {"stimulus": 2124, "trial": 64, "rt": 721, "response": "Beta"}, "49": {"stimulus": 1843, "trial": 49, "rt": 820, "response": "Beta"}, "66": {"stimulus": 1343, "trial": 66, "rt": 1088, "response": "Alpha"}, "67": {"stimulus": 718, "trial": 67, "rt": 707, "response": "Alpha"}, "68": {"stimulus": 437, "trial": 68, "rt": 635, "response": "Alpha"}, "69": {"stimulus": 1812, "trial": 69, "rt": 798, "response": "Beta"}, "80": {"stimulus": 2405, "trial": 80, "rt": 719, "response": "Beta"}, "52": {"stimulus": 687, "trial": 52, "rt": 681, "response": "Alpha"}, "53": {"stimulus": 468, "trial": 53, "rt": 629, "response": "Alpha"}, "24": {"stimulus": 280, "trial": 24, "rt": 854, "response": "Alpha"}, "25": {"stimulus": 874, "trial": 25, "rt": 944, "response": "Alpha"}, "26": {"stimulus": 2062, "trial": 26, "rt": 833, "response": "Beta"}, "27": {"stimulus": 1593, "trial": 27, "rt": 1077, "response": "Beta"}, "20": {"stimulus": 187, "trial": 20, "rt": 1076, "response": "Alpha"}, "21": {"stimulus": 1562, "trial": 21, "rt": 861, "response": "Beta"}, "22": {"stimulus": 2343, "trial": 22, "rt": 864, "response": "Beta"}, "23": {"stimulus": 2280, "trial": 23, "rt": 838, "response": "Beta"}, "46": {"stimulus": 968, "trial": 46, "rt": 1286, "response": "Alpha"}, "47": {"stimulus": 1280, "trial": 47, "rt": 813, "response": "Beta"}, "44": {"stimulus": 93, "trial": 44, "rt": 705, "response": "Alpha"}, "45": {"stimulus": 2093, "trial": 45, "rt": 813, "response": "Beta"}, "28": {"stimulus": 405, "trial": 28, "rt": 780, "response": "Alpha"}, "29": {"stimulus": 1937, "trial": 29, "rt": 1030, "response": "Beta"}, "40": {"stimulus": 1062, "trial": 40, "rt": 659, "response": "Beta"}, "41": {"stimulus": 593, "trial": 41, "rt": 662, "response": "Beta"}, "1": {"stimulus": 2437, "trial": 1, "rt": 1296, "response": "Beta"}, "0": {"stimulus": 1905, "trial": 0, "rt": 2229, "response": "Beta"}, "3": {"stimulus": 1874, "trial": 3, "rt": 2942, "response": "Beta"}, "2": {"stimulus": 343, "trial": 2, "rt": 1142, "response": "Alpha"}, "5": {"stimulus": 62, "trial": 5, "rt": 975, "response": "Alpha"}, "4": {"stimulus": 2155, "trial": 4, "rt": 1059, "response": "Beta"}, "7": {"stimulus": 1780, "trial": 7, "rt": 1193, "response": "Beta"}, "6": {"stimulus": 1312, "trial": 6, "rt": 927, "response": "Beta"}, "9": {"stimulus": 937, "trial": 9, "rt": 1210, "response": "Beta"}, "8": {"stimulus": 1437, "trial": 8, "rt": 867, "response": "Beta"}, "78": {"stimulus": 562, "trial": 78, "rt": 963, "response": "Alpha"}, "51": {"stimulus": 780, "trial": 51, "rt": 1193, "response": "Alpha"}, "39": {"stimulus": 2499, "trial": 39, "rt": 719, "response": "Beta"}, "65": {"stimulus": 2218, "trial": 65, "rt": 903, "response": "Beta"}, "76": {"stimulus": 218, "trial": 76, "rt": 675, "response": "Alpha"}, "75": {"stimulus": 1187, "trial": 75, "rt": 912, "response": "Beta"}, "38": {"stimulus": 155, "trial": 38, "rt": 819, "response": "Alpha"}, "73": {"stimulus": 1718, "trial": 73, "rt": 876, "response": "Beta"}, "72": {"stimulus": 374, "trial": 72, "rt": 622, "response": "Alpha"}, "71": {"stimulus": 1155, "trial": 71, "rt": 827, "response": "Alpha"}, "70": {"stimulus": 1999, "trial": 70, "rt": 766, "response": "Beta"}, "59": {"stimulus": 2249, "trial": 59, "rt": 969, "response": "Beta"}, "79": {"stimulus": 999, "trial": 79, "rt": 743, "response": "Alpha"}, "58": {"stimulus": 312, "trial": 58, "rt": 682, "response": "Alpha"}, "11": {"stimulus": 812, "trial": 11, "rt": 1008, "response": "Alpha"}, "10": {"stimulus": 2187, "trial": 10, "rt": 1701, "response": "Beta"}, "13": {"stimulus": 624, "trial": 13, "rt": 2610, "response": "Alpha"}, "12": {"stimulus": 2374, "trial": 12, "rt": 845, "response": "Beta"}, "15": {"stimulus": 1687, "trial": 15, "rt": 750, "response": "Beta"}, "14": {"stimulus": 530, "trial": 14, "rt": 1313, "response": "Alpha"}, "17": {"stimulus": 1468, "trial": 17, "rt": 766, "response": "Beta"}, "16": {"stimulus": 1218, "trial": 16, "rt": 1047, "response": "Beta"}, "19": {"stimulus": 1749, "trial": 19, "rt": 4612, "response": "Beta"}, "18": {"stimulus": 749, "trial": 18, "rt": 1182, "response": "Alpha"}, "31": {"stimulus": 30, "trial": 31, "rt": 861, "response": "Alpha"}, "30": {"stimulus": 905, "trial": 30, "rt": 2877, "response": "Beta"}, "37": {"stimulus": 0, "trial": 37, "rt": 874, "response": "Alpha"}, "36": {"stimulus": 1530, "trial": 36, "rt": 748, "response": "Beta"}, "35": {"stimulus": 2468, "trial": 35, "rt": 708, "response": "Beta"}, "34": {"stimulus": 2030, "trial": 34, "rt": 1146, "response": "Beta"}, "33": {"stimulus": 124, "trial": 33, "rt": 801, "response": "Alpha"}, "55": {"stimulus": 1374, "trial": 55, "rt": 863, "response": "Beta"}, "74": {"stimulus": 499, "trial": 74, "rt": 840, "response": "Alpha"}, "32": {"stimulus": 1655, "trial": 32, "rt": 776, "response": "Beta"}, "57": {"stimulus": 1249, "trial": 57, "rt": 951, "response": "Beta"}, "50": {"stimulus": 1499, "trial": 50, "rt": 841, "response": "Beta"}}, "experiment": {"Paradigm": "TACL", "Stimuli": "Size-Color Squares", "Experiment": "Generating-Multiple-Categories"}, "submit": {"timeTotal": 331772, "age": "40", "comments": "none", "sex": "female"}}