{"info": {"finish": 1548095099326, "participant": 205, "exposed": true, "lab": false, "start": 1548094888213, "counterbalance": 4, "gentype": 1, "condition": "Cluster", "browser": {"platform": "Linux x86_64", "userAgent": "Mozilla/5.0 (X11; CrOS x86_64 11151.59.0) AppleWebKit/537.36 (KHTML, like Gecko) Chrome/71.0.3578.94 Safari/537.36"}}, "observation": {"11": {"stimulus": 1083, "trial": 11, "rt": 1733}, "10": {"stimulus": 392, "trial": 10, "rt": 1439}, "1": {"stimulus": 1083, "trial": 1, "rt": 2432}, "0": {"stimulus": 1093, "trial": 0, "rt": 7221}, "3": {"stimulus": 583, "trial": 3, "rt": 1705}, "2": {"stimulus": 392, "trial": 2, "rt": 2238}, "5": {"stimulus": 583, "trial": 5, "rt": 1459}, "4": {"stimulus": 1083, "trial": 4, "rt": 1504}, "7": {"stimulus": 392, "trial": 7, "rt": 1427}, "6": {"stimulus": 1093, "trial": 6, "rt": 1272}, "9": {"stimulus": 583, "trial": 9, "rt": 1389}, "8": {"stimulus": 1093, "trial": 8, "rt": 1318}}, "generation": {"1": {"category": "Beta", "trial": 1, "stimulus": 818, "rt": 5000}, "0": {"category": "Beta", "trial": 0, "stimulus": 969, "rt": 7531}, "3": {"category": "Beta", "trial": 3, "stimulus": 557, "rt": 5124}, "2": {"category": "Beta", "trial": 2, "stimulus": 1155, "rt": 4100}, "5": {"category": "Beta", "trial": 5, "stimulus": 158, "rt": 4443}, "4": {"category": "Beta", "trial": 4, "stimulus": 555, "rt": 2470}, "7": {"category": "Beta", "trial": 7, "stimulus": 805, "rt": 2400}, "6": {"category": "Beta", "trial": 6, "stimulus": 2255, "rt": 3613}}, "generalization": {"56": {"stimulus": 1843, "trial": 56, "rt": 703, "response": "Alpha"}, "77": {"stimulus": 749, "trial": 77, "rt": 150, "response": "Beta"}, "54": {"stimulus": 1468, "trial": 54, "rt": 298, "response": "Beta"}, "42": {"stimulus": 2218, "trial": 42, "rt": 365, "response": "Beta"}, "48": {"stimulus": 30, "trial": 48, "rt": 179, "response": "Alpha"}, "43": {"stimulus": 1530, "trial": 43, "rt": 342, "response": "Alpha"}, "60": {"stimulus": 280, "trial": 60, "rt": 270, "response": "Beta"}, "61": {"stimulus": 155, "trial": 61, "rt": 232, "response": "Beta"}, "62": {"stimulus": 2343, "trial": 62, "rt": 215, "response": "Beta"}, "63": {"stimulus": 2405, "trial": 63, "rt": 146, "response": "Alpha"}, "64": {"stimulus": 2155, "trial": 64, "rt": 180, "response": "Alpha"}, "49": {"stimulus": 2312, "trial": 49, "rt": 509, "response": "Beta"}, "66": {"stimulus": 1780, "trial": 66, "rt": 658, "response": "Beta"}, "67": {"stimulus": 468, "trial": 67, "rt": 847, "response": "Alpha"}, "68": {"stimulus": 1624, "trial": 68, "rt": 202, "response": "Beta"}, "69": {"stimulus": 2187, "trial": 69, "rt": 132, "response": "Alpha"}, "80": {"stimulus": 780, "trial": 80, "rt": 184, "response": "Alpha"}, "52": {"stimulus": 562, "trial": 52, "rt": 337, "response": "Beta"}, "53": {"stimulus": 0, "trial": 53, "rt": 983, "response": "Alpha"}, "24": {"stimulus": 968, "trial": 24, "rt": 649, "response": "Beta"}, "25": {"stimulus": 593, "trial": 25, "rt": 329, "response": "Alpha"}, "26": {"stimulus": 1312, "trial": 26, "rt": 236, "response": "Beta"}, "27": {"stimulus": 2468, "trial": 27, "rt": 295, "response": "Alpha"}, "20": {"stimulus": 1155, "trial": 20, "rt": 370, "response": "Beta"}, "21": {"stimulus": 1405, "trial": 21, "rt": 392, "response": "Beta"}, "22": {"stimulus": 2280, "trial": 22, "rt": 346, "response": "Beta"}, "23": {"stimulus": 812, "trial": 23, "rt": 929, "response": "Alpha"}, "46": {"stimulus": 687, "trial": 46, "rt": 175, "response": "Beta"}, "47": {"stimulus": 1937, "trial": 47, "rt": 247, "response": "Beta"}, "44": {"stimulus": 624, "trial": 44, "rt": 333, "response": "Beta"}, "45": {"stimulus": 249, "trial": 45, "rt": 126, "response": "Alpha"}, "28": {"stimulus": 187, "trial": 28, "rt": 354, "response": "Alpha"}, "29": {"stimulus": 530, "trial": 29, "rt": 435, "response": "Alpha"}, "40": {"stimulus": 999, "trial": 40, "rt": 285, "response": "Alpha"}, "41": {"stimulus": 2093, "trial": 41, "rt": 198, "response": "Beta"}, "1": {"stimulus": 437, "trial": 1, "rt": 941, "response": "Alpha"}, "0": {"stimulus": 937, "trial": 0, "rt": 2218, "response": "Alpha"}, "3": {"stimulus": 1249, "trial": 3, "rt": 330, "response": "Alpha"}, "2": {"stimulus": 1030, "trial": 2, "rt": 351, "response": "Alpha"}, "5": {"stimulus": 1124, "trial": 5, "rt": 315, "response": "Alpha"}, "4": {"stimulus": 1187, "trial": 4, "rt": 277, "response": "Alpha"}, "7": {"stimulus": 1812, "trial": 7, "rt": 549, "response": "Beta"}, "6": {"stimulus": 1749, "trial": 6, "rt": 523, "response": "Beta"}, "9": {"stimulus": 1562, "trial": 9, "rt": 454, "response": "Beta"}, "8": {"stimulus": 905, "trial": 8, "rt": 649, "response": "Beta"}, "78": {"stimulus": 1905, "trial": 78, "rt": 224, "response": "Alpha"}, "51": {"stimulus": 1437, "trial": 51, "rt": 130, "response": "Alpha"}, "39": {"stimulus": 1968, "trial": 39, "rt": 125, "response": "Alpha"}, "65": {"stimulus": 1062, "trial": 65, "rt": 159, "response": "Alpha"}, "76": {"stimulus": 124, "trial": 76, "rt": 186, "response": "Alpha"}, "75": {"stimulus": 874, "trial": 75, "rt": 1028, "response": "Alpha"}, "38": {"stimulus": 374, "trial": 38, "rt": 239, "response": "Beta"}, "73": {"stimulus": 1999, "trial": 73, "rt": 125, "response": "Beta"}, "72": {"stimulus": 718, "trial": 72, "rt": 115, "response": "Alpha"}, "71": {"stimulus": 1280, "trial": 71, "rt": 321, "response": "Beta"}, "70": {"stimulus": 1093, "trial": 70, "rt": 244, "response": "Alpha"}, "59": {"stimulus": 1718, "trial": 59, "rt": 156, "response": "Beta"}, "79": {"stimulus": 1499, "trial": 79, "rt": 345, "response": "Beta"}, "58": {"stimulus": 2030, "trial": 58, "rt": 288, "response": "Alpha"}, "11": {"stimulus": 1655, "trial": 11, "rt": 205, "response": "Alpha"}, "10": {"stimulus": 1374, "trial": 10, "rt": 428, "response": "Beta"}, "13": {"stimulus": 499, "trial": 13, "rt": 290, "response": "Beta"}, "12": {"stimulus": 2062, "trial": 12, "rt": 1296, "response": "Beta"}, "15": {"stimulus": 218, "trial": 15, "rt": 804, "response": "Alpha"}, "14": {"stimulus": 2374, "trial": 14, "rt": 327, "response": "Alpha"}, "17": {"stimulus": 2249, "trial": 17, "rt": 619, "response": "Beta"}, "16": {"stimulus": 1343, "trial": 16, "rt": 884, "response": "Beta"}, "19": {"stimulus": 405, "trial": 19, "rt": 962, "response": "Beta"}, "18": {"stimulus": 655, "trial": 18, "rt": 866, "response": "Beta"}, "31": {"stimulus": 312, "trial": 31, "rt": 562, "response": "Beta"}, "30": {"stimulus": 62, "trial": 30, "rt": 970, "response": "Alpha"}, "37": {"stimulus": 343, "trial": 37, "rt": 1181, "response": "Alpha"}, "36": {"stimulus": 2124, "trial": 36, "rt": 227, "response": "Beta"}, "35": {"stimulus": 1874, "trial": 35, "rt": 319, "response": "Alpha"}, "34": {"stimulus": 1218, "trial": 34, "rt": 207, "response": "Beta"}, "33": {"stimulus": 1593, "trial": 33, "rt": 292, "response": "Beta"}, "55": {"stimulus": 2499, "trial": 55, "rt": 332, "response": "Beta"}, "74": {"stimulus": 2437, "trial": 74, "rt": 123, "response": "Beta"}, "32": {"stimulus": 843, "trial": 32, "rt": 326, "response": "Alpha"}, "57": {"stimulus": 1687, "trial": 57, "rt": 240, "response": "Beta"}, "50": {"stimulus": 93, "trial": 50, "rt": 183, "response": "Alpha"}}, "experiment": {"Paradigm": "TACL", "Stimuli": "Size-Color Squares", "Experiment": "Generating-Multiple-Categories"}, "submit": {"timeTotal": 211324, "age": "34", "comments": "", "sex": "Brian t Turner"}}