{"info": {"finish": 1548096593820, "participant": 206, "exposed": true, "lab": false, "start": 1548096286843, "counterbalance": 7, "gentype": 2, "condition": "Row", "browser": {"platform": "Win32", "userAgent": "Mozilla/5.0 (Windows NT 10.0; Win64; x64) AppleWebKit/537.36 (KHTML, like Gecko) Chrome/71.0.3578.98 Safari/537.36"}}, "observation": {"11": {"stimulus": 612, "trial": 11, "rt": 1367}, "10": {"stimulus": 582, "trial": 10, "rt": 1358}, "1": {"stimulus": 421, "trial": 1, "rt": 1383}, "0": {"stimulus": 493, "trial": 0, "rt": 2145}, "3": {"stimulus": 582, "trial": 3, "rt": 5485}, "2": {"stimulus": 612, "trial": 2, "rt": 1439}, "5": {"stimulus": 612, "trial": 5, "rt": 1523}, "4": {"stimulus": 582, "trial": 4, "rt": 2298}, "7": {"stimulus": 421, "trial": 7, "rt": 1364}, "6": {"stimulus": 493, "trial": 6, "rt": 1167}, "9": {"stimulus": 493, "trial": 9, "rt": 1336}, "8": {"stimulus": 421, "trial": 8, "rt": 1403}}, "generation": {"1": {"category": "Beta", "trial": 1, "stimulus": 2484, "rt": 5816}, "0": {"category": "Beta", "trial": 0, "stimulus": 2453, "rt": 12325}, "3": {"category": "Beta", "trial": 3, "stimulus": 2475, "rt": 3962}, "2": {"category": "Beta", "trial": 2, "stimulus": 2459, "rt": 4544}, "5": {"category": "Gamma", "trial": 5, "stimulus": 22, "rt": 3488}, "4": {"category": "Gamma", "trial": 4, "stimulus": 13, "rt": 4323}, "7": {"category": "Gamma", "trial": 7, "stimulus": 35, "rt": 3759}, "6": {"category": "Gamma", "trial": 6, "stimulus": 0, "rt": 4262}}, "generalization": {"56": {"stimulus": 1030, "trial": 56, "rt": 1340, "response": "Beta"}, "77": {"stimulus": 1187, "trial": 77, "rt": 2245, "response": "Gamma"}, "54": {"stimulus": 2374, "trial": 54, "rt": 757, "response": "Beta"}, "42": {"stimulus": 1718, "trial": 42, "rt": 1060, "response": "Beta"}, "48": {"stimulus": 187, "trial": 48, "rt": 730, "response": "Gamma"}, "43": {"stimulus": 2093, "trial": 43, "rt": 2911, "response": "Alpha"}, "60": {"stimulus": 1374, "trial": 60, "rt": 798, "response": "Beta"}, "61": {"stimulus": 843, "trial": 61, "rt": 915, "response": "Gamma"}, "62": {"stimulus": 2280, "trial": 62, "rt": 699, "response": "Beta"}, "63": {"stimulus": 749, "trial": 63, "rt": 937, "response": "Gamma"}, "64": {"stimulus": 999, "trial": 64, "rt": 1061, "response": "Beta"}, "49": {"stimulus": 0, "trial": 49, "rt": 729, "response": "Gamma"}, "66": {"stimulus": 1968, "trial": 66, "rt": 16000, "response": "Beta"}, "67": {"stimulus": 93, "trial": 67, "rt": 2221, "response": "Gamma"}, "68": {"stimulus": 1093, "trial": 68, "rt": 3879, "response": "Alpha"}, "69": {"stimulus": 874, "trial": 69, "rt": 1629, "response": "Gamma"}, "80": {"stimulus": 1999, "trial": 80, "rt": 871, "response": "Alpha"}, "52": {"stimulus": 1062, "trial": 52, "rt": 1417, "response": "Alpha"}, "53": {"stimulus": 2062, "trial": 53, "rt": 641, "response": "Beta"}, "24": {"stimulus": 1468, "trial": 24, "rt": 910, "response": "Alpha"}, "25": {"stimulus": 1499, "trial": 25, "rt": 1020, "response": "Alpha"}, "26": {"stimulus": 655, "trial": 26, "rt": 669, "response": "Alpha"}, "27": {"stimulus": 1312, "trial": 27, "rt": 1137, "response": "Alpha"}, "20": {"stimulus": 2155, "trial": 20, "rt": 654, "response": "Beta"}, "21": {"stimulus": 1812, "trial": 21, "rt": 815, "response": "Beta"}, "22": {"stimulus": 2187, "trial": 22, "rt": 591, "response": "Beta"}, "23": {"stimulus": 530, "trial": 23, "rt": 1215, "response": "Gamma"}, "46": {"stimulus": 624, "trial": 46, "rt": 1818, "response": "Beta"}, "47": {"stimulus": 593, "trial": 47, "rt": 965, "response": "Gamma"}, "44": {"stimulus": 2030, "trial": 44, "rt": 1730, "response": "Alpha"}, "45": {"stimulus": 1905, "trial": 45, "rt": 765, "response": "Alpha"}, "28": {"stimulus": 2405, "trial": 28, "rt": 586, "response": "Beta"}, "29": {"stimulus": 2249, "trial": 29, "rt": 851, "response": "Beta"}, "40": {"stimulus": 2218, "trial": 40, "rt": 1889, "response": "Gamma"}, "41": {"stimulus": 905, "trial": 41, "rt": 987, "response": "Beta"}, "1": {"stimulus": 155, "trial": 1, "rt": 775, "response": "Alpha"}, "0": {"stimulus": 374, "trial": 0, "rt": 2297, "response": "Alpha"}, "3": {"stimulus": 1937, "trial": 3, "rt": 1231, "response": "Beta"}, "2": {"stimulus": 280, "trial": 2, "rt": 440, "response": "Alpha"}, "5": {"stimulus": 124, "trial": 5, "rt": 920, "response": "Alpha"}, "4": {"stimulus": 1874, "trial": 4, "rt": 938, "response": "Beta"}, "7": {"stimulus": 1655, "trial": 7, "rt": 778, "response": "Beta"}, "6": {"stimulus": 968, "trial": 6, "rt": 2176, "response": "Alpha"}, "9": {"stimulus": 1343, "trial": 9, "rt": 907, "response": "Beta"}, "8": {"stimulus": 312, "trial": 8, "rt": 1760, "response": "Gamma"}, "78": {"stimulus": 62, "trial": 78, "rt": 1358, "response": "Gamma"}, "51": {"stimulus": 2343, "trial": 51, "rt": 614, "response": "Beta"}, "39": {"stimulus": 1749, "trial": 39, "rt": 1454, "response": "Beta"}, "65": {"stimulus": 1780, "trial": 65, "rt": 858, "response": "Beta"}, "76": {"stimulus": 1249, "trial": 76, "rt": 767, "response": "Beta"}, "75": {"stimulus": 218, "trial": 75, "rt": 669, "response": "Alpha"}, "38": {"stimulus": 812, "trial": 38, "rt": 755, "response": "Alpha"}, "73": {"stimulus": 499, "trial": 73, "rt": 2206, "response": "Alpha"}, "72": {"stimulus": 2437, "trial": 72, "rt": 903, "response": "Beta"}, "71": {"stimulus": 687, "trial": 71, "rt": 655, "response": "Gamma"}, "70": {"stimulus": 468, "trial": 70, "rt": 6117, "response": "Gamma"}, "59": {"stimulus": 718, "trial": 59, "rt": 1479, "response": "Gamma"}, "79": {"stimulus": 1155, "trial": 79, "rt": 1039, "response": "Beta"}, "58": {"stimulus": 1687, "trial": 58, "rt": 720, "response": "Beta"}, "11": {"stimulus": 2124, "trial": 11, "rt": 1050, "response": "Beta"}, "10": {"stimulus": 562, "trial": 10, "rt": 675, "response": "Gamma"}, "13": {"stimulus": 249, "trial": 13, "rt": 533, "response": "Gamma"}, "12": {"stimulus": 780, "trial": 12, "rt": 611, "response": "Gamma"}, "15": {"stimulus": 1124, "trial": 15, "rt": 634, "response": "Gamma"}, "14": {"stimulus": 1562, "trial": 14, "rt": 785, "response": "Alpha"}, "17": {"stimulus": 1437, "trial": 17, "rt": 6528, "response": "Beta"}, "16": {"stimulus": 1405, "trial": 16, "rt": 1461, "response": "Beta"}, "19": {"stimulus": 437, "trial": 19, "rt": 1074, "response": "Alpha"}, "18": {"stimulus": 2312, "trial": 18, "rt": 841, "response": "Beta"}, "31": {"stimulus": 1593, "trial": 31, "rt": 493, "response": "Alpha"}, "30": {"stimulus": 343, "trial": 30, "rt": 681, "response": "Gamma"}, "37": {"stimulus": 1280, "trial": 37, "rt": 562, "response": "Alpha"}, "36": {"stimulus": 405, "trial": 36, "rt": 1035, "response": "Gamma"}, "35": {"stimulus": 1624, "trial": 35, "rt": 908, "response": "Beta"}, "34": {"stimulus": 1843, "trial": 34, "rt": 494, "response": "Beta"}, "33": {"stimulus": 1530, "trial": 33, "rt": 1140, "response": "Alpha"}, "55": {"stimulus": 937, "trial": 55, "rt": 1123, "response": "Gamma"}, "74": {"stimulus": 2499, "trial": 74, "rt": 636, "response": "Gamma"}, "32": {"stimulus": 30, "trial": 32, "rt": 971, "response": "Gamma"}, "57": {"stimulus": 1218, "trial": 57, "rt": 864, "response": "Beta"}, "50": {"stimulus": 2468, "trial": 50, "rt": 1249, "response": "Beta"}}, "experiment": {"Paradigm": "TACL", "Stimuli": "Size-Color Squares", "Experiment": "Generating-Multiple-Categories"}, "submit": {"timeTotal": 307207, "age": "27", "comments": "Some sort of college experiment involving the perceptions of humans", "sex": "Taylor Maak"}}