{"info": {"finish": 1548099379795, "participant": 208, "exposed": true, "lab": false, "start": 1548099078242, "counterbalance": 7, "gentype": 1, "condition": "Row", "browser": {"platform": "Win32", "userAgent": "Mozilla/5.0 (Windows NT 10.0; Win64; x64) AppleWebKit/537.36 (KHTML, like Gecko) Chrome/71.0.3578.98 Safari/537.36"}}, "observation": {"11": {"stimulus": 493, "trial": 11, "rt": 2123}, "10": {"stimulus": 421, "trial": 10, "rt": 9930}, "1": {"stimulus": 493, "trial": 1, "rt": 2152}, "0": {"stimulus": 582, "trial": 0, "rt": 6438}, "3": {"stimulus": 612, "trial": 3, "rt": 1807}, "2": {"stimulus": 421, "trial": 2, "rt": 1793}, "5": {"stimulus": 582, "trial": 5, "rt": 1375}, "4": {"stimulus": 493, "trial": 4, "rt": 1181}, "7": {"stimulus": 612, "trial": 7, "rt": 1261}, "6": {"stimulus": 421, "trial": 6, "rt": 1290}, "9": {"stimulus": 582, "trial": 9, "rt": 2164}, "8": {"stimulus": 612, "trial": 8, "rt": 1205}}, "generation": {"1": {"category": "Beta", "trial": 1, "stimulus": 0, "rt": 7869}, "0": {"category": "Beta", "trial": 0, "stimulus": 50, "rt": 10208}, "3": {"category": "Beta", "trial": 3, "stimulus": 2450, "rt": 3803}, "2": {"category": "Beta", "trial": 2, "stimulus": 4, "rt": 4753}, "5": {"category": "Beta", "trial": 5, "stimulus": 2204, "rt": 4667}, "4": {"category": "Beta", "trial": 4, "stimulus": 2200, "rt": 1674}, "7": {"category": "Beta", "trial": 7, "stimulus": 2462, "rt": 3080}, "6": {"category": "Beta", "trial": 6, "stimulus": 2208, "rt": 3690}}, "generalization": {"56": {"stimulus": 1187, "trial": 56, "rt": 720, "response": "Alpha"}, "77": {"stimulus": 1249, "trial": 77, "rt": 2801, "response": "Beta"}, "54": {"stimulus": 499, "trial": 54, "rt": 482, "response": "Beta"}, "42": {"stimulus": 749, "trial": 42, "rt": 781, "response": "Beta"}, "48": {"stimulus": 2312, "trial": 48, "rt": 605, "response": "Alpha"}, "43": {"stimulus": 843, "trial": 43, "rt": 659, "response": "Beta"}, "60": {"stimulus": 2218, "trial": 60, "rt": 983, "response": "Alpha"}, "61": {"stimulus": 2155, "trial": 61, "rt": 885, "response": "Beta"}, "62": {"stimulus": 1843, "trial": 62, "rt": 898, "response": "Beta"}, "63": {"stimulus": 1624, "trial": 63, "rt": 765, "response": "Alpha"}, "64": {"stimulus": 468, "trial": 64, "rt": 702, "response": "Alpha"}, "49": {"stimulus": 2374, "trial": 49, "rt": 703, "response": "Alpha"}, "66": {"stimulus": 2468, "trial": 66, "rt": 589, "response": "Alpha"}, "67": {"stimulus": 218, "trial": 67, "rt": 681, "response": "Alpha"}, "68": {"stimulus": 2437, "trial": 68, "rt": 1030, "response": "Beta"}, "69": {"stimulus": 0, "trial": 69, "rt": 1135, "response": "Beta"}, "80": {"stimulus": 1218, "trial": 80, "rt": 10393, "response": "Beta"}, "52": {"stimulus": 1280, "trial": 52, "rt": 782, "response": "Alpha"}, "53": {"stimulus": 2093, "trial": 53, "rt": 705, "response": "Beta"}, "24": {"stimulus": 2280, "trial": 24, "rt": 756, "response": "Alpha"}, "25": {"stimulus": 1437, "trial": 25, "rt": 929, "response": "Alpha"}, "26": {"stimulus": 312, "trial": 26, "rt": 2171, "response": "Alpha"}, "27": {"stimulus": 530, "trial": 27, "rt": 758, "response": "Alpha"}, "20": {"stimulus": 655, "trial": 20, "rt": 1588, "response": "Alpha"}, "21": {"stimulus": 1030, "trial": 21, "rt": 2127, "response": "Alpha"}, "22": {"stimulus": 905, "trial": 22, "rt": 2324, "response": "Alpha"}, "23": {"stimulus": 1874, "trial": 23, "rt": 665, "response": "Alpha"}, "46": {"stimulus": 1812, "trial": 46, "rt": 1622, "response": "Alpha"}, "47": {"stimulus": 1312, "trial": 47, "rt": 681, "response": "Alpha"}, "44": {"stimulus": 1562, "trial": 44, "rt": 835, "response": "Alpha"}, "45": {"stimulus": 1749, "trial": 45, "rt": 726, "response": "Beta"}, "28": {"stimulus": 1530, "trial": 28, "rt": 2140, "response": "Beta"}, "29": {"stimulus": 1124, "trial": 29, "rt": 976, "response": "Beta"}, "40": {"stimulus": 343, "trial": 40, "rt": 811, "response": "Beta"}, "41": {"stimulus": 1718, "trial": 41, "rt": 3137, "response": "Alpha"}, "1": {"stimulus": 374, "trial": 1, "rt": 865, "response": "Alpha"}, "0": {"stimulus": 155, "trial": 0, "rt": 4815, "response": "Beta"}, "3": {"stimulus": 812, "trial": 3, "rt": 1198, "response": "Alpha"}, "2": {"stimulus": 1405, "trial": 2, "rt": 1730, "response": "Beta"}, "5": {"stimulus": 2499, "trial": 5, "rt": 2031, "response": "Beta"}, "4": {"stimulus": 1687, "trial": 4, "rt": 1042, "response": "Alpha"}, "7": {"stimulus": 1780, "trial": 7, "rt": 579, "response": "Alpha"}, "6": {"stimulus": 874, "trial": 6, "rt": 551, "response": "Alpha"}, "9": {"stimulus": 1905, "trial": 9, "rt": 1203, "response": "Beta"}, "8": {"stimulus": 187, "trial": 8, "rt": 1530, "response": "Alpha"}, "78": {"stimulus": 1655, "trial": 78, "rt": 1398, "response": "Beta"}, "51": {"stimulus": 2030, "trial": 51, "rt": 876, "response": "Alpha"}, "39": {"stimulus": 624, "trial": 39, "rt": 589, "response": "Alpha"}, "65": {"stimulus": 718, "trial": 65, "rt": 549, "response": "Alpha"}, "76": {"stimulus": 937, "trial": 76, "rt": 2572, "response": "Alpha"}, "75": {"stimulus": 405, "trial": 75, "rt": 1475, "response": "Beta"}, "38": {"stimulus": 1468, "trial": 38, "rt": 657, "response": "Alpha"}, "73": {"stimulus": 1343, "trial": 73, "rt": 2518, "response": "Beta"}, "72": {"stimulus": 62, "trial": 72, "rt": 1188, "response": "Beta"}, "71": {"stimulus": 30, "trial": 71, "rt": 5952, "response": "Alpha"}, "70": {"stimulus": 1937, "trial": 70, "rt": 812, "response": "Beta"}, "59": {"stimulus": 1374, "trial": 59, "rt": 805, "response": "Alpha"}, "79": {"stimulus": 968, "trial": 79, "rt": 1450, "response": "Beta"}, "58": {"stimulus": 1093, "trial": 58, "rt": 720, "response": "Beta"}, "11": {"stimulus": 999, "trial": 11, "rt": 788, "response": "Beta"}, "10": {"stimulus": 687, "trial": 10, "rt": 2102, "response": "Beta"}, "13": {"stimulus": 2405, "trial": 13, "rt": 2184, "response": "Beta"}, "12": {"stimulus": 2249, "trial": 12, "rt": 587, "response": "Beta"}, "15": {"stimulus": 2187, "trial": 15, "rt": 973, "response": "Beta"}, "14": {"stimulus": 249, "trial": 14, "rt": 844, "response": "Beta"}, "17": {"stimulus": 1999, "trial": 17, "rt": 975, "response": "Beta"}, "16": {"stimulus": 1968, "trial": 16, "rt": 921, "response": "Alpha"}, "19": {"stimulus": 2343, "trial": 19, "rt": 972, "response": "Beta"}, "18": {"stimulus": 1062, "trial": 18, "rt": 889, "response": "Alpha"}, "31": {"stimulus": 593, "trial": 31, "rt": 512, "response": "Beta"}, "30": {"stimulus": 93, "trial": 30, "rt": 980, "response": "Beta"}, "37": {"stimulus": 562, "trial": 37, "rt": 722, "response": "Alpha"}, "36": {"stimulus": 2062, "trial": 36, "rt": 1852, "response": "Beta"}, "35": {"stimulus": 1593, "trial": 35, "rt": 735, "response": "Beta"}, "34": {"stimulus": 780, "trial": 34, "rt": 1390, "response": "Alpha"}, "33": {"stimulus": 1499, "trial": 33, "rt": 826, "response": "Beta"}, "55": {"stimulus": 1155, "trial": 55, "rt": 1143, "response": "Beta"}, "74": {"stimulus": 124, "trial": 74, "rt": 6675, "response": "Alpha"}, "32": {"stimulus": 280, "trial": 32, "rt": 1307, "response": "Alpha"}, "57": {"stimulus": 437, "trial": 57, "rt": 1090, "response": "Beta"}, "50": {"stimulus": 2124, "trial": 50, "rt": 727, "response": "Alpha"}}, "experiment": {"Paradigm": "TACL", "Stimuli": "Size-Color Squares", "Experiment": "Generating-Multiple-Categories"}, "submit": {"timeTotal": 301830, "age": "27", "comments": "no issues, great hit", "sex": "male"}}