{"info": {"finish": 1548099420810, "participant": 209, "exposed": true, "lab": false, "start": 1548099095711, "counterbalance": 7, "gentype": 0, "condition": "Row", "browser": {"platform": "Win32", "userAgent": "Mozilla/5.0 (Windows NT 10.0; Win64; x64) AppleWebKit/537.36 (KHTML, like Gecko) Chrome/71.0.3578.98 Safari/537.36"}}, "observation": {"11": {"stimulus": 493, "trial": 11, "rt": 2808}, "10": {"stimulus": 582, "trial": 10, "rt": 2627}, "1": {"stimulus": 493, "trial": 1, "rt": 3023}, "0": {"stimulus": 612, "trial": 0, "rt": 5397}, "3": {"stimulus": 421, "trial": 3, "rt": 1705}, "2": {"stimulus": 582, "trial": 2, "rt": 1714}, "5": {"stimulus": 582, "trial": 5, "rt": 1453}, "4": {"stimulus": 493, "trial": 4, "rt": 1447}, "7": {"stimulus": 421, "trial": 7, "rt": 1461}, "6": {"stimulus": 612, "trial": 6, "rt": 2322}, "9": {"stimulus": 612, "trial": 9, "rt": 2009}, "8": {"stimulus": 421, "trial": 8, "rt": 1350}}, "generation": {"1": {"category": "Not-Alpha", "trial": 1, "stimulus": 49, "rt": 14160}, "0": {"category": "Not-Alpha", "trial": 0, "stimulus": 0, "rt": 28094}, "3": {"category": "Not-Alpha", "trial": 3, "stimulus": 38, "rt": 5828}, "2": {"category": "Not-Alpha", "trial": 2, "stimulus": 25, "rt": 7337}, "5": {"category": "Not-Alpha", "trial": 5, "stimulus": 197, "rt": 10050}, "4": {"category": "Not-Alpha", "trial": 4, "stimulus": 9, "rt": 7194}, "7": {"category": "Not-Alpha", "trial": 7, "stimulus": 11, "rt": 5726}, "6": {"category": "Not-Alpha", "trial": 6, "stimulus": 27, "rt": 9344}}, "generalization": {"56": {"stimulus": 968, "trial": 56, "rt": 417, "response": "Beta"}, "77": {"stimulus": 1843, "trial": 77, "rt": 1050, "response": "Alpha"}, "54": {"stimulus": 780, "trial": 54, "rt": 599, "response": "Beta"}, "42": {"stimulus": 2218, "trial": 42, "rt": 1311, "response": "Alpha"}, "48": {"stimulus": 1999, "trial": 48, "rt": 4915, "response": "Alpha"}, "43": {"stimulus": 1687, "trial": 43, "rt": 1463, "response": "Alpha"}, "60": {"stimulus": 530, "trial": 60, "rt": 923, "response": "Beta"}, "61": {"stimulus": 562, "trial": 61, "rt": 617, "response": "Beta"}, "62": {"stimulus": 812, "trial": 62, "rt": 569, "response": "Beta"}, "63": {"stimulus": 843, "trial": 63, "rt": 621, "response": "Beta"}, "64": {"stimulus": 0, "trial": 64, "rt": 600, "response": "Beta"}, "49": {"stimulus": 718, "trial": 49, "rt": 1122, "response": "Beta"}, "66": {"stimulus": 1218, "trial": 66, "rt": 1270, "response": "Beta"}, "67": {"stimulus": 62, "trial": 67, "rt": 485, "response": "Beta"}, "68": {"stimulus": 905, "trial": 68, "rt": 499, "response": "Beta"}, "69": {"stimulus": 187, "trial": 69, "rt": 434, "response": "Beta"}, "80": {"stimulus": 2062, "trial": 80, "rt": 623, "response": "Alpha"}, "52": {"stimulus": 1874, "trial": 52, "rt": 860, "response": "Alpha"}, "53": {"stimulus": 280, "trial": 53, "rt": 872, "response": "Beta"}, "24": {"stimulus": 2312, "trial": 24, "rt": 915, "response": "Alpha"}, "25": {"stimulus": 2093, "trial": 25, "rt": 699, "response": "Alpha"}, "26": {"stimulus": 1437, "trial": 26, "rt": 778, "response": "Beta"}, "27": {"stimulus": 2468, "trial": 27, "rt": 1130, "response": "Alpha"}, "20": {"stimulus": 1249, "trial": 20, "rt": 1185, "response": "Beta"}, "21": {"stimulus": 999, "trial": 21, "rt": 747, "response": "Beta"}, "22": {"stimulus": 343, "trial": 22, "rt": 722, "response": "Beta"}, "23": {"stimulus": 218, "trial": 23, "rt": 2143, "response": "Beta"}, "46": {"stimulus": 1312, "trial": 46, "rt": 715, "response": "Beta"}, "47": {"stimulus": 1937, "trial": 47, "rt": 1037, "response": "Alpha"}, "44": {"stimulus": 874, "trial": 44, "rt": 797, "response": "Beta"}, "45": {"stimulus": 1655, "trial": 45, "rt": 771, "response": "Beta"}, "28": {"stimulus": 937, "trial": 28, "rt": 688, "response": "Beta"}, "29": {"stimulus": 2437, "trial": 29, "rt": 1544, "response": "Alpha"}, "40": {"stimulus": 1030, "trial": 40, "rt": 1080, "response": "Beta"}, "41": {"stimulus": 1468, "trial": 41, "rt": 541, "response": "Beta"}, "1": {"stimulus": 1905, "trial": 1, "rt": 1078, "response": "Beta"}, "0": {"stimulus": 2499, "trial": 0, "rt": 2752, "response": "Alpha"}, "3": {"stimulus": 2280, "trial": 3, "rt": 2405, "response": "Beta"}, "2": {"stimulus": 1530, "trial": 2, "rt": 1084, "response": "Beta"}, "5": {"stimulus": 2249, "trial": 5, "rt": 1145, "response": "Alpha"}, "4": {"stimulus": 437, "trial": 4, "rt": 879, "response": "Beta"}, "7": {"stimulus": 468, "trial": 7, "rt": 814, "response": "Beta"}, "6": {"stimulus": 1374, "trial": 6, "rt": 988, "response": "Beta"}, "9": {"stimulus": 374, "trial": 9, "rt": 625, "response": "Beta"}, "8": {"stimulus": 624, "trial": 8, "rt": 751, "response": "Beta"}, "78": {"stimulus": 655, "trial": 78, "rt": 976, "response": "Beta"}, "51": {"stimulus": 249, "trial": 51, "rt": 928, "response": "Beta"}, "39": {"stimulus": 1562, "trial": 39, "rt": 835, "response": "Alpha"}, "65": {"stimulus": 1124, "trial": 65, "rt": 627, "response": "Beta"}, "76": {"stimulus": 687, "trial": 76, "rt": 732, "response": "Beta"}, "75": {"stimulus": 1093, "trial": 75, "rt": 534, "response": "Alpha"}, "38": {"stimulus": 1624, "trial": 38, "rt": 821, "response": "Alpha"}, "73": {"stimulus": 1749, "trial": 73, "rt": 740, "response": "Alpha"}, "72": {"stimulus": 30, "trial": 72, "rt": 759, "response": "Beta"}, "71": {"stimulus": 2030, "trial": 71, "rt": 605, "response": "Alpha"}, "70": {"stimulus": 1812, "trial": 70, "rt": 852, "response": "Alpha"}, "59": {"stimulus": 1280, "trial": 59, "rt": 451, "response": "Alpha"}, "79": {"stimulus": 2187, "trial": 79, "rt": 860, "response": "Alpha"}, "58": {"stimulus": 1593, "trial": 58, "rt": 557, "response": "Alpha"}, "11": {"stimulus": 1187, "trial": 11, "rt": 862, "response": "Beta"}, "10": {"stimulus": 499, "trial": 10, "rt": 576, "response": "Beta"}, "13": {"stimulus": 2405, "trial": 13, "rt": 1091, "response": "Alpha"}, "12": {"stimulus": 1155, "trial": 12, "rt": 700, "response": "Beta"}, "15": {"stimulus": 593, "trial": 15, "rt": 743, "response": "Beta"}, "14": {"stimulus": 93, "trial": 14, "rt": 865, "response": "Beta"}, "17": {"stimulus": 2124, "trial": 17, "rt": 898, "response": "Alpha"}, "16": {"stimulus": 1343, "trial": 16, "rt": 743, "response": "Beta"}, "19": {"stimulus": 1968, "trial": 19, "rt": 1029, "response": "Alpha"}, "18": {"stimulus": 312, "trial": 18, "rt": 584, "response": "Beta"}, "31": {"stimulus": 1780, "trial": 31, "rt": 1659, "response": "Beta"}, "30": {"stimulus": 1405, "trial": 30, "rt": 1187, "response": "Beta"}, "37": {"stimulus": 405, "trial": 37, "rt": 556, "response": "Beta"}, "36": {"stimulus": 124, "trial": 36, "rt": 709, "response": "Beta"}, "35": {"stimulus": 749, "trial": 35, "rt": 926, "response": "Beta"}, "34": {"stimulus": 2374, "trial": 34, "rt": 810, "response": "Alpha"}, "33": {"stimulus": 2155, "trial": 33, "rt": 701, "response": "Alpha"}, "55": {"stimulus": 1062, "trial": 55, "rt": 659, "response": "Beta"}, "74": {"stimulus": 1718, "trial": 74, "rt": 492, "response": "Alpha"}, "32": {"stimulus": 155, "trial": 32, "rt": 1174, "response": "Beta"}, "57": {"stimulus": 1499, "trial": 57, "rt": 1727, "response": "Alpha"}, "50": {"stimulus": 2343, "trial": 50, "rt": 1135, "response": "Alpha"}}, "experiment": {"Paradigm": "TACL", "Stimuli": "Size-Color Squares", "Experiment": "Generating-Multiple-Categories"}, "submit": {"timeTotal": 325303, "age": "38", "comments": "", "sex": "female"}}