{"info": {"finish": 1548099629557, "participant": 210, "exposed": true, "lab": false, "start": 1548099103517, "counterbalance": 4, "gentype": 0, "condition": "Cluster", "browser": {"platform": "Win32", "userAgent": "Mozilla/5.0 (Windows NT 10.0; Win64; x64) AppleWebKit/537.36 (KHTML, like Gecko) Chrome/71.0.3578.98 Safari/537.36"}}, "observation": {"11": {"stimulus": 1083, "trial": 11, "rt": 1647}, "10": {"stimulus": 1093, "trial": 10, "rt": 2290}, "1": {"stimulus": 1083, "trial": 1, "rt": 1931}, "0": {"stimulus": 392, "trial": 0, "rt": 2837}, "3": {"stimulus": 583, "trial": 3, "rt": 1818}, "2": {"stimulus": 1093, "trial": 2, "rt": 2083}, "5": {"stimulus": 583, "trial": 5, "rt": 1894}, "4": {"stimulus": 392, "trial": 4, "rt": 1778}, "7": {"stimulus": 1083, "trial": 7, "rt": 1931}, "6": {"stimulus": 1093, "trial": 6, "rt": 1906}, "9": {"stimulus": 583, "trial": 9, "rt": 1902}, "8": {"stimulus": 392, "trial": 8, "rt": 2464}}, "generation": {"1": {"category": "Not-Alpha", "trial": 1, "stimulus": 255, "rt": 6528}, "0": {"category": "Not-Alpha", "trial": 0, "stimulus": 262, "rt": 9654}, "3": {"category": "Not-Alpha", "trial": 3, "stimulus": 258, "rt": 182333}, "2": {"category": "Not-Alpha", "trial": 2, "stimulus": 251, "rt": 8877}, "5": {"category": "Not-Alpha", "trial": 5, "stimulus": 260, "rt": 9085}, "4": {"category": "Not-Alpha", "trial": 4, "stimulus": 257, "rt": 4966}, "7": {"category": "Not-Alpha", "trial": 7, "stimulus": 259, "rt": 8278}, "6": {"category": "Not-Alpha", "trial": 6, "stimulus": 253, "rt": 50876}}, "generalization": {"56": {"stimulus": 343, "trial": 56, "rt": 830, "response": "Alpha"}, "77": {"stimulus": 155, "trial": 77, "rt": 1335, "response": "Beta"}, "54": {"stimulus": 1187, "trial": 54, "rt": 715, "response": "Alpha"}, "42": {"stimulus": 999, "trial": 42, "rt": 784, "response": "Alpha"}, "48": {"stimulus": 1062, "trial": 48, "rt": 1138, "response": "Alpha"}, "43": {"stimulus": 1999, "trial": 43, "rt": 847, "response": "Alpha"}, "60": {"stimulus": 1655, "trial": 60, "rt": 1471, "response": "Beta"}, "61": {"stimulus": 2249, "trial": 61, "rt": 1215, "response": "Alpha"}, "62": {"stimulus": 1312, "trial": 62, "rt": 942, "response": "Alpha"}, "63": {"stimulus": 2155, "trial": 63, "rt": 4970, "response": "Beta"}, "64": {"stimulus": 2499, "trial": 64, "rt": 4910, "response": "Alpha"}, "49": {"stimulus": 1155, "trial": 49, "rt": 2129, "response": "Beta"}, "66": {"stimulus": 1249, "trial": 66, "rt": 755, "response": "Alpha"}, "67": {"stimulus": 2343, "trial": 67, "rt": 736, "response": "Alpha"}, "68": {"stimulus": 937, "trial": 68, "rt": 1119, "response": "Alpha"}, "69": {"stimulus": 2280, "trial": 69, "rt": 2290, "response": "Alpha"}, "80": {"stimulus": 874, "trial": 80, "rt": 799, "response": "Alpha"}, "52": {"stimulus": 1374, "trial": 52, "rt": 1327, "response": "Alpha"}, "53": {"stimulus": 968, "trial": 53, "rt": 839, "response": "Alpha"}, "24": {"stimulus": 530, "trial": 24, "rt": 747, "response": "Alpha"}, "25": {"stimulus": 2374, "trial": 25, "rt": 784, "response": "Alpha"}, "26": {"stimulus": 405, "trial": 26, "rt": 720, "response": "Alpha"}, "27": {"stimulus": 780, "trial": 27, "rt": 663, "response": "Alpha"}, "20": {"stimulus": 1718, "trial": 20, "rt": 811, "response": "Alpha"}, "21": {"stimulus": 2124, "trial": 21, "rt": 747, "response": "Alpha"}, "22": {"stimulus": 562, "trial": 22, "rt": 852, "response": "Alpha"}, "23": {"stimulus": 1749, "trial": 23, "rt": 699, "response": "Alpha"}, "46": {"stimulus": 2062, "trial": 46, "rt": 1147, "response": "Alpha"}, "47": {"stimulus": 1124, "trial": 47, "rt": 1015, "response": "Alpha"}, "44": {"stimulus": 312, "trial": 44, "rt": 1072, "response": "Alpha"}, "45": {"stimulus": 2437, "trial": 45, "rt": 871, "response": "Alpha"}, "28": {"stimulus": 1843, "trial": 28, "rt": 774, "response": "Alpha"}, "29": {"stimulus": 1437, "trial": 29, "rt": 775, "response": "Alpha"}, "40": {"stimulus": 124, "trial": 40, "rt": 802, "response": "Alpha"}, "41": {"stimulus": 843, "trial": 41, "rt": 811, "response": "Alpha"}, "1": {"stimulus": 718, "trial": 1, "rt": 910, "response": "Alpha"}, "0": {"stimulus": 1530, "trial": 0, "rt": 1934, "response": "Alpha"}, "3": {"stimulus": 687, "trial": 3, "rt": 680, "response": "Alpha"}, "2": {"stimulus": 2312, "trial": 2, "rt": 1098, "response": "Alpha"}, "5": {"stimulus": 1812, "trial": 5, "rt": 611, "response": "Alpha"}, "4": {"stimulus": 624, "trial": 4, "rt": 810, "response": "Alpha"}, "7": {"stimulus": 1968, "trial": 7, "rt": 784, "response": "Alpha"}, "6": {"stimulus": 249, "trial": 6, "rt": 751, "response": "Alpha"}, "9": {"stimulus": 593, "trial": 9, "rt": 632, "response": "Alpha"}, "8": {"stimulus": 1499, "trial": 8, "rt": 615, "response": "Alpha"}, "78": {"stimulus": 499, "trial": 78, "rt": 1581, "response": "Alpha"}, "51": {"stimulus": 1405, "trial": 51, "rt": 1603, "response": "Beta"}, "39": {"stimulus": 280, "trial": 39, "rt": 675, "response": "Alpha"}, "65": {"stimulus": 1780, "trial": 65, "rt": 901, "response": "Alpha"}, "76": {"stimulus": 437, "trial": 76, "rt": 936, "response": "Alpha"}, "75": {"stimulus": 655, "trial": 75, "rt": 1335, "response": "Beta"}, "38": {"stimulus": 93, "trial": 38, "rt": 863, "response": "Alpha"}, "73": {"stimulus": 1874, "trial": 73, "rt": 654, "response": "Alpha"}, "72": {"stimulus": 1468, "trial": 72, "rt": 1114, "response": "Alpha"}, "71": {"stimulus": 468, "trial": 71, "rt": 1877, "response": "Alpha"}, "70": {"stimulus": 1280, "trial": 70, "rt": 1035, "response": "Alpha"}, "59": {"stimulus": 2093, "trial": 59, "rt": 685, "response": "Alpha"}, "79": {"stimulus": 30, "trial": 79, "rt": 835, "response": "Alpha"}, "58": {"stimulus": 749, "trial": 58, "rt": 1002, "response": "Alpha"}, "11": {"stimulus": 1593, "trial": 11, "rt": 731, "response": "Alpha"}, "10": {"stimulus": 2030, "trial": 10, "rt": 723, "response": "Alpha"}, "13": {"stimulus": 905, "trial": 13, "rt": 1453, "response": "Beta"}, "12": {"stimulus": 187, "trial": 12, "rt": 770, "response": "Alpha"}, "15": {"stimulus": 1687, "trial": 15, "rt": 723, "response": "Alpha"}, "14": {"stimulus": 1343, "trial": 14, "rt": 1338, "response": "Alpha"}, "17": {"stimulus": 1624, "trial": 17, "rt": 723, "response": "Alpha"}, "16": {"stimulus": 2218, "trial": 16, "rt": 879, "response": "Alpha"}, "19": {"stimulus": 1030, "trial": 19, "rt": 1345, "response": "Alpha"}, "18": {"stimulus": 1905, "trial": 18, "rt": 1366, "response": "Beta"}, "31": {"stimulus": 2468, "trial": 31, "rt": 811, "response": "Alpha"}, "30": {"stimulus": 812, "trial": 30, "rt": 764, "response": "Alpha"}, "37": {"stimulus": 1093, "trial": 37, "rt": 708, "response": "Alpha"}, "36": {"stimulus": 2405, "trial": 36, "rt": 2340, "response": "Beta"}, "35": {"stimulus": 1218, "trial": 35, "rt": 860, "response": "Alpha"}, "34": {"stimulus": 1562, "trial": 34, "rt": 823, "response": "Alpha"}, "33": {"stimulus": 62, "trial": 33, "rt": 1118, "response": "Alpha"}, "55": {"stimulus": 1937, "trial": 55, "rt": 874, "response": "Alpha"}, "74": {"stimulus": 2187, "trial": 74, "rt": 780, "response": "Alpha"}, "32": {"stimulus": 374, "trial": 32, "rt": 724, "response": "Alpha"}, "57": {"stimulus": 0, "trial": 57, "rt": 1321, "response": "Beta"}, "50": {"stimulus": 218, "trial": 50, "rt": 1285, "response": "Alpha"}}, "experiment": {"Paradigm": "TACL", "Stimuli": "Size-Color Squares", "Experiment": "Generating-Multiple-Categories"}, "submit": {"timeTotal": 526429, "age": "25", "comments": "", "sex": "female"}}