{"info": {"finish": 1548099476455, "participant": 211, "exposed": true, "lab": false, "start": 1548099108185, "counterbalance": 5, "gentype": 2, "condition": "Row", "browser": {"platform": "Win32", "userAgent": "Mozilla/5.0 (Windows NT 10.0; Win64; x64) AppleWebKit/537.36 (KHTML, like Gecko) Chrome/71.0.3578.98 Safari/537.36"}}, "observation": {"11": {"stimulus": 421, "trial": 11, "rt": 1853}, "10": {"stimulus": 493, "trial": 10, "rt": 1909}, "1": {"stimulus": 493, "trial": 1, "rt": 2308}, "0": {"stimulus": 582, "trial": 0, "rt": 4479}, "3": {"stimulus": 421, "trial": 3, "rt": 2627}, "2": {"stimulus": 612, "trial": 2, "rt": 2105}, "5": {"stimulus": 493, "trial": 5, "rt": 1918}, "4": {"stimulus": 612, "trial": 4, "rt": 1960}, "7": {"stimulus": 421, "trial": 7, "rt": 6399}, "6": {"stimulus": 582, "trial": 6, "rt": 2012}, "9": {"stimulus": 582, "trial": 9, "rt": 1455}, "8": {"stimulus": 612, "trial": 8, "rt": 2071}}, "generation": {"1": {"category": "Beta", "trial": 1, "stimulus": 2150, "rt": 10949}, "0": {"category": "Beta", "trial": 0, "stimulus": 850, "rt": 16762}, "3": {"category": "Beta", "trial": 3, "stimulus": 1300, "rt": 7248}, "2": {"category": "Beta", "trial": 2, "stimulus": 0, "rt": 8568}, "5": {"category": "Gamma", "trial": 5, "stimulus": 2483, "rt": 7060}, "4": {"category": "Gamma", "trial": 4, "stimulus": 2499, "rt": 12797}, "7": {"category": "Gamma", "trial": 7, "stimulus": 2459, "rt": 7338}, "6": {"category": "Gamma", "trial": 6, "stimulus": 2469, "rt": 5783}}, "generalization": {"56": {"stimulus": 249, "trial": 56, "rt": 815, "response": "Alpha"}, "77": {"stimulus": 1437, "trial": 77, "rt": 2094, "response": "Beta"}, "54": {"stimulus": 1812, "trial": 54, "rt": 1206, "response": "Gamma"}, "42": {"stimulus": 1218, "trial": 42, "rt": 1443, "response": "Beta"}, "48": {"stimulus": 1874, "trial": 48, "rt": 791, "response": "Gamma"}, "43": {"stimulus": 780, "trial": 43, "rt": 1686, "response": "Alpha"}, "60": {"stimulus": 1905, "trial": 60, "rt": 629, "response": "Beta"}, "61": {"stimulus": 905, "trial": 61, "rt": 1526, "response": "Alpha"}, "62": {"stimulus": 655, "trial": 62, "rt": 926, "response": "Alpha"}, "63": {"stimulus": 1624, "trial": 63, "rt": 1228, "response": "Beta"}, "64": {"stimulus": 2280, "trial": 64, "rt": 1134, "response": "Gamma"}, "49": {"stimulus": 1780, "trial": 49, "rt": 1077, "response": "Gamma"}, "66": {"stimulus": 2093, "trial": 66, "rt": 1638, "response": "Gamma"}, "67": {"stimulus": 1687, "trial": 67, "rt": 948, "response": "Gamma"}, "68": {"stimulus": 1749, "trial": 68, "rt": 849, "response": "Gamma"}, "69": {"stimulus": 312, "trial": 69, "rt": 1062, "response": "Alpha"}, "80": {"stimulus": 1187, "trial": 80, "rt": 1109, "response": "Beta"}, "52": {"stimulus": 1468, "trial": 52, "rt": 609, "response": "Beta"}, "53": {"stimulus": 749, "trial": 53, "rt": 2542, "response": "Alpha"}, "24": {"stimulus": 343, "trial": 24, "rt": 807, "response": "Alpha"}, "25": {"stimulus": 2249, "trial": 25, "rt": 976, "response": "Gamma"}, "26": {"stimulus": 530, "trial": 26, "rt": 1269, "response": "Alpha"}, "27": {"stimulus": 1718, "trial": 27, "rt": 4875, "response": "Beta"}, "20": {"stimulus": 2405, "trial": 20, "rt": 944, "response": "Gamma"}, "21": {"stimulus": 999, "trial": 21, "rt": 1052, "response": "Beta"}, "22": {"stimulus": 1843, "trial": 22, "rt": 2496, "response": "Gamma"}, "23": {"stimulus": 468, "trial": 23, "rt": 1054, "response": "Alpha"}, "46": {"stimulus": 1062, "trial": 46, "rt": 1123, "response": "Beta"}, "47": {"stimulus": 1593, "trial": 47, "rt": 691, "response": "Gamma"}, "44": {"stimulus": 593, "trial": 44, "rt": 848, "response": "Alpha"}, "45": {"stimulus": 30, "trial": 45, "rt": 1016, "response": "Alpha"}, "28": {"stimulus": 1093, "trial": 28, "rt": 1829, "response": "Beta"}, "29": {"stimulus": 2343, "trial": 29, "rt": 1173, "response": "Gamma"}, "40": {"stimulus": 1155, "trial": 40, "rt": 839, "response": "Beta"}, "41": {"stimulus": 1937, "trial": 41, "rt": 1200, "response": "Beta"}, "1": {"stimulus": 1030, "trial": 1, "rt": 2685, "response": "Gamma"}, "0": {"stimulus": 124, "trial": 0, "rt": 1722, "response": "Alpha"}, "3": {"stimulus": 2468, "trial": 3, "rt": 1561, "response": "Gamma"}, "2": {"stimulus": 1999, "trial": 2, "rt": 1076, "response": "Gamma"}, "5": {"stimulus": 1280, "trial": 5, "rt": 1470, "response": "Alpha"}, "4": {"stimulus": 2187, "trial": 4, "rt": 1077, "response": "Gamma"}, "7": {"stimulus": 687, "trial": 7, "rt": 1142, "response": "Alpha"}, "6": {"stimulus": 437, "trial": 6, "rt": 1038, "response": "Alpha"}, "9": {"stimulus": 2437, "trial": 9, "rt": 866, "response": "Gamma"}, "8": {"stimulus": 874, "trial": 8, "rt": 2504, "response": "Beta"}, "78": {"stimulus": 1562, "trial": 78, "rt": 957, "response": "Beta"}, "51": {"stimulus": 1374, "trial": 51, "rt": 698, "response": "Beta"}, "39": {"stimulus": 2312, "trial": 39, "rt": 1461, "response": "Gamma"}, "65": {"stimulus": 0, "trial": 65, "rt": 1155, "response": "Alpha"}, "76": {"stimulus": 1249, "trial": 76, "rt": 1084, "response": "Beta"}, "75": {"stimulus": 937, "trial": 75, "rt": 1488, "response": "Beta"}, "38": {"stimulus": 280, "trial": 38, "rt": 1493, "response": "Alpha"}, "73": {"stimulus": 2124, "trial": 73, "rt": 788, "response": "Gamma"}, "72": {"stimulus": 2062, "trial": 72, "rt": 949, "response": "Gamma"}, "71": {"stimulus": 812, "trial": 71, "rt": 1839, "response": "Beta"}, "70": {"stimulus": 1499, "trial": 70, "rt": 925, "response": "Beta"}, "59": {"stimulus": 1655, "trial": 59, "rt": 1123, "response": "Beta"}, "79": {"stimulus": 187, "trial": 79, "rt": 965, "response": "Alpha"}, "58": {"stimulus": 155, "trial": 58, "rt": 910, "response": "Alpha"}, "11": {"stimulus": 718, "trial": 11, "rt": 909, "response": "Alpha"}, "10": {"stimulus": 624, "trial": 10, "rt": 960, "response": "Alpha"}, "13": {"stimulus": 218, "trial": 13, "rt": 932, "response": "Alpha"}, "12": {"stimulus": 2030, "trial": 12, "rt": 989, "response": "Gamma"}, "15": {"stimulus": 2218, "trial": 15, "rt": 925, "response": "Gamma"}, "14": {"stimulus": 1968, "trial": 14, "rt": 904, "response": "Gamma"}, "17": {"stimulus": 1405, "trial": 17, "rt": 828, "response": "Beta"}, "16": {"stimulus": 374, "trial": 16, "rt": 1172, "response": "Alpha"}, "19": {"stimulus": 2499, "trial": 19, "rt": 821, "response": "Gamma"}, "18": {"stimulus": 843, "trial": 18, "rt": 911, "response": "Alpha"}, "31": {"stimulus": 2155, "trial": 31, "rt": 1597, "response": "Gamma"}, "30": {"stimulus": 1312, "trial": 30, "rt": 750, "response": "Beta"}, "37": {"stimulus": 1343, "trial": 37, "rt": 1023, "response": "Beta"}, "36": {"stimulus": 405, "trial": 36, "rt": 1014, "response": "Alpha"}, "35": {"stimulus": 1530, "trial": 35, "rt": 1055, "response": "Beta"}, "34": {"stimulus": 62, "trial": 34, "rt": 862, "response": "Alpha"}, "33": {"stimulus": 562, "trial": 33, "rt": 998, "response": "Alpha"}, "55": {"stimulus": 968, "trial": 55, "rt": 957, "response": "Beta"}, "74": {"stimulus": 93, "trial": 74, "rt": 965, "response": "Alpha"}, "32": {"stimulus": 499, "trial": 32, "rt": 1159, "response": "Alpha"}, "57": {"stimulus": 2374, "trial": 57, "rt": 1021, "response": "Gamma"}, "50": {"stimulus": 1124, "trial": 50, "rt": 911, "response": "Beta"}}, "experiment": {"Paradigm": "TACL", "Stimuli": "Size-Color Squares", "Experiment": "Generating-Multiple-Categories"}, "submit": {"timeTotal": 368538, "age": "36", "comments": "", "sex": "Female"}}