{"info": {"finish": 1548100699914, "participant": 218, "exposed": true, "lab": false, "start": 1548100454667, "counterbalance": 4, "gentype": 0, "condition": "Cluster", "browser": {"platform": "Win32", "userAgent": "Mozilla/5.0 (Windows NT 6.1; Win64; x64) AppleWebKit/537.36 (KHTML, like Gecko) Chrome/71.0.3578.98 Safari/537.36"}}, "observation": {"11": {"stimulus": 392, "trial": 11, "rt": 2720}, "10": {"stimulus": 1083, "trial": 10, "rt": 1591}, "1": {"stimulus": 392, "trial": 1, "rt": 2034}, "0": {"stimulus": 1093, "trial": 0, "rt": 4727}, "3": {"stimulus": 583, "trial": 3, "rt": 1839}, "2": {"stimulus": 1083, "trial": 2, "rt": 2251}, "5": {"stimulus": 583, "trial": 5, "rt": 2473}, "4": {"stimulus": 1093, "trial": 4, "rt": 1380}, "7": {"stimulus": 392, "trial": 7, "rt": 1439}, "6": {"stimulus": 1083, "trial": 6, "rt": 1406}, "9": {"stimulus": 583, "trial": 9, "rt": 1463}, "8": {"stimulus": 1093, "trial": 8, "rt": 1415}}, "generation": {"1": {"category": "Not-Alpha", "trial": 1, "stimulus": 1611, "rt": 3421}, "0": {"category": "Not-Alpha", "trial": 0, "stimulus": 2450, "rt": 6635}, "3": {"category": "Not-Alpha", "trial": 3, "stimulus": 1563, "rt": 3215}, "2": {"category": "Not-Alpha", "trial": 2, "stimulus": 1, "rt": 4809}, "5": {"category": "Not-Alpha", "trial": 5, "stimulus": 1864, "rt": 3520}, "4": {"category": "Not-Alpha", "trial": 4, "stimulus": 13, "rt": 2871}, "7": {"category": "Not-Alpha", "trial": 7, "stimulus": 152, "rt": 2995}, "6": {"category": "Not-Alpha", "trial": 6, "stimulus": 1669, "rt": 2948}}, "generalization": {"56": {"stimulus": 718, "trial": 56, "rt": 475, "response": "Beta"}, "77": {"stimulus": 1780, "trial": 77, "rt": 464, "response": "Alpha"}, "54": {"stimulus": 1905, "trial": 54, "rt": 703, "response": "Beta"}, "42": {"stimulus": 2030, "trial": 42, "rt": 360, "response": "Alpha"}, "48": {"stimulus": 2374, "trial": 48, "rt": 630, "response": "Beta"}, "43": {"stimulus": 1687, "trial": 43, "rt": 327, "response": "Alpha"}, "60": {"stimulus": 2062, "trial": 60, "rt": 509, "response": "Beta"}, "61": {"stimulus": 593, "trial": 61, "rt": 897, "response": "Alpha"}, "62": {"stimulus": 124, "trial": 62, "rt": 1508, "response": "Alpha"}, "63": {"stimulus": 1562, "trial": 63, "rt": 632, "response": "Beta"}, "64": {"stimulus": 624, "trial": 64, "rt": 545, "response": "Beta"}, "49": {"stimulus": 2187, "trial": 49, "rt": 407, "response": "Beta"}, "66": {"stimulus": 1749, "trial": 66, "rt": 416, "response": "Alpha"}, "67": {"stimulus": 655, "trial": 67, "rt": 1014, "response": "Beta"}, "68": {"stimulus": 1499, "trial": 68, "rt": 658, "response": "Alpha"}, "69": {"stimulus": 999, "trial": 69, "rt": 394, "response": "Alpha"}, "80": {"stimulus": 218, "trial": 80, "rt": 472, "response": "Beta"}, "52": {"stimulus": 2499, "trial": 52, "rt": 419, "response": "Alpha"}, "53": {"stimulus": 93, "trial": 53, "rt": 433, "response": "Alpha"}, "24": {"stimulus": 1624, "trial": 24, "rt": 438, "response": "Alpha"}, "25": {"stimulus": 1655, "trial": 25, "rt": 517, "response": "Beta"}, "26": {"stimulus": 562, "trial": 26, "rt": 543, "response": "Beta"}, "27": {"stimulus": 2280, "trial": 27, "rt": 714, "response": "Alpha"}, "20": {"stimulus": 2312, "trial": 20, "rt": 726, "response": "Beta"}, "21": {"stimulus": 249, "trial": 21, "rt": 666, "response": "Alpha"}, "22": {"stimulus": 1093, "trial": 22, "rt": 481, "response": "Alpha"}, "23": {"stimulus": 530, "trial": 23, "rt": 439, "response": "Alpha"}, "46": {"stimulus": 2405, "trial": 46, "rt": 654, "response": "Beta"}, "47": {"stimulus": 1218, "trial": 47, "rt": 463, "response": "Beta"}, "44": {"stimulus": 905, "trial": 44, "rt": 273, "response": "Alpha"}, "45": {"stimulus": 1280, "trial": 45, "rt": 856, "response": "Alpha"}, "28": {"stimulus": 1187, "trial": 28, "rt": 540, "response": "Alpha"}, "29": {"stimulus": 499, "trial": 29, "rt": 429, "response": "Alpha"}, "40": {"stimulus": 30, "trial": 40, "rt": 377, "response": "Alpha"}, "41": {"stimulus": 437, "trial": 41, "rt": 413, "response": "Alpha"}, "1": {"stimulus": 187, "trial": 1, "rt": 421, "response": "Alpha"}, "0": {"stimulus": 1343, "trial": 0, "rt": 1169, "response": "Alpha"}, "3": {"stimulus": 812, "trial": 3, "rt": 1033, "response": "Beta"}, "2": {"stimulus": 1155, "trial": 2, "rt": 689, "response": "Beta"}, "5": {"stimulus": 1999, "trial": 5, "rt": 486, "response": "Alpha"}, "4": {"stimulus": 2343, "trial": 4, "rt": 901, "response": "Alpha"}, "7": {"stimulus": 2155, "trial": 7, "rt": 516, "response": "Beta"}, "6": {"stimulus": 312, "trial": 6, "rt": 701, "response": "Beta"}, "9": {"stimulus": 155, "trial": 9, "rt": 654, "response": "Beta"}, "8": {"stimulus": 968, "trial": 8, "rt": 4680, "response": "Beta"}, "78": {"stimulus": 2468, "trial": 78, "rt": 762, "response": "Beta"}, "51": {"stimulus": 937, "trial": 51, "rt": 766, "response": "Alpha"}, "39": {"stimulus": 1937, "trial": 39, "rt": 759, "response": "Alpha"}, "65": {"stimulus": 1437, "trial": 65, "rt": 704, "response": "Alpha"}, "76": {"stimulus": 749, "trial": 76, "rt": 715, "response": "Alpha"}, "75": {"stimulus": 2124, "trial": 75, "rt": 766, "response": "Beta"}, "38": {"stimulus": 1374, "trial": 38, "rt": 653, "response": "Beta"}, "73": {"stimulus": 1874, "trial": 73, "rt": 421, "response": "Beta"}, "72": {"stimulus": 1405, "trial": 72, "rt": 416, "response": "Beta"}, "71": {"stimulus": 1312, "trial": 71, "rt": 481, "response": "Beta"}, "70": {"stimulus": 2218, "trial": 70, "rt": 861, "response": "Beta"}, "59": {"stimulus": 0, "trial": 59, "rt": 522, "response": "Beta"}, "79": {"stimulus": 874, "trial": 79, "rt": 436, "response": "Beta"}, "58": {"stimulus": 468, "trial": 58, "rt": 472, "response": "Beta"}, "11": {"stimulus": 843, "trial": 11, "rt": 450, "response": "Alpha"}, "10": {"stimulus": 687, "trial": 10, "rt": 879, "response": "Alpha"}, "13": {"stimulus": 1468, "trial": 13, "rt": 761, "response": "Beta"}, "12": {"stimulus": 1030, "trial": 12, "rt": 465, "response": "Alpha"}, "15": {"stimulus": 2437, "trial": 15, "rt": 735, "response": "Alpha"}, "14": {"stimulus": 62, "trial": 14, "rt": 1015, "response": "Beta"}, "17": {"stimulus": 1843, "trial": 17, "rt": 464, "response": "Alpha"}, "16": {"stimulus": 374, "trial": 16, "rt": 565, "response": "Alpha"}, "19": {"stimulus": 2249, "trial": 19, "rt": 388, "response": "Alpha"}, "18": {"stimulus": 1530, "trial": 18, "rt": 375, "response": "Alpha"}, "31": {"stimulus": 1593, "trial": 31, "rt": 1049, "response": "Alpha"}, "30": {"stimulus": 1062, "trial": 30, "rt": 708, "response": "Beta"}, "37": {"stimulus": 2093, "trial": 37, "rt": 463, "response": "Alpha"}, "36": {"stimulus": 343, "trial": 36, "rt": 727, "response": "Alpha"}, "35": {"stimulus": 1718, "trial": 35, "rt": 715, "response": "Beta"}, "34": {"stimulus": 780, "trial": 34, "rt": 1147, "response": "Alpha"}, "33": {"stimulus": 280, "trial": 33, "rt": 438, "response": "Alpha"}, "55": {"stimulus": 1968, "trial": 55, "rt": 582, "response": "Beta"}, "74": {"stimulus": 1124, "trial": 74, "rt": 695, "response": "Alpha"}, "32": {"stimulus": 1249, "trial": 32, "rt": 468, "response": "Alpha"}, "57": {"stimulus": 405, "trial": 57, "rt": 518, "response": "Beta"}, "50": {"stimulus": 1812, "trial": 50, "rt": 1131, "response": "Beta"}}, "experiment": {"Paradigm": "TACL", "Stimuli": "Size-Color Squares", "Experiment": "Generating-Multiple-Categories"}, "submit": {"timeTotal": 245564, "age": "38", "comments": "Fun experiment!", "sex": "Male"}}