{"info": {"finish": 1548101423880, "participant": 219, "exposed": true, "lab": false, "start": 1548101108279, "counterbalance": 6, "gentype": 1, "condition": "XOR", "browser": {"platform": "Win32", "userAgent": "Mozilla/5.0 (Windows NT 10.0; Win64; x64; rv:64.0) Gecko/20100101 Firefox/64.0"}}, "observation": {"11": {"stimulus": 403, "trial": 11, "rt": 1639}, "10": {"stimulus": 1890, "trial": 10, "rt": 1740}, "1": {"stimulus": 818, "trial": 1, "rt": 2479}, "0": {"stimulus": 1890, "trial": 0, "rt": 4234}, "3": {"stimulus": 403, "trial": 3, "rt": 1743}, "2": {"stimulus": 1479, "trial": 2, "rt": 1927}, "5": {"stimulus": 818, "trial": 5, "rt": 1934}, "4": {"stimulus": 403, "trial": 4, "rt": 1671}, "7": {"stimulus": 1479, "trial": 7, "rt": 1582}, "6": {"stimulus": 1890, "trial": 6, "rt": 1616}, "9": {"stimulus": 818, "trial": 9, "rt": 2277}, "8": {"stimulus": 1479, "trial": 8, "rt": 1816}}, "generation": {"1": {"category": "Beta", "trial": 1, "stimulus": 147, "rt": 8471}, "0": {"category": "Beta", "trial": 0, "stimulus": 2499, "rt": 12239}, "3": {"category": "Beta", "trial": 3, "stimulus": 49, "rt": 4599}, "2": {"category": "Beta", "trial": 2, "stimulus": 2498, "rt": 5814}, "5": {"category": "Beta", "trial": 5, "stimulus": 797, "rt": 12294}, "4": {"category": "Beta", "trial": 4, "stimulus": 1448, "rt": 6592}, "7": {"category": "Beta", "trial": 7, "stimulus": 648, "rt": 8377}, "6": {"category": "Beta", "trial": 6, "stimulus": 2397, "rt": 4905}}, "generalization": {"56": {"stimulus": 343, "trial": 56, "rt": 2308, "response": "Beta"}, "77": {"stimulus": 124, "trial": 77, "rt": 791, "response": "Alpha"}, "54": {"stimulus": 905, "trial": 54, "rt": 1051, "response": "Alpha"}, "42": {"stimulus": 1405, "trial": 42, "rt": 823, "response": "Alpha"}, "48": {"stimulus": 499, "trial": 48, "rt": 787, "response": "Beta"}, "43": {"stimulus": 1780, "trial": 43, "rt": 1199, "response": "Alpha"}, "60": {"stimulus": 530, "trial": 60, "rt": 1116, "response": "Alpha"}, "61": {"stimulus": 1062, "trial": 61, "rt": 550, "response": "Alpha"}, "62": {"stimulus": 218, "trial": 62, "rt": 670, "response": "Alpha"}, "63": {"stimulus": 2468, "trial": 63, "rt": 527, "response": "Alpha"}, "64": {"stimulus": 2218, "trial": 64, "rt": 494, "response": "Alpha"}, "49": {"stimulus": 1749, "trial": 49, "rt": 568, "response": "Beta"}, "66": {"stimulus": 874, "trial": 66, "rt": 638, "response": "Alpha"}, "67": {"stimulus": 968, "trial": 67, "rt": 432, "response": "Alpha"}, "68": {"stimulus": 655, "trial": 68, "rt": 709, "response": "Alpha"}, "69": {"stimulus": 1624, "trial": 69, "rt": 528, "response": "Alpha"}, "80": {"stimulus": 155, "trial": 80, "rt": 856, "response": "Alpha"}, "52": {"stimulus": 93, "trial": 52, "rt": 1279, "response": "Beta"}, "53": {"stimulus": 187, "trial": 53, "rt": 679, "response": "Beta"}, "24": {"stimulus": 2437, "trial": 24, "rt": 903, "response": "Alpha"}, "25": {"stimulus": 1655, "trial": 25, "rt": 822, "response": "Alpha"}, "26": {"stimulus": 2374, "trial": 26, "rt": 758, "response": "Alpha"}, "27": {"stimulus": 1905, "trial": 27, "rt": 567, "response": "Alpha"}, "20": {"stimulus": 2187, "trial": 20, "rt": 894, "response": "Beta"}, "21": {"stimulus": 1999, "trial": 21, "rt": 575, "response": "Beta"}, "22": {"stimulus": 843, "trial": 22, "rt": 631, "response": "Beta"}, "23": {"stimulus": 1593, "trial": 23, "rt": 685, "response": "Beta"}, "46": {"stimulus": 1280, "trial": 46, "rt": 1471, "response": "Alpha"}, "47": {"stimulus": 749, "trial": 47, "rt": 615, "response": "Beta"}, "44": {"stimulus": 1937, "trial": 44, "rt": 999, "response": "Beta"}, "45": {"stimulus": 1374, "trial": 45, "rt": 1200, "response": "Alpha"}, "28": {"stimulus": 2405, "trial": 28, "rt": 512, "response": "Alpha"}, "29": {"stimulus": 1968, "trial": 29, "rt": 542, "response": "Alpha"}, "40": {"stimulus": 2030, "trial": 40, "rt": 606, "response": "Alpha"}, "41": {"stimulus": 1530, "trial": 41, "rt": 552, "response": "Alpha"}, "1": {"stimulus": 2155, "trial": 1, "rt": 1010, "response": "Alpha"}, "0": {"stimulus": 1093, "trial": 0, "rt": 2328, "response": "Beta"}, "3": {"stimulus": 1562, "trial": 3, "rt": 999, "response": "Alpha"}, "2": {"stimulus": 593, "trial": 2, "rt": 1574, "response": "Beta"}, "5": {"stimulus": 1187, "trial": 5, "rt": 786, "response": "Alpha"}, "4": {"stimulus": 30, "trial": 4, "rt": 799, "response": "Alpha"}, "7": {"stimulus": 2093, "trial": 7, "rt": 1361, "response": "Beta"}, "6": {"stimulus": 1343, "trial": 6, "rt": 1120, "response": "Beta"}, "9": {"stimulus": 1874, "trial": 9, "rt": 815, "response": "Alpha"}, "8": {"stimulus": 812, "trial": 8, "rt": 1159, "response": "Alpha"}, "78": {"stimulus": 312, "trial": 78, "rt": 594, "response": "Alpha"}, "51": {"stimulus": 1124, "trial": 51, "rt": 652, "response": "Alpha"}, "39": {"stimulus": 280, "trial": 39, "rt": 760, "response": "Alpha"}, "65": {"stimulus": 1468, "trial": 65, "rt": 512, "response": "Alpha"}, "76": {"stimulus": 62, "trial": 76, "rt": 486, "response": "Alpha"}, "75": {"stimulus": 2312, "trial": 75, "rt": 624, "response": "Alpha"}, "38": {"stimulus": 468, "trial": 38, "rt": 714, "response": "Alpha"}, "73": {"stimulus": 1437, "trial": 73, "rt": 1038, "response": "Beta"}, "72": {"stimulus": 437, "trial": 72, "rt": 1767, "response": "Alpha"}, "71": {"stimulus": 562, "trial": 71, "rt": 640, "response": "Alpha"}, "70": {"stimulus": 1312, "trial": 70, "rt": 572, "response": "Alpha"}, "59": {"stimulus": 2249, "trial": 59, "rt": 439, "response": "Beta"}, "79": {"stimulus": 1249, "trial": 79, "rt": 1128, "response": "Beta"}, "58": {"stimulus": 249, "trial": 58, "rt": 538, "response": "Beta"}, "11": {"stimulus": 1155, "trial": 11, "rt": 623, "response": "Alpha"}, "10": {"stimulus": 405, "trial": 10, "rt": 624, "response": "Alpha"}, "13": {"stimulus": 937, "trial": 13, "rt": 808, "response": "Alpha"}, "12": {"stimulus": 718, "trial": 12, "rt": 564, "response": "Alpha"}, "15": {"stimulus": 1812, "trial": 15, "rt": 936, "response": "Alpha"}, "14": {"stimulus": 2499, "trial": 14, "rt": 1000, "response": "Beta"}, "17": {"stimulus": 1687, "trial": 17, "rt": 1471, "response": "Beta"}, "16": {"stimulus": 1218, "trial": 16, "rt": 895, "response": "Alpha"}, "19": {"stimulus": 1499, "trial": 19, "rt": 1055, "response": "Beta"}, "18": {"stimulus": 374, "trial": 18, "rt": 1235, "response": "Alpha"}, "31": {"stimulus": 2124, "trial": 31, "rt": 590, "response": "Alpha"}, "30": {"stimulus": 624, "trial": 30, "rt": 503, "response": "Alpha"}, "37": {"stimulus": 780, "trial": 37, "rt": 984, "response": "Alpha"}, "36": {"stimulus": 1718, "trial": 36, "rt": 1132, "response": "Alpha"}, "35": {"stimulus": 1843, "trial": 35, "rt": 1098, "response": "Beta"}, "34": {"stimulus": 2062, "trial": 34, "rt": 583, "response": "Alpha"}, "33": {"stimulus": 2280, "trial": 33, "rt": 615, "response": "Alpha"}, "55": {"stimulus": 2343, "trial": 55, "rt": 5022, "response": "Beta"}, "74": {"stimulus": 1030, "trial": 74, "rt": 1014, "response": "Alpha"}, "32": {"stimulus": 687, "trial": 32, "rt": 1063, "response": "Alpha"}, "57": {"stimulus": 999, "trial": 57, "rt": 591, "response": "Beta"}, "50": {"stimulus": 0, "trial": 50, "rt": 994, "response": "Alpha"}}, "experiment": {"Paradigm": "TACL", "Stimuli": "Size-Color Squares", "Experiment": "Generating-Multiple-Categories"}, "submit": {"timeTotal": 317093, "age": "39", "comments": "thank you", "sex": "female"}}