{"info": {"finish": 1548104455575, "participant": 221, "exposed": true, "lab": false, "start": 1548104177185, "counterbalance": 5, "gentype": 0, "condition": "XOR", "browser": {"platform": "Win32", "userAgent": "Mozilla/5.0 (Windows NT 6.3; Win64; x64) AppleWebKit/537.36 (KHTML, like Gecko) Chrome/71.0.3578.98 Safari/537.36"}}, "observation": {"11": {"stimulus": 818, "trial": 11, "rt": 2726}, "10": {"stimulus": 1479, "trial": 10, "rt": 1390}, "1": {"stimulus": 403, "trial": 1, "rt": 1991}, "0": {"stimulus": 1479, "trial": 0, "rt": 16722}, "3": {"stimulus": 1890, "trial": 3, "rt": 1538}, "2": {"stimulus": 818, "trial": 2, "rt": 1593}, "5": {"stimulus": 1479, "trial": 5, "rt": 1395}, "4": {"stimulus": 1890, "trial": 4, "rt": 1476}, "7": {"stimulus": 403, "trial": 7, "rt": 1672}, "6": {"stimulus": 818, "trial": 6, "rt": 1476}, "9": {"stimulus": 1890, "trial": 9, "rt": 1615}, "8": {"stimulus": 403, "trial": 8, "rt": 1655}}, "generation": {"1": {"category": "Not-Alpha", "trial": 1, "stimulus": 563, "rt": 5675}, "0": {"category": "Not-Alpha", "trial": 0, "stimulus": 1497, "rt": 10231}, "3": {"category": "Not-Alpha", "trial": 3, "stimulus": 918, "rt": 4014}, "2": {"category": "Not-Alpha", "trial": 2, "stimulus": 357, "rt": 4866}, "5": {"category": "Not-Alpha", "trial": 5, "stimulus": 731, "rt": 3895}, "4": {"category": "Not-Alpha", "trial": 4, "stimulus": 0, "rt": 4091}, "7": {"category": "Not-Alpha", "trial": 7, "stimulus": 1222, "rt": 4879}, "6": {"category": "Not-Alpha", "trial": 6, "stimulus": 179, "rt": 5280}}, "generalization": {"56": {"stimulus": 1968, "trial": 56, "rt": 1093, "response": "Beta"}, "77": {"stimulus": 937, "trial": 77, "rt": 553, "response": "Alpha"}, "54": {"stimulus": 1999, "trial": 54, "rt": 775, "response": "Beta"}, "42": {"stimulus": 280, "trial": 42, "rt": 1488, "response": "Alpha"}, "48": {"stimulus": 2312, "trial": 48, "rt": 1216, "response": "Beta"}, "43": {"stimulus": 1124, "trial": 43, "rt": 646, "response": "Alpha"}, "60": {"stimulus": 30, "trial": 60, "rt": 803, "response": "Alpha"}, "61": {"stimulus": 2280, "trial": 61, "rt": 736, "response": "Alpha"}, "62": {"stimulus": 405, "trial": 62, "rt": 602, "response": "Alpha"}, "63": {"stimulus": 1843, "trial": 63, "rt": 1565, "response": "Beta"}, "64": {"stimulus": 1905, "trial": 64, "rt": 713, "response": "Beta"}, "49": {"stimulus": 1343, "trial": 49, "rt": 658, "response": "Alpha"}, "66": {"stimulus": 2437, "trial": 66, "rt": 1026, "response": "Beta"}, "67": {"stimulus": 1155, "trial": 67, "rt": 896, "response": "Alpha"}, "68": {"stimulus": 1718, "trial": 68, "rt": 504, "response": "Alpha"}, "69": {"stimulus": 2468, "trial": 69, "rt": 703, "response": "Beta"}, "80": {"stimulus": 62, "trial": 80, "rt": 516, "response": "Alpha"}, "52": {"stimulus": 437, "trial": 52, "rt": 743, "response": "Alpha"}, "53": {"stimulus": 2218, "trial": 53, "rt": 1276, "response": "Beta"}, "24": {"stimulus": 1280, "trial": 24, "rt": 760, "response": "Alpha"}, "25": {"stimulus": 593, "trial": 25, "rt": 1116, "response": "Alpha"}, "26": {"stimulus": 1687, "trial": 26, "rt": 1699, "response": "Beta"}, "27": {"stimulus": 218, "trial": 27, "rt": 798, "response": "Alpha"}, "20": {"stimulus": 1780, "trial": 20, "rt": 806, "response": "Alpha"}, "21": {"stimulus": 1655, "trial": 21, "rt": 1335, "response": "Alpha"}, "22": {"stimulus": 2374, "trial": 22, "rt": 712, "response": "Alpha"}, "23": {"stimulus": 374, "trial": 23, "rt": 1047, "response": "Alpha"}, "46": {"stimulus": 2155, "trial": 46, "rt": 992, "response": "Beta"}, "47": {"stimulus": 874, "trial": 47, "rt": 540, "response": "Alpha"}, "44": {"stimulus": 1062, "trial": 44, "rt": 481, "response": "Alpha"}, "45": {"stimulus": 655, "trial": 45, "rt": 502, "response": "Alpha"}, "28": {"stimulus": 1937, "trial": 28, "rt": 1041, "response": "Alpha"}, "29": {"stimulus": 2405, "trial": 29, "rt": 951, "response": "Beta"}, "40": {"stimulus": 1874, "trial": 40, "rt": 1773, "response": "Beta"}, "41": {"stimulus": 1468, "trial": 41, "rt": 829, "response": "Alpha"}, "1": {"stimulus": 2499, "trial": 1, "rt": 1721, "response": "Alpha"}, "0": {"stimulus": 2062, "trial": 0, "rt": 2689, "response": "Beta"}, "3": {"stimulus": 749, "trial": 3, "rt": 2349, "response": "Alpha"}, "2": {"stimulus": 2124, "trial": 2, "rt": 1178, "response": "Beta"}, "5": {"stimulus": 1030, "trial": 5, "rt": 753, "response": "Alpha"}, "4": {"stimulus": 1530, "trial": 4, "rt": 986, "response": "Alpha"}, "7": {"stimulus": 530, "trial": 7, "rt": 1448, "response": "Beta"}, "6": {"stimulus": 812, "trial": 6, "rt": 863, "response": "Alpha"}, "9": {"stimulus": 1405, "trial": 9, "rt": 1193, "response": "Alpha"}, "8": {"stimulus": 187, "trial": 8, "rt": 1106, "response": "Beta"}, "78": {"stimulus": 905, "trial": 78, "rt": 555, "response": "Alpha"}, "51": {"stimulus": 2343, "trial": 51, "rt": 839, "response": "Beta"}, "39": {"stimulus": 1249, "trial": 39, "rt": 944, "response": "Alpha"}, "65": {"stimulus": 312, "trial": 65, "rt": 733, "response": "Alpha"}, "76": {"stimulus": 718, "trial": 76, "rt": 983, "response": "Alpha"}, "75": {"stimulus": 1374, "trial": 75, "rt": 604, "response": "Alpha"}, "38": {"stimulus": 0, "trial": 38, "rt": 966, "response": "Alpha"}, "73": {"stimulus": 780, "trial": 73, "rt": 523, "response": "Alpha"}, "72": {"stimulus": 1812, "trial": 72, "rt": 678, "response": "Alpha"}, "71": {"stimulus": 562, "trial": 71, "rt": 762, "response": "Alpha"}, "70": {"stimulus": 1749, "trial": 70, "rt": 979, "response": "Alpha"}, "59": {"stimulus": 343, "trial": 59, "rt": 606, "response": "Alpha"}, "79": {"stimulus": 843, "trial": 79, "rt": 504, "response": "Alpha"}, "58": {"stimulus": 1187, "trial": 58, "rt": 703, "response": "Alpha"}, "11": {"stimulus": 2030, "trial": 11, "rt": 938, "response": "Beta"}, "10": {"stimulus": 999, "trial": 10, "rt": 858, "response": "Alpha"}, "13": {"stimulus": 2249, "trial": 13, "rt": 820, "response": "Beta"}, "12": {"stimulus": 155, "trial": 12, "rt": 763, "response": "Alpha"}, "15": {"stimulus": 124, "trial": 15, "rt": 565, "response": "Alpha"}, "14": {"stimulus": 1218, "trial": 14, "rt": 643, "response": "Alpha"}, "17": {"stimulus": 468, "trial": 17, "rt": 607, "response": "Alpha"}, "16": {"stimulus": 1499, "trial": 16, "rt": 793, "response": "Alpha"}, "19": {"stimulus": 1312, "trial": 19, "rt": 834, "response": "Alpha"}, "18": {"stimulus": 2093, "trial": 18, "rt": 912, "response": "Beta"}, "31": {"stimulus": 1093, "trial": 31, "rt": 844, "response": "Alpha"}, "30": {"stimulus": 1593, "trial": 30, "rt": 1378, "response": "Alpha"}, "37": {"stimulus": 1562, "trial": 37, "rt": 1806, "response": "Beta"}, "36": {"stimulus": 499, "trial": 36, "rt": 1000, "response": "Alpha"}, "35": {"stimulus": 2187, "trial": 35, "rt": 1726, "response": "Beta"}, "34": {"stimulus": 968, "trial": 34, "rt": 1048, "response": "Alpha"}, "33": {"stimulus": 1437, "trial": 33, "rt": 1332, "response": "Alpha"}, "55": {"stimulus": 93, "trial": 55, "rt": 564, "response": "Alpha"}, "74": {"stimulus": 624, "trial": 74, "rt": 589, "response": "Alpha"}, "32": {"stimulus": 249, "trial": 32, "rt": 862, "response": "Alpha"}, "57": {"stimulus": 1624, "trial": 57, "rt": 922, "response": "Alpha"}, "50": {"stimulus": 687, "trial": 50, "rt": 596, "response": "Alpha"}}, "experiment": {"Paradigm": "TACL", "Stimuli": "Size-Color Squares", "Experiment": "Generating-Multiple-Categories"}, "submit": {"timeTotal": 278503, "age": "26", "comments": "Everything was clear with no errors at all!", "sex": "Male"}}