{"info": {"finish": 1548105919192, "participant": 228, "exposed": true, "lab": false, "start": 1548105550975, "counterbalance": 2, "gentype": 0, "condition": "Cluster", "browser": {"platform": "Win32", "userAgent": "Mozilla/5.0 (Windows NT 10.0; Win64; x64) AppleWebKit/537.36 (KHTML, like Gecko) Chrome/71.0.3578.98 Safari/537.36"}}, "observation": {"11": {"stimulus": 1093, "trial": 11, "rt": 6316}, "10": {"stimulus": 583, "trial": 10, "rt": 3048}, "1": {"stimulus": 1093, "trial": 1, "rt": 9048}, "0": {"stimulus": 1083, "trial": 0, "rt": 3219}, "3": {"stimulus": 583, "trial": 3, "rt": 2293}, "2": {"stimulus": 392, "trial": 2, "rt": 3633}, "5": {"stimulus": 583, "trial": 5, "rt": 1552}, "4": {"stimulus": 392, "trial": 4, "rt": 1433}, "7": {"stimulus": 1083, "trial": 7, "rt": 15302}, "6": {"stimulus": 1093, "trial": 6, "rt": 5843}, "9": {"stimulus": 392, "trial": 9, "rt": 20344}, "8": {"stimulus": 1083, "trial": 8, "rt": 4872}}, "generation": {"1": {"category": "Not-Alpha", "trial": 1, "stimulus": 2457, "rt": 14907}, "0": {"category": "Not-Alpha", "trial": 0, "stimulus": 2450, "rt": 11354}, "3": {"category": "Not-Alpha", "trial": 3, "stimulus": 2473, "rt": 4033}, "2": {"category": "Not-Alpha", "trial": 2, "stimulus": 2460, "rt": 8241}, "5": {"category": "Not-Alpha", "trial": 5, "stimulus": 2491, "rt": 4157}, "4": {"category": "Not-Alpha", "trial": 4, "stimulus": 2481, "rt": 3240}, "7": {"category": "Not-Alpha", "trial": 7, "stimulus": 2350, "rt": 6288}, "6": {"category": "Not-Alpha", "trial": 6, "stimulus": 2499, "rt": 4785}}, "generalization": {"56": {"stimulus": 655, "trial": 56, "rt": 611, "response": "Alpha"}, "77": {"stimulus": 2280, "trial": 77, "rt": 921, "response": "Beta"}, "54": {"stimulus": 1749, "trial": 54, "rt": 1447, "response": "Beta"}, "42": {"stimulus": 405, "trial": 42, "rt": 567, "response": "Alpha"}, "48": {"stimulus": 780, "trial": 48, "rt": 543, "response": "Alpha"}, "43": {"stimulus": 468, "trial": 43, "rt": 1122, "response": "Alpha"}, "60": {"stimulus": 530, "trial": 60, "rt": 724, "response": "Alpha"}, "61": {"stimulus": 1718, "trial": 61, "rt": 998, "response": "Beta"}, "62": {"stimulus": 1405, "trial": 62, "rt": 598, "response": "Beta"}, "63": {"stimulus": 1062, "trial": 63, "rt": 1144, "response": "Alpha"}, "64": {"stimulus": 343, "trial": 64, "rt": 784, "response": "Alpha"}, "49": {"stimulus": 749, "trial": 49, "rt": 575, "response": "Alpha"}, "66": {"stimulus": 1874, "trial": 66, "rt": 1132, "response": "Beta"}, "67": {"stimulus": 1218, "trial": 67, "rt": 1251, "response": "Alpha"}, "68": {"stimulus": 1905, "trial": 68, "rt": 1816, "response": "Beta"}, "69": {"stimulus": 1624, "trial": 69, "rt": 655, "response": "Beta"}, "80": {"stimulus": 624, "trial": 80, "rt": 765, "response": "Alpha"}, "52": {"stimulus": 1530, "trial": 52, "rt": 648, "response": "Beta"}, "53": {"stimulus": 874, "trial": 53, "rt": 813, "response": "Alpha"}, "24": {"stimulus": 968, "trial": 24, "rt": 581, "response": "Alpha"}, "25": {"stimulus": 1124, "trial": 25, "rt": 865, "response": "Alpha"}, "26": {"stimulus": 843, "trial": 26, "rt": 6626, "response": "Alpha"}, "27": {"stimulus": 937, "trial": 27, "rt": 782, "response": "Alpha"}, "20": {"stimulus": 1655, "trial": 20, "rt": 781, "response": "Beta"}, "21": {"stimulus": 2124, "trial": 21, "rt": 636, "response": "Beta"}, "22": {"stimulus": 437, "trial": 22, "rt": 714, "response": "Alpha"}, "23": {"stimulus": 562, "trial": 23, "rt": 527, "response": "Alpha"}, "46": {"stimulus": 124, "trial": 46, "rt": 1612, "response": "Beta"}, "47": {"stimulus": 1280, "trial": 47, "rt": 808, "response": "Alpha"}, "44": {"stimulus": 1687, "trial": 44, "rt": 907, "response": "Beta"}, "45": {"stimulus": 2468, "trial": 45, "rt": 625, "response": "Beta"}, "28": {"stimulus": 1468, "trial": 28, "rt": 860, "response": "Alpha"}, "29": {"stimulus": 1093, "trial": 29, "rt": 797, "response": "Alpha"}, "40": {"stimulus": 1187, "trial": 40, "rt": 1348, "response": "Alpha"}, "41": {"stimulus": 1312, "trial": 41, "rt": 942, "response": "Alpha"}, "1": {"stimulus": 218, "trial": 1, "rt": 2446, "response": "Beta"}, "0": {"stimulus": 1343, "trial": 0, "rt": 4048, "response": "Alpha"}, "3": {"stimulus": 2374, "trial": 3, "rt": 1285, "response": "Beta"}, "2": {"stimulus": 1155, "trial": 2, "rt": 2141, "response": "Alpha"}, "5": {"stimulus": 249, "trial": 5, "rt": 3072, "response": "Alpha"}, "4": {"stimulus": 2312, "trial": 4, "rt": 3085, "response": "Beta"}, "7": {"stimulus": 1812, "trial": 7, "rt": 1375, "response": "Alpha"}, "6": {"stimulus": 1437, "trial": 6, "rt": 1013, "response": "Alpha"}, "9": {"stimulus": 1593, "trial": 9, "rt": 806, "response": "Beta"}, "8": {"stimulus": 812, "trial": 8, "rt": 580, "response": "Alpha"}, "78": {"stimulus": 2030, "trial": 78, "rt": 663, "response": "Beta"}, "51": {"stimulus": 2437, "trial": 51, "rt": 789, "response": "Beta"}, "39": {"stimulus": 1999, "trial": 39, "rt": 532, "response": "Beta"}, "65": {"stimulus": 374, "trial": 65, "rt": 1644, "response": "Alpha"}, "76": {"stimulus": 2155, "trial": 76, "rt": 535, "response": "Beta"}, "75": {"stimulus": 30, "trial": 75, "rt": 852, "response": "Beta"}, "38": {"stimulus": 1374, "trial": 38, "rt": 1769, "response": "Beta"}, "73": {"stimulus": 1249, "trial": 73, "rt": 928, "response": "Alpha"}, "72": {"stimulus": 2218, "trial": 72, "rt": 787, "response": "Beta"}, "71": {"stimulus": 93, "trial": 71, "rt": 2839, "response": "Beta"}, "70": {"stimulus": 0, "trial": 70, "rt": 1028, "response": "Beta"}, "59": {"stimulus": 280, "trial": 59, "rt": 2611, "response": "Alpha"}, "79": {"stimulus": 1843, "trial": 79, "rt": 624, "response": "Beta"}, "58": {"stimulus": 2187, "trial": 58, "rt": 519, "response": "Beta"}, "11": {"stimulus": 1562, "trial": 11, "rt": 1153, "response": "Beta"}, "10": {"stimulus": 999, "trial": 10, "rt": 796, "response": "Alpha"}, "13": {"stimulus": 905, "trial": 13, "rt": 753, "response": "Beta"}, "12": {"stimulus": 2093, "trial": 12, "rt": 606, "response": "Beta"}, "15": {"stimulus": 1937, "trial": 15, "rt": 929, "response": "Beta"}, "14": {"stimulus": 62, "trial": 14, "rt": 1717, "response": "Alpha"}, "17": {"stimulus": 155, "trial": 17, "rt": 801, "response": "Alpha"}, "16": {"stimulus": 1780, "trial": 16, "rt": 805, "response": "Beta"}, "19": {"stimulus": 499, "trial": 19, "rt": 751, "response": "Alpha"}, "18": {"stimulus": 1968, "trial": 18, "rt": 1345, "response": "Beta"}, "31": {"stimulus": 1499, "trial": 31, "rt": 1348, "response": "Beta"}, "30": {"stimulus": 2405, "trial": 30, "rt": 3866, "response": "Beta"}, "37": {"stimulus": 2062, "trial": 37, "rt": 612, "response": "Beta"}, "36": {"stimulus": 2343, "trial": 36, "rt": 1143, "response": "Beta"}, "35": {"stimulus": 687, "trial": 35, "rt": 709, "response": "Alpha"}, "34": {"stimulus": 2499, "trial": 34, "rt": 743, "response": "Beta"}, "33": {"stimulus": 187, "trial": 33, "rt": 1320, "response": "Beta"}, "55": {"stimulus": 312, "trial": 55, "rt": 931, "response": "Alpha"}, "74": {"stimulus": 2249, "trial": 74, "rt": 851, "response": "Beta"}, "32": {"stimulus": 593, "trial": 32, "rt": 1050, "response": "Alpha"}, "57": {"stimulus": 1030, "trial": 57, "rt": 870, "response": "Alpha"}, "50": {"stimulus": 718, "trial": 50, "rt": 564, "response": "Alpha"}}, "experiment": {"Paradigm": "TACL", "Stimuli": "Size-Color Squares", "Experiment": "Generating-Multiple-Categories"}, "submit": {"timeTotal": 368803, "age": "22", "comments": "", "sex": "female"}}