{"info": {"finish": 1548106960049, "participant": 232, "exposed": true, "lab": false, "start": 1548106531608, "counterbalance": 1, "gentype": 1, "condition": "XOR", "browser": {"platform": "Win32", "userAgent": "Mozilla/5.0 (Windows NT 6.1) AppleWebKit/537.36 (KHTML, like Gecko) Chrome/71.0.3578.98 Safari/537.36"}}, "observation": {"11": {"stimulus": 403, "trial": 11, "rt": 2599}, "10": {"stimulus": 1479, "trial": 10, "rt": 2622}, "1": {"stimulus": 1479, "trial": 1, "rt": 2183}, "0": {"stimulus": 818, "trial": 0, "rt": 6834}, "3": {"stimulus": 403, "trial": 3, "rt": 2487}, "2": {"stimulus": 1890, "trial": 2, "rt": 2543}, "5": {"stimulus": 403, "trial": 5, "rt": 2648}, "4": {"stimulus": 818, "trial": 4, "rt": 2399}, "7": {"stimulus": 1479, "trial": 7, "rt": 2463}, "6": {"stimulus": 1890, "trial": 6, "rt": 2118}, "9": {"stimulus": 818, "trial": 9, "rt": 2248}, "8": {"stimulus": 1890, "trial": 8, "rt": 2615}}, "generation": {"1": {"category": "Beta", "trial": 1, "stimulus": 2434, "rt": 11255}, "0": {"category": "Beta", "trial": 0, "stimulus": 6, "rt": 11102}, "3": {"category": "Beta", "trial": 3, "stimulus": 3, "rt": 11845}, "2": {"category": "Beta", "trial": 2, "stimulus": 2462, "rt": 5814}, "5": {"category": "Beta", "trial": 5, "stimulus": 2463, "rt": 5794}, "4": {"category": "Beta", "trial": 4, "stimulus": 2421, "rt": 8264}, "7": {"category": "Beta", "trial": 7, "stimulus": 9, "rt": 62519}, "6": {"category": "Beta", "trial": 6, "stimulus": 49, "rt": 11086}}, "generalization": {"56": {"stimulus": 999, "trial": 56, "rt": 1800, "response": "Alpha"}, "77": {"stimulus": 1968, "trial": 77, "rt": 1206, "response": "Alpha"}, "54": {"stimulus": 655, "trial": 54, "rt": 1081, "response": "Alpha"}, "42": {"stimulus": 1749, "trial": 42, "rt": 1223, "response": "Beta"}, "48": {"stimulus": 30, "trial": 48, "rt": 2856, "response": "Alpha"}, "43": {"stimulus": 374, "trial": 43, "rt": 2072, "response": "Alpha"}, "60": {"stimulus": 1905, "trial": 60, "rt": 1279, "response": "Beta"}, "61": {"stimulus": 1405, "trial": 61, "rt": 2127, "response": "Beta"}, "62": {"stimulus": 2343, "trial": 62, "rt": 1183, "response": "Beta"}, "63": {"stimulus": 343, "trial": 63, "rt": 1366, "response": "Alpha"}, "64": {"stimulus": 312, "trial": 64, "rt": 1311, "response": "Alpha"}, "49": {"stimulus": 812, "trial": 49, "rt": 1246, "response": "Alpha"}, "66": {"stimulus": 1499, "trial": 66, "rt": 5350, "response": "Beta"}, "67": {"stimulus": 1562, "trial": 67, "rt": 3190, "response": "Beta"}, "68": {"stimulus": 1468, "trial": 68, "rt": 1118, "response": "Alpha"}, "69": {"stimulus": 562, "trial": 69, "rt": 1182, "response": "Alpha"}, "80": {"stimulus": 249, "trial": 80, "rt": 1407, "response": "Alpha"}, "52": {"stimulus": 2062, "trial": 52, "rt": 1239, "response": "Beta"}, "53": {"stimulus": 1874, "trial": 53, "rt": 2271, "response": "Alpha"}, "24": {"stimulus": 1062, "trial": 24, "rt": 2207, "response": "Alpha"}, "25": {"stimulus": 530, "trial": 25, "rt": 1727, "response": "Beta"}, "26": {"stimulus": 1312, "trial": 26, "rt": 1343, "response": "Beta"}, "27": {"stimulus": 1030, "trial": 27, "rt": 1176, "response": "Alpha"}, "20": {"stimulus": 1374, "trial": 20, "rt": 2391, "response": "Alpha"}, "21": {"stimulus": 2437, "trial": 21, "rt": 1023, "response": "Beta"}, "22": {"stimulus": 905, "trial": 22, "rt": 2159, "response": "Alpha"}, "23": {"stimulus": 2187, "trial": 23, "rt": 943, "response": "Beta"}, "46": {"stimulus": 968, "trial": 46, "rt": 1240, "response": "Alpha"}, "47": {"stimulus": 468, "trial": 47, "rt": 7760, "response": "Beta"}, "44": {"stimulus": 62, "trial": 44, "rt": 1650, "response": "Alpha"}, "45": {"stimulus": 749, "trial": 45, "rt": 2247, "response": "Beta"}, "28": {"stimulus": 2312, "trial": 28, "rt": 1094, "response": "Beta"}, "29": {"stimulus": 1093, "trial": 29, "rt": 2319, "response": "Alpha"}, "40": {"stimulus": 593, "trial": 40, "rt": 975, "response": "Alpha"}, "41": {"stimulus": 1687, "trial": 41, "rt": 1663, "response": "Alpha"}, "1": {"stimulus": 1280, "trial": 1, "rt": 2374, "response": "Alpha"}, "0": {"stimulus": 499, "trial": 0, "rt": 3174, "response": "Beta"}, "3": {"stimulus": 2124, "trial": 3, "rt": 1368, "response": "Beta"}, "2": {"stimulus": 2030, "trial": 2, "rt": 1759, "response": "Alpha"}, "5": {"stimulus": 1843, "trial": 5, "rt": 1127, "response": "Beta"}, "4": {"stimulus": 1780, "trial": 4, "rt": 1367, "response": "Beta"}, "7": {"stimulus": 718, "trial": 7, "rt": 886, "response": "Alpha"}, "6": {"stimulus": 2218, "trial": 6, "rt": 1718, "response": "Beta"}, "9": {"stimulus": 437, "trial": 9, "rt": 880, "response": "Alpha"}, "8": {"stimulus": 2280, "trial": 8, "rt": 1158, "response": "Beta"}, "78": {"stimulus": 1187, "trial": 78, "rt": 1327, "response": "Alpha"}, "51": {"stimulus": 1655, "trial": 51, "rt": 1886, "response": "Beta"}, "39": {"stimulus": 1999, "trial": 39, "rt": 1808, "response": "Beta"}, "65": {"stimulus": 1124, "trial": 65, "rt": 1319, "response": "Alpha"}, "76": {"stimulus": 1249, "trial": 76, "rt": 1559, "response": "Alpha"}, "75": {"stimulus": 2499, "trial": 75, "rt": 927, "response": "Beta"}, "38": {"stimulus": 2155, "trial": 38, "rt": 1102, "response": "Beta"}, "73": {"stimulus": 187, "trial": 73, "rt": 1599, "response": "Alpha"}, "72": {"stimulus": 2374, "trial": 72, "rt": 1079, "response": "Beta"}, "71": {"stimulus": 0, "trial": 71, "rt": 2391, "response": "Alpha"}, "70": {"stimulus": 1155, "trial": 70, "rt": 1335, "response": "Alpha"}, "59": {"stimulus": 937, "trial": 59, "rt": 1222, "response": "Alpha"}, "79": {"stimulus": 687, "trial": 79, "rt": 1167, "response": "Beta"}, "58": {"stimulus": 155, "trial": 58, "rt": 1591, "response": "Alpha"}, "11": {"stimulus": 843, "trial": 11, "rt": 1318, "response": "Alpha"}, "10": {"stimulus": 2468, "trial": 10, "rt": 991, "response": "Beta"}, "13": {"stimulus": 1437, "trial": 13, "rt": 1567, "response": "Alpha"}, "12": {"stimulus": 1624, "trial": 12, "rt": 1536, "response": "Alpha"}, "15": {"stimulus": 1530, "trial": 15, "rt": 1415, "response": "Beta"}, "14": {"stimulus": 405, "trial": 14, "rt": 1728, "response": "Alpha"}, "17": {"stimulus": 218, "trial": 17, "rt": 1088, "response": "Alpha"}, "16": {"stimulus": 780, "trial": 16, "rt": 1422, "response": "Alpha"}, "19": {"stimulus": 2405, "trial": 19, "rt": 1318, "response": "Beta"}, "18": {"stimulus": 280, "trial": 18, "rt": 1118, "response": "Alpha"}, "31": {"stimulus": 874, "trial": 31, "rt": 1423, "response": "Alpha"}, "30": {"stimulus": 1343, "trial": 30, "rt": 823, "response": "Alpha"}, "37": {"stimulus": 1718, "trial": 37, "rt": 1430, "response": "Alpha"}, "36": {"stimulus": 2249, "trial": 36, "rt": 1031, "response": "Beta"}, "35": {"stimulus": 1593, "trial": 35, "rt": 1119, "response": "Beta"}, "34": {"stimulus": 93, "trial": 34, "rt": 799, "response": "Alpha"}, "33": {"stimulus": 1812, "trial": 33, "rt": 1671, "response": "Beta"}, "55": {"stimulus": 624, "trial": 55, "rt": 2022, "response": "Beta"}, "74": {"stimulus": 1218, "trial": 74, "rt": 1151, "response": "Alpha"}, "32": {"stimulus": 124, "trial": 32, "rt": 1039, "response": "Beta"}, "57": {"stimulus": 2093, "trial": 57, "rt": 960, "response": "Beta"}, "50": {"stimulus": 1937, "trial": 50, "rt": 7575, "response": "Beta"}}, "experiment": {"Paradigm": "TACL", "Stimuli": "Size-Color Squares", "Experiment": "Generating-Multiple-Categories"}, "submit": {"timeTotal": 428665, "age": "38", "comments": "", "sex": "Female"}}