{"info": {"finish": 1548107899667, "participant": 235, "exposed": true, "lab": false, "start": 1548107525587, "counterbalance": 2, "gentype": 1, "condition": "XOR", "browser": {"platform": "Win32", "userAgent": "Mozilla/5.0 (Windows NT 10.0; Win64; x64) AppleWebKit/537.36 (KHTML, like Gecko) Chrome/71.0.3578.98 Safari/537.36"}}, "observation": {"11": {"stimulus": 403, "trial": 11, "rt": 1926}, "10": {"stimulus": 1890, "trial": 10, "rt": 2988}, "1": {"stimulus": 403, "trial": 1, "rt": 4099}, "0": {"stimulus": 1479, "trial": 0, "rt": 4138}, "3": {"stimulus": 818, "trial": 3, "rt": 2342}, "2": {"stimulus": 1890, "trial": 2, "rt": 3121}, "5": {"stimulus": 1890, "trial": 5, "rt": 1920}, "4": {"stimulus": 403, "trial": 4, "rt": 1905}, "7": {"stimulus": 1479, "trial": 7, "rt": 1741}, "6": {"stimulus": 818, "trial": 6, "rt": 1838}, "9": {"stimulus": 818, "trial": 9, "rt": 1750}, "8": {"stimulus": 1479, "trial": 8, "rt": 1725}}, "generation": {"1": {"category": "Beta", "trial": 1, "stimulus": 18, "rt": 16521}, "0": {"category": "Beta", "trial": 0, "stimulus": 43, "rt": 23144}, "3": {"category": "Beta", "trial": 3, "stimulus": 30, "rt": 6748}, "2": {"category": "Beta", "trial": 2, "stimulus": 0, "rt": 6235}, "5": {"category": "Beta", "trial": 5, "stimulus": 38, "rt": 7607}, "4": {"category": "Beta", "trial": 4, "stimulus": 20, "rt": 5963}, "7": {"category": "Beta", "trial": 7, "stimulus": 6, "rt": 8335}, "6": {"category": "Beta", "trial": 6, "stimulus": 39, "rt": 7161}}, "generalization": {"56": {"stimulus": 1593, "trial": 56, "rt": 910, "response": "Alpha"}, "77": {"stimulus": 2312, "trial": 77, "rt": 668, "response": "Alpha"}, "54": {"stimulus": 1843, "trial": 54, "rt": 1727, "response": "Alpha"}, "42": {"stimulus": 1937, "trial": 42, "rt": 725, "response": "Alpha"}, "48": {"stimulus": 593, "trial": 48, "rt": 2809, "response": "Beta"}, "43": {"stimulus": 1062, "trial": 43, "rt": 857, "response": "Alpha"}, "60": {"stimulus": 155, "trial": 60, "rt": 768, "response": "Beta"}, "61": {"stimulus": 2187, "trial": 61, "rt": 1719, "response": "Alpha"}, "62": {"stimulus": 2468, "trial": 62, "rt": 667, "response": "Alpha"}, "63": {"stimulus": 2124, "trial": 63, "rt": 623, "response": "Alpha"}, "64": {"stimulus": 562, "trial": 64, "rt": 1871, "response": "Beta"}, "49": {"stimulus": 1968, "trial": 49, "rt": 1461, "response": "Alpha"}, "66": {"stimulus": 1187, "trial": 66, "rt": 808, "response": "Alpha"}, "67": {"stimulus": 249, "trial": 67, "rt": 1853, "response": "Beta"}, "68": {"stimulus": 2374, "trial": 68, "rt": 1459, "response": "Alpha"}, "69": {"stimulus": 624, "trial": 69, "rt": 1636, "response": "Beta"}, "80": {"stimulus": 1155, "trial": 80, "rt": 660, "response": "Alpha"}, "52": {"stimulus": 93, "trial": 52, "rt": 664, "response": "Beta"}, "53": {"stimulus": 374, "trial": 53, "rt": 687, "response": "Beta"}, "24": {"stimulus": 124, "trial": 24, "rt": 2083, "response": "Beta"}, "25": {"stimulus": 874, "trial": 25, "rt": 1890, "response": "Alpha"}, "26": {"stimulus": 312, "trial": 26, "rt": 1925, "response": "Beta"}, "27": {"stimulus": 468, "trial": 27, "rt": 756, "response": "Beta"}, "20": {"stimulus": 780, "trial": 20, "rt": 2240, "response": "Alpha"}, "21": {"stimulus": 843, "trial": 21, "rt": 791, "response": "Alpha"}, "22": {"stimulus": 1374, "trial": 22, "rt": 671, "response": "Alpha"}, "23": {"stimulus": 1312, "trial": 23, "rt": 661, "response": "Alpha"}, "46": {"stimulus": 1655, "trial": 46, "rt": 1594, "response": "Alpha"}, "47": {"stimulus": 2499, "trial": 47, "rt": 717, "response": "Alpha"}, "44": {"stimulus": 1437, "trial": 44, "rt": 720, "response": "Alpha"}, "45": {"stimulus": 30, "trial": 45, "rt": 1550, "response": "Beta"}, "28": {"stimulus": 2030, "trial": 28, "rt": 1605, "response": "Alpha"}, "29": {"stimulus": 1405, "trial": 29, "rt": 727, "response": "Alpha"}, "40": {"stimulus": 218, "trial": 40, "rt": 1629, "response": "Beta"}, "41": {"stimulus": 937, "trial": 41, "rt": 1591, "response": "Alpha"}, "1": {"stimulus": 187, "trial": 1, "rt": 1598, "response": "Beta"}, "0": {"stimulus": 1124, "trial": 0, "rt": 1875, "response": "Alpha"}, "3": {"stimulus": 62, "trial": 3, "rt": 1560, "response": "Beta"}, "2": {"stimulus": 1780, "trial": 2, "rt": 1424, "response": "Alpha"}, "5": {"stimulus": 1718, "trial": 5, "rt": 1950, "response": "Alpha"}, "4": {"stimulus": 280, "trial": 4, "rt": 1794, "response": "Beta"}, "7": {"stimulus": 718, "trial": 7, "rt": 1932, "response": "Alpha"}, "6": {"stimulus": 1749, "trial": 6, "rt": 794, "response": "Alpha"}, "9": {"stimulus": 343, "trial": 9, "rt": 1614, "response": "Beta"}, "8": {"stimulus": 2280, "trial": 8, "rt": 1542, "response": "Alpha"}, "78": {"stimulus": 2155, "trial": 78, "rt": 696, "response": "Alpha"}, "51": {"stimulus": 405, "trial": 51, "rt": 1577, "response": "Beta"}, "39": {"stimulus": 2437, "trial": 39, "rt": 785, "response": "Alpha"}, "65": {"stimulus": 1468, "trial": 65, "rt": 1451, "response": "Alpha"}, "76": {"stimulus": 1218, "trial": 76, "rt": 724, "response": "Alpha"}, "75": {"stimulus": 2218, "trial": 75, "rt": 664, "response": "Alpha"}, "38": {"stimulus": 2093, "trial": 38, "rt": 673, "response": "Alpha"}, "73": {"stimulus": 0, "trial": 73, "rt": 1352, "response": "Beta"}, "72": {"stimulus": 749, "trial": 72, "rt": 2737, "response": "Alpha"}, "71": {"stimulus": 1530, "trial": 71, "rt": 720, "response": "Alpha"}, "70": {"stimulus": 1093, "trial": 70, "rt": 1697, "response": "Alpha"}, "59": {"stimulus": 655, "trial": 59, "rt": 1009, "response": "Beta"}, "79": {"stimulus": 1624, "trial": 79, "rt": 677, "response": "Alpha"}, "58": {"stimulus": 437, "trial": 58, "rt": 632, "response": "Beta"}, "11": {"stimulus": 1343, "trial": 11, "rt": 928, "response": "Alpha"}, "10": {"stimulus": 2062, "trial": 10, "rt": 1474, "response": "Alpha"}, "13": {"stimulus": 999, "trial": 13, "rt": 743, "response": "Alpha"}, "12": {"stimulus": 1249, "trial": 12, "rt": 786, "response": "Alpha"}, "15": {"stimulus": 905, "trial": 15, "rt": 1745, "response": "Alpha"}, "14": {"stimulus": 1562, "trial": 14, "rt": 848, "response": "Alpha"}, "17": {"stimulus": 2405, "trial": 17, "rt": 634, "response": "Alpha"}, "16": {"stimulus": 968, "trial": 16, "rt": 762, "response": "Alpha"}, "19": {"stimulus": 2343, "trial": 19, "rt": 644, "response": "Alpha"}, "18": {"stimulus": 1030, "trial": 18, "rt": 819, "response": "Alpha"}, "31": {"stimulus": 1905, "trial": 31, "rt": 639, "response": "Alpha"}, "30": {"stimulus": 1999, "trial": 30, "rt": 764, "response": "Alpha"}, "37": {"stimulus": 1812, "trial": 37, "rt": 645, "response": "Alpha"}, "36": {"stimulus": 1499, "trial": 36, "rt": 656, "response": "Alpha"}, "35": {"stimulus": 1874, "trial": 35, "rt": 761, "response": "Alpha"}, "34": {"stimulus": 1280, "trial": 34, "rt": 759, "response": "Alpha"}, "33": {"stimulus": 1687, "trial": 33, "rt": 1597, "response": "Alpha"}, "55": {"stimulus": 687, "trial": 55, "rt": 1437, "response": "Alpha"}, "74": {"stimulus": 812, "trial": 74, "rt": 1610, "response": "Alpha"}, "32": {"stimulus": 499, "trial": 32, "rt": 2279, "response": "Beta"}, "57": {"stimulus": 530, "trial": 57, "rt": 1569, "response": "Beta"}, "50": {"stimulus": 2249, "trial": 50, "rt": 664, "response": "Alpha"}}, "experiment": {"Paradigm": "TACL", "Stimuli": "Size-Color Squares", "Experiment": "Generating-Multiple-Categories"}, "submit": {"timeTotal": 374489, "age": "58", "comments": "it was fine", "sex": "female"}}