{"info": {"finish": 1548108038008, "participant": 236, "exposed": true, "lab": false, "start": 1548107556833, "counterbalance": 2, "gentype": 1, "condition": "XOR", "browser": {"platform": "Win32", "userAgent": "Mozilla/5.0 (Windows NT 10.0; Win64; x64) AppleWebKit/537.36 (KHTML, like Gecko) Chrome/71.0.3578.98 Safari/537.36"}}, "observation": {"11": {"stimulus": 818, "trial": 11, "rt": 2214}, "10": {"stimulus": 1890, "trial": 10, "rt": 1883}, "1": {"stimulus": 1890, "trial": 1, "rt": 3943}, "0": {"stimulus": 403, "trial": 0, "rt": 3404}, "3": {"stimulus": 1479, "trial": 3, "rt": 2469}, "2": {"stimulus": 818, "trial": 2, "rt": 2567}, "5": {"stimulus": 1890, "trial": 5, "rt": 1624}, "4": {"stimulus": 818, "trial": 4, "rt": 1937}, "7": {"stimulus": 1479, "trial": 7, "rt": 1983}, "6": {"stimulus": 403, "trial": 6, "rt": 2114}, "9": {"stimulus": 1479, "trial": 9, "rt": 1999}, "8": {"stimulus": 403, "trial": 8, "rt": 1812}}, "generation": {"1": {"category": "Beta", "trial": 1, "stimulus": 0, "rt": 52600}, "0": {"category": "Beta", "trial": 0, "stimulus": 49, "rt": 53682}, "3": {"category": "Beta", "trial": 3, "stimulus": 199, "rt": 14621}, "2": {"category": "Beta", "trial": 2, "stimulus": 149, "rt": 13530}, "5": {"category": "Beta", "trial": 5, "stimulus": 200, "rt": 9549}, "4": {"category": "Beta", "trial": 4, "stimulus": 249, "rt": 11261}, "7": {"category": "Beta", "trial": 7, "stimulus": 100, "rt": 8571}, "6": {"category": "Beta", "trial": 6, "stimulus": 150, "rt": 12200}}, "generalization": {"56": {"stimulus": 249, "trial": 56, "rt": 930, "response": "Beta"}, "77": {"stimulus": 1093, "trial": 77, "rt": 795, "response": "Alpha"}, "54": {"stimulus": 624, "trial": 54, "rt": 1559, "response": "Alpha"}, "42": {"stimulus": 343, "trial": 42, "rt": 1265, "response": "Beta"}, "48": {"stimulus": 1874, "trial": 48, "rt": 1226, "response": "Alpha"}, "43": {"stimulus": 218, "trial": 43, "rt": 1994, "response": "Alpha"}, "60": {"stimulus": 1187, "trial": 60, "rt": 1050, "response": "Alpha"}, "61": {"stimulus": 1155, "trial": 61, "rt": 1651, "response": "Alpha"}, "62": {"stimulus": 593, "trial": 62, "rt": 1926, "response": "Beta"}, "63": {"stimulus": 1249, "trial": 63, "rt": 1252, "response": "Alpha"}, "64": {"stimulus": 1624, "trial": 64, "rt": 907, "response": "Alpha"}, "49": {"stimulus": 30, "trial": 49, "rt": 1427, "response": "Alpha"}, "66": {"stimulus": 1968, "trial": 66, "rt": 645, "response": "Alpha"}, "67": {"stimulus": 187, "trial": 67, "rt": 2039, "response": "Beta"}, "68": {"stimulus": 1530, "trial": 68, "rt": 1110, "response": "Alpha"}, "69": {"stimulus": 468, "trial": 69, "rt": 2525, "response": "Alpha"}, "80": {"stimulus": 1280, "trial": 80, "rt": 862, "response": "Alpha"}, "52": {"stimulus": 62, "trial": 52, "rt": 922, "response": "Alpha"}, "53": {"stimulus": 562, "trial": 53, "rt": 1121, "response": "Alpha"}, "24": {"stimulus": 2187, "trial": 24, "rt": 814, "response": "Alpha"}, "25": {"stimulus": 2093, "trial": 25, "rt": 713, "response": "Alpha"}, "26": {"stimulus": 530, "trial": 26, "rt": 1498, "response": "Alpha"}, "27": {"stimulus": 1655, "trial": 27, "rt": 2050, "response": "Alpha"}, "20": {"stimulus": 1593, "trial": 20, "rt": 1011, "response": "Alpha"}, "21": {"stimulus": 1030, "trial": 21, "rt": 1027, "response": "Alpha"}, "22": {"stimulus": 905, "trial": 22, "rt": 2751, "response": "Beta"}, "23": {"stimulus": 749, "trial": 23, "rt": 1747, "response": "Beta"}, "46": {"stimulus": 1499, "trial": 46, "rt": 706, "response": "Alpha"}, "47": {"stimulus": 374, "trial": 47, "rt": 1099, "response": "Alpha"}, "44": {"stimulus": 1905, "trial": 44, "rt": 1059, "response": "Alpha"}, "45": {"stimulus": 1999, "trial": 45, "rt": 995, "response": "Alpha"}, "28": {"stimulus": 93, "trial": 28, "rt": 1169, "response": "Beta"}, "29": {"stimulus": 843, "trial": 29, "rt": 2413, "response": "Beta"}, "40": {"stimulus": 780, "trial": 40, "rt": 1407, "response": "Alpha"}, "41": {"stimulus": 124, "trial": 41, "rt": 1291, "response": "Alpha"}, "1": {"stimulus": 1437, "trial": 1, "rt": 966, "response": "Alpha"}, "0": {"stimulus": 937, "trial": 0, "rt": 1538, "response": "Alpha"}, "3": {"stimulus": 1780, "trial": 3, "rt": 1043, "response": "Alpha"}, "2": {"stimulus": 2468, "trial": 2, "rt": 1203, "response": "Alpha"}, "5": {"stimulus": 2280, "trial": 5, "rt": 939, "response": "Alpha"}, "4": {"stimulus": 2062, "trial": 4, "rt": 1330, "response": "Alpha"}, "7": {"stimulus": 687, "trial": 7, "rt": 1666, "response": "Alpha"}, "6": {"stimulus": 1687, "trial": 6, "rt": 690, "response": "Alpha"}, "9": {"stimulus": 1562, "trial": 9, "rt": 1043, "response": "Alpha"}, "8": {"stimulus": 2124, "trial": 8, "rt": 787, "response": "Alpha"}, "78": {"stimulus": 2249, "trial": 78, "rt": 669, "response": "Alpha"}, "51": {"stimulus": 2343, "trial": 51, "rt": 835, "response": "Alpha"}, "39": {"stimulus": 1468, "trial": 39, "rt": 948, "response": "Alpha"}, "65": {"stimulus": 0, "trial": 65, "rt": 1362, "response": "Beta"}, "76": {"stimulus": 1343, "trial": 76, "rt": 782, "response": "Alpha"}, "75": {"stimulus": 405, "trial": 75, "rt": 1002, "response": "Beta"}, "38": {"stimulus": 2499, "trial": 38, "rt": 1192, "response": "Alpha"}, "73": {"stimulus": 1218, "trial": 73, "rt": 898, "response": "Alpha"}, "72": {"stimulus": 999, "trial": 72, "rt": 1244, "response": "Alpha"}, "71": {"stimulus": 1062, "trial": 71, "rt": 1259, "response": "Alpha"}, "70": {"stimulus": 1124, "trial": 70, "rt": 915, "response": "Alpha"}, "59": {"stimulus": 499, "trial": 59, "rt": 1467, "response": "Beta"}, "79": {"stimulus": 1937, "trial": 79, "rt": 795, "response": "Alpha"}, "58": {"stimulus": 312, "trial": 58, "rt": 2195, "response": "Alpha"}, "11": {"stimulus": 1718, "trial": 11, "rt": 746, "response": "Alpha"}, "10": {"stimulus": 812, "trial": 10, "rt": 1675, "response": "Alpha"}, "13": {"stimulus": 2030, "trial": 13, "rt": 683, "response": "Alpha"}, "12": {"stimulus": 1749, "trial": 12, "rt": 658, "response": "Alpha"}, "15": {"stimulus": 2405, "trial": 15, "rt": 1084, "response": "Alpha"}, "14": {"stimulus": 655, "trial": 14, "rt": 969, "response": "Beta"}, "17": {"stimulus": 1312, "trial": 17, "rt": 1020, "response": "Alpha"}, "16": {"stimulus": 718, "trial": 16, "rt": 1644, "response": "Alpha"}, "19": {"stimulus": 437, "trial": 19, "rt": 1084, "response": "Beta"}, "18": {"stimulus": 2312, "trial": 18, "rt": 830, "response": "Alpha"}, "31": {"stimulus": 1812, "trial": 31, "rt": 815, "response": "Alpha"}, "30": {"stimulus": 2155, "trial": 30, "rt": 1003, "response": "Alpha"}, "37": {"stimulus": 1405, "trial": 37, "rt": 1244, "response": "Alpha"}, "36": {"stimulus": 874, "trial": 36, "rt": 1363, "response": "Alpha"}, "35": {"stimulus": 1374, "trial": 35, "rt": 1211, "response": "Alpha"}, "34": {"stimulus": 280, "trial": 34, "rt": 978, "response": "Beta"}, "33": {"stimulus": 2374, "trial": 33, "rt": 914, "response": "Alpha"}, "55": {"stimulus": 2218, "trial": 55, "rt": 647, "response": "Alpha"}, "74": {"stimulus": 1843, "trial": 74, "rt": 715, "response": "Alpha"}, "32": {"stimulus": 968, "trial": 32, "rt": 1067, "response": "Beta"}, "57": {"stimulus": 2437, "trial": 57, "rt": 762, "response": "Alpha"}, "50": {"stimulus": 155, "trial": 50, "rt": 1354, "response": "Alpha"}}, "experiment": {"Paradigm": "TACL", "Stimuli": "Size-Color Squares", "Experiment": "Generating-Multiple-Categories"}, "submit": {"timeTotal": 481472, "age": "49", "comments": "Planning and memory perhaps. Very fun. Thanks and good luck!", "sex": "Female"}}