{"info": {"finish": 1548108179035, "participant": 237, "exposed": true, "lab": false, "start": 1548107610423, "counterbalance": 0, "gentype": 0, "condition": "XOR", "browser": {"platform": "Win32", "userAgent": "Mozilla/5.0 (Windows NT 10.0; Win64; x64) AppleWebKit/537.36 (KHTML, like Gecko) Chrome/71.0.3578.98 Safari/537.36"}}, "observation": {"11": {"stimulus": 403, "trial": 11, "rt": 1471}, "10": {"stimulus": 1479, "trial": 10, "rt": 1854}, "1": {"stimulus": 1479, "trial": 1, "rt": 2116}, "0": {"stimulus": 818, "trial": 0, "rt": 2211}, "3": {"stimulus": 403, "trial": 3, "rt": 6743}, "2": {"stimulus": 1890, "trial": 2, "rt": 1352}, "5": {"stimulus": 818, "trial": 5, "rt": 2320}, "4": {"stimulus": 1479, "trial": 4, "rt": 2510}, "7": {"stimulus": 1890, "trial": 7, "rt": 3077}, "6": {"stimulus": 403, "trial": 6, "rt": 1864}, "9": {"stimulus": 1890, "trial": 9, "rt": 2790}, "8": {"stimulus": 818, "trial": 8, "rt": 1634}}, "generation": {"1": {"category": "Not-Alpha", "trial": 1, "stimulus": 1447, "rt": 7423}, "0": {"category": "Not-Alpha", "trial": 0, "stimulus": 106, "rt": 8587}, "3": {"category": "Not-Alpha", "trial": 3, "stimulus": 2499, "rt": 5433}, "2": {"category": "Not-Alpha", "trial": 2, "stimulus": 824, "rt": 8664}, "5": {"category": "Not-Alpha", "trial": 5, "stimulus": 519, "rt": 4741}, "4": {"category": "Not-Alpha", "trial": 4, "stimulus": 207, "rt": 12091}, "7": {"category": "Not-Alpha", "trial": 7, "stimulus": 1845, "rt": 5522}, "6": {"category": "Not-Alpha", "trial": 6, "stimulus": 1039, "rt": 6140}}, "generalization": {"56": {"stimulus": 874, "trial": 56, "rt": 775, "response": "Beta"}, "77": {"stimulus": 1374, "trial": 77, "rt": 1116, "response": "Alpha"}, "54": {"stimulus": 124, "trial": 54, "rt": 576, "response": "Beta"}, "42": {"stimulus": 155, "trial": 42, "rt": 920, "response": "Alpha"}, "48": {"stimulus": 1749, "trial": 48, "rt": 1110, "response": "Beta"}, "43": {"stimulus": 1655, "trial": 43, "rt": 743, "response": "Beta"}, "60": {"stimulus": 530, "trial": 60, "rt": 1355, "response": "Beta"}, "61": {"stimulus": 2312, "trial": 61, "rt": 807, "response": "Beta"}, "62": {"stimulus": 780, "trial": 62, "rt": 1284, "response": "Alpha"}, "63": {"stimulus": 2280, "trial": 63, "rt": 819, "response": "Alpha"}, "64": {"stimulus": 1780, "trial": 64, "rt": 1458, "response": "Beta"}, "49": {"stimulus": 1155, "trial": 49, "rt": 1025, "response": "Beta"}, "66": {"stimulus": 905, "trial": 66, "rt": 531, "response": "Beta"}, "67": {"stimulus": 1468, "trial": 67, "rt": 1007, "response": "Beta"}, "68": {"stimulus": 437, "trial": 68, "rt": 1006, "response": "Beta"}, "69": {"stimulus": 812, "trial": 69, "rt": 1677, "response": "Alpha"}, "80": {"stimulus": 2405, "trial": 80, "rt": 886, "response": "Beta"}, "52": {"stimulus": 312, "trial": 52, "rt": 881, "response": "Alpha"}, "53": {"stimulus": 1905, "trial": 53, "rt": 1511, "response": "Beta"}, "24": {"stimulus": 2030, "trial": 24, "rt": 1021, "response": "Alpha"}, "25": {"stimulus": 93, "trial": 25, "rt": 900, "response": "Beta"}, "26": {"stimulus": 655, "trial": 26, "rt": 1399, "response": "Beta"}, "27": {"stimulus": 999, "trial": 27, "rt": 1109, "response": "Beta"}, "20": {"stimulus": 1562, "trial": 20, "rt": 1096, "response": "Beta"}, "21": {"stimulus": 218, "trial": 21, "rt": 1625, "response": "Beta"}, "22": {"stimulus": 1718, "trial": 22, "rt": 1457, "response": "Alpha"}, "23": {"stimulus": 2218, "trial": 23, "rt": 878, "response": "Beta"}, "46": {"stimulus": 2343, "trial": 46, "rt": 811, "response": "Alpha"}, "47": {"stimulus": 2187, "trial": 47, "rt": 431, "response": "Alpha"}, "44": {"stimulus": 1624, "trial": 44, "rt": 1458, "response": "Alpha"}, "45": {"stimulus": 1218, "trial": 45, "rt": 650, "response": "Alpha"}, "28": {"stimulus": 1437, "trial": 28, "rt": 1313, "response": "Alpha"}, "29": {"stimulus": 968, "trial": 29, "rt": 1010, "response": "Beta"}, "40": {"stimulus": 687, "trial": 40, "rt": 614, "response": "Beta"}, "41": {"stimulus": 2499, "trial": 41, "rt": 972, "response": "Alpha"}, "1": {"stimulus": 1093, "trial": 1, "rt": 1629, "response": "Beta"}, "0": {"stimulus": 1968, "trial": 0, "rt": 1325, "response": "Beta"}, "3": {"stimulus": 843, "trial": 3, "rt": 1242, "response": "Beta"}, "2": {"stimulus": 562, "trial": 2, "rt": 864, "response": "Alpha"}, "5": {"stimulus": 1249, "trial": 5, "rt": 2225, "response": "Beta"}, "4": {"stimulus": 1312, "trial": 4, "rt": 1302, "response": "Beta"}, "7": {"stimulus": 0, "trial": 7, "rt": 1112, "response": "Alpha"}, "6": {"stimulus": 1999, "trial": 6, "rt": 959, "response": "Alpha"}, "9": {"stimulus": 1499, "trial": 9, "rt": 1023, "response": "Beta"}, "8": {"stimulus": 1405, "trial": 8, "rt": 1437, "response": "Beta"}, "78": {"stimulus": 499, "trial": 78, "rt": 1048, "response": "Beta"}, "51": {"stimulus": 1030, "trial": 51, "rt": 1456, "response": "Alpha"}, "39": {"stimulus": 624, "trial": 39, "rt": 562, "response": "Beta"}, "65": {"stimulus": 405, "trial": 65, "rt": 747, "response": "Beta"}, "76": {"stimulus": 718, "trial": 76, "rt": 1226, "response": "Beta"}, "75": {"stimulus": 2374, "trial": 75, "rt": 4076, "response": "Beta"}, "38": {"stimulus": 249, "trial": 38, "rt": 692, "response": "Beta"}, "73": {"stimulus": 2093, "trial": 73, "rt": 1059, "response": "Alpha"}, "72": {"stimulus": 749, "trial": 72, "rt": 1146, "response": "Beta"}, "71": {"stimulus": 2062, "trial": 71, "rt": 752, "response": "Beta"}, "70": {"stimulus": 1937, "trial": 70, "rt": 925, "response": "Alpha"}, "59": {"stimulus": 2437, "trial": 59, "rt": 1000, "response": "Alpha"}, "79": {"stimulus": 374, "trial": 79, "rt": 1288, "response": "Beta"}, "58": {"stimulus": 468, "trial": 58, "rt": 745, "response": "Beta"}, "11": {"stimulus": 1687, "trial": 11, "rt": 1223, "response": "Alpha"}, "10": {"stimulus": 62, "trial": 10, "rt": 1937, "response": "Beta"}, "13": {"stimulus": 1124, "trial": 13, "rt": 541, "response": "Alpha"}, "12": {"stimulus": 1530, "trial": 12, "rt": 645, "response": "Alpha"}, "15": {"stimulus": 280, "trial": 15, "rt": 937, "response": "Beta"}, "14": {"stimulus": 2249, "trial": 14, "rt": 762, "response": "Alpha"}, "17": {"stimulus": 1343, "trial": 17, "rt": 972, "response": "Alpha"}, "16": {"stimulus": 1187, "trial": 16, "rt": 1427, "response": "Alpha"}, "19": {"stimulus": 1593, "trial": 19, "rt": 1955, "response": "Alpha"}, "18": {"stimulus": 1062, "trial": 18, "rt": 902, "response": "Beta"}, "31": {"stimulus": 1843, "trial": 31, "rt": 1071, "response": "Alpha"}, "30": {"stimulus": 30, "trial": 30, "rt": 1257, "response": "Beta"}, "37": {"stimulus": 1812, "trial": 37, "rt": 602, "response": "Beta"}, "36": {"stimulus": 937, "trial": 36, "rt": 987, "response": "Beta"}, "35": {"stimulus": 1280, "trial": 35, "rt": 1460, "response": "Beta"}, "34": {"stimulus": 343, "trial": 34, "rt": 911, "response": "Beta"}, "33": {"stimulus": 1874, "trial": 33, "rt": 728, "response": "Beta"}, "55": {"stimulus": 593, "trial": 55, "rt": 613, "response": "Beta"}, "74": {"stimulus": 2468, "trial": 74, "rt": 26383, "response": "Beta"}, "32": {"stimulus": 187, "trial": 32, "rt": 754, "response": "Beta"}, "57": {"stimulus": 2124, "trial": 57, "rt": 790, "response": "Beta"}, "50": {"stimulus": 2155, "trial": 50, "rt": 877, "response": "Beta"}}, "experiment": {"Paradigm": "TACL", "Stimuli": "Size-Color Squares", "Experiment": "Generating-Multiple-Categories"}, "submit": {"timeTotal": 568898, "age": "34", "comments": "", "sex": "female"}}