{"info": {"finish": 1548112987243, "participant": 241, "exposed": true, "lab": false, "start": 1548111629650, "counterbalance": 2, "gentype": 0, "condition": "Cluster", "browser": {"platform": "Win32", "userAgent": "Mozilla/5.0 (Windows NT 10.0; Win64; x64) AppleWebKit/537.36 (KHTML, like Gecko) Chrome/71.0.3578.98 Safari/537.36"}}, "observation": {"11": {"stimulus": 1093, "trial": 11, "rt": 2047}, "10": {"stimulus": 392, "trial": 10, "rt": 85511}, "1": {"stimulus": 1093, "trial": 1, "rt": 2525}, "0": {"stimulus": 583, "trial": 0, "rt": 2052}, "3": {"stimulus": 1083, "trial": 3, "rt": 7456}, "2": {"stimulus": 392, "trial": 2, "rt": 2434}, "5": {"stimulus": 1093, "trial": 5, "rt": 5863}, "4": {"stimulus": 1083, "trial": 4, "rt": 2265}, "7": {"stimulus": 583, "trial": 7, "rt": 1968}, "6": {"stimulus": 392, "trial": 6, "rt": 1622}, "9": {"stimulus": 1083, "trial": 9, "rt": 2054}, "8": {"stimulus": 583, "trial": 8, "rt": 2327}}, "generation": {"1": {"category": "Not-Alpha", "trial": 1, "stimulus": 2494, "rt": 4111}, "0": {"category": "Not-Alpha", "trial": 0, "stimulus": 2450, "rt": 10150}, "3": {"category": "Not-Alpha", "trial": 3, "stimulus": 2115, "rt": 6421}, "2": {"category": "Not-Alpha", "trial": 2, "stimulus": 2244, "rt": 4393}, "5": {"category": "Not-Alpha", "trial": 5, "stimulus": 2129, "rt": 1814}, "4": {"category": "Not-Alpha", "trial": 4, "stimulus": 2234, "rt": 3974}, "7": {"category": "Not-Alpha", "trial": 7, "stimulus": 2194, "rt": 2424}, "6": {"category": "Not-Alpha", "trial": 6, "stimulus": 2044, "rt": 2716}}, "generalization": {"56": {"stimulus": 937, "trial": 56, "rt": 106, "response": "Beta"}, "77": {"stimulus": 1093, "trial": 77, "rt": 11, "response": "Beta"}, "54": {"stimulus": 2468, "trial": 54, "rt": 457, "response": "Beta"}, "42": {"stimulus": 2155, "trial": 42, "rt": 204, "response": "Beta"}, "48": {"stimulus": 280, "trial": 48, "rt": 595, "response": "Beta"}, "43": {"stimulus": 1124, "trial": 43, "rt": 54, "response": "Beta"}, "60": {"stimulus": 2437, "trial": 60, "rt": 485, "response": "Alpha"}, "61": {"stimulus": 1343, "trial": 61, "rt": 124, "response": "Alpha"}, "62": {"stimulus": 1280, "trial": 62, "rt": 125, "response": "Beta"}, "63": {"stimulus": 1780, "trial": 63, "rt": 548, "response": "Alpha"}, "64": {"stimulus": 2249, "trial": 64, "rt": 680, "response": "Alpha"}, "49": {"stimulus": 1437, "trial": 49, "rt": 27, "response": "Beta"}, "66": {"stimulus": 1687, "trial": 66, "rt": 126, "response": "Alpha"}, "67": {"stimulus": 1312, "trial": 67, "rt": 113, "response": "Alpha"}, "68": {"stimulus": 874, "trial": 68, "rt": 51, "response": "Alpha"}, "69": {"stimulus": 1968, "trial": 69, "rt": 582, "response": "Alpha"}, "80": {"stimulus": 968, "trial": 80, "rt": 215, "response": "Beta"}, "52": {"stimulus": 1937, "trial": 52, "rt": 73, "response": "Beta"}, "53": {"stimulus": 1999, "trial": 53, "rt": 26, "response": "Beta"}, "24": {"stimulus": 687, "trial": 24, "rt": 881, "response": "Alpha"}, "25": {"stimulus": 1030, "trial": 25, "rt": 198, "response": "Alpha"}, "26": {"stimulus": 1655, "trial": 26, "rt": 134, "response": "Alpha"}, "27": {"stimulus": 2093, "trial": 27, "rt": 275, "response": "Alpha"}, "20": {"stimulus": 843, "trial": 20, "rt": 345, "response": "Alpha"}, "21": {"stimulus": 1718, "trial": 21, "rt": 345, "response": "Alpha"}, "22": {"stimulus": 124, "trial": 22, "rt": 241, "response": "Beta"}, "23": {"stimulus": 1468, "trial": 23, "rt": 304, "response": "Beta"}, "46": {"stimulus": 718, "trial": 46, "rt": 68, "response": "Alpha"}, "47": {"stimulus": 1499, "trial": 47, "rt": 124, "response": "Alpha"}, "44": {"stimulus": 1530, "trial": 44, "rt": 107, "response": "Alpha"}, "45": {"stimulus": 1874, "trial": 45, "rt": 49, "response": "Alpha"}, "28": {"stimulus": 2343, "trial": 28, "rt": 321, "response": "Alpha"}, "29": {"stimulus": 749, "trial": 29, "rt": 410, "response": "Alpha"}, "40": {"stimulus": 155, "trial": 40, "rt": 5451, "response": "Alpha"}, "41": {"stimulus": 2374, "trial": 41, "rt": 370, "response": "Alpha"}, "1": {"stimulus": 530, "trial": 1, "rt": 239, "response": "Beta"}, "0": {"stimulus": 1749, "trial": 0, "rt": 1609, "response": "Beta"}, "3": {"stimulus": 624, "trial": 3, "rt": 224, "response": "Alpha"}, "2": {"stimulus": 593, "trial": 2, "rt": 161, "response": "Beta"}, "5": {"stimulus": 2499, "trial": 5, "rt": 623, "response": "Alpha"}, "4": {"stimulus": 499, "trial": 4, "rt": 554, "response": "Alpha"}, "7": {"stimulus": 655, "trial": 7, "rt": 192, "response": "Beta"}, "6": {"stimulus": 2062, "trial": 6, "rt": 313, "response": "Beta"}, "9": {"stimulus": 2312, "trial": 9, "rt": 160, "response": "Alpha"}, "8": {"stimulus": 1593, "trial": 8, "rt": 274, "response": "Beta"}, "78": {"stimulus": 0, "trial": 78, "rt": 198, "response": "Beta"}, "51": {"stimulus": 312, "trial": 51, "rt": 137, "response": "Beta"}, "39": {"stimulus": 1812, "trial": 39, "rt": 363, "response": "Alpha"}, "65": {"stimulus": 2218, "trial": 65, "rt": 111, "response": "Alpha"}, "76": {"stimulus": 905, "trial": 76, "rt": 44, "response": "Alpha"}, "75": {"stimulus": 1062, "trial": 75, "rt": 461, "response": "Beta"}, "38": {"stimulus": 999, "trial": 38, "rt": 364, "response": "Alpha"}, "73": {"stimulus": 1905, "trial": 73, "rt": 207, "response": "Alpha"}, "72": {"stimulus": 562, "trial": 72, "rt": 326, "response": "Alpha"}, "71": {"stimulus": 468, "trial": 71, "rt": 1112, "response": "Alpha"}, "70": {"stimulus": 343, "trial": 70, "rt": 699, "response": "Alpha"}, "59": {"stimulus": 374, "trial": 59, "rt": 916, "response": "Beta"}, "79": {"stimulus": 2187, "trial": 79, "rt": 340, "response": "Alpha"}, "58": {"stimulus": 812, "trial": 58, "rt": 646, "response": "Alpha"}, "11": {"stimulus": 1155, "trial": 11, "rt": 376, "response": "Alpha"}, "10": {"stimulus": 1624, "trial": 10, "rt": 159, "response": "Alpha"}, "13": {"stimulus": 218, "trial": 13, "rt": 272, "response": "Alpha"}, "12": {"stimulus": 30, "trial": 12, "rt": 241, "response": "Alpha"}, "15": {"stimulus": 2405, "trial": 15, "rt": 329, "response": "Alpha"}, "14": {"stimulus": 780, "trial": 14, "rt": 265, "response": "Alpha"}, "17": {"stimulus": 2030, "trial": 17, "rt": 569, "response": "Alpha"}, "16": {"stimulus": 437, "trial": 16, "rt": 225, "response": "Alpha"}, "19": {"stimulus": 1405, "trial": 19, "rt": 278, "response": "Alpha"}, "18": {"stimulus": 249, "trial": 18, "rt": 257, "response": "Alpha"}, "31": {"stimulus": 1218, "trial": 31, "rt": 339, "response": "Alpha"}, "30": {"stimulus": 187, "trial": 30, "rt": 353, "response": "Alpha"}, "37": {"stimulus": 1374, "trial": 37, "rt": 313, "response": "Alpha"}, "36": {"stimulus": 2124, "trial": 36, "rt": 372, "response": "Alpha"}, "35": {"stimulus": 62, "trial": 35, "rt": 344, "response": "Alpha"}, "34": {"stimulus": 93, "trial": 34, "rt": 378, "response": "Alpha"}, "33": {"stimulus": 1843, "trial": 33, "rt": 361, "response": "Alpha"}, "55": {"stimulus": 2280, "trial": 55, "rt": 94, "response": "Beta"}, "74": {"stimulus": 405, "trial": 74, "rt": 655, "response": "Alpha"}, "32": {"stimulus": 1562, "trial": 32, "rt": 330, "response": "Alpha"}, "57": {"stimulus": 1187, "trial": 57, "rt": 19, "response": "Beta"}, "50": {"stimulus": 1249, "trial": 50, "rt": 467, "response": "Beta"}}, "experiment": {"Paradigm": "TACL", "Stimuli": "Size-Color Squares", "Experiment": "Generating-Multiple-Categories"}, "submit": {"timeTotal": 1358160, "age": "36", "comments": "It was very interesting! I tried my best given the instructions and I hope I helped out your research. Thanks!", "sex": "male"}}