{"info": {"finish": 1548115089531, "participant": 243, "exposed": true, "lab": false, "start": 1548114731766, "counterbalance": 2, "gentype": 0, "condition": "Row", "browser": {"platform": "Win32", "userAgent": "Mozilla/5.0 (Windows NT 6.3; Win64; x64) AppleWebKit/537.36 (KHTML, like Gecko) Chrome/71.0.3578.98 Safari/537.36"}}, "observation": {"11": {"stimulus": 612, "trial": 11, "rt": 2419}, "10": {"stimulus": 493, "trial": 10, "rt": 1720}, "1": {"stimulus": 612, "trial": 1, "rt": 59853}, "0": {"stimulus": 493, "trial": 0, "rt": 4665}, "3": {"stimulus": 421, "trial": 3, "rt": 2025}, "2": {"stimulus": 582, "trial": 2, "rt": 2308}, "5": {"stimulus": 421, "trial": 5, "rt": 1824}, "4": {"stimulus": 493, "trial": 4, "rt": 2183}, "7": {"stimulus": 612, "trial": 7, "rt": 1709}, "6": {"stimulus": 582, "trial": 6, "rt": 1756}, "9": {"stimulus": 582, "trial": 9, "rt": 1688}, "8": {"stimulus": 421, "trial": 8, "rt": 1710}}, "generation": {"1": {"category": "Not-Alpha", "trial": 1, "stimulus": 2467, "rt": 17708}, "0": {"category": "Not-Alpha", "trial": 0, "stimulus": 2450, "rt": 15895}, "3": {"category": "Not-Alpha", "trial": 3, "stimulus": 2464, "rt": 5018}, "2": {"category": "Not-Alpha", "trial": 2, "stimulus": 2462, "rt": 6537}, "5": {"category": "Not-Alpha", "trial": 5, "stimulus": 2468, "rt": 10440}, "4": {"category": "Not-Alpha", "trial": 4, "stimulus": 2465, "rt": 4691}, "7": {"category": "Not-Alpha", "trial": 7, "stimulus": 2482, "rt": 4241}, "6": {"category": "Not-Alpha", "trial": 6, "stimulus": 2484, "rt": 4702}}, "generalization": {"56": {"stimulus": 1843, "trial": 56, "rt": 584, "response": "Beta"}, "77": {"stimulus": 1718, "trial": 77, "rt": 495, "response": "Beta"}, "54": {"stimulus": 2343, "trial": 54, "rt": 596, "response": "Beta"}, "42": {"stimulus": 187, "trial": 42, "rt": 451, "response": "Beta"}, "48": {"stimulus": 1405, "trial": 48, "rt": 586, "response": "Beta"}, "43": {"stimulus": 999, "trial": 43, "rt": 753, "response": "Beta"}, "60": {"stimulus": 1343, "trial": 60, "rt": 563, "response": "Beta"}, "61": {"stimulus": 30, "trial": 61, "rt": 788, "response": "Alpha"}, "62": {"stimulus": 2499, "trial": 62, "rt": 653, "response": "Beta"}, "63": {"stimulus": 2374, "trial": 63, "rt": 562, "response": "Beta"}, "64": {"stimulus": 843, "trial": 64, "rt": 1394, "response": "Alpha"}, "49": {"stimulus": 2155, "trial": 49, "rt": 530, "response": "Beta"}, "66": {"stimulus": 968, "trial": 66, "rt": 698, "response": "Beta"}, "67": {"stimulus": 905, "trial": 67, "rt": 563, "response": "Beta"}, "68": {"stimulus": 780, "trial": 68, "rt": 721, "response": "Beta"}, "69": {"stimulus": 1374, "trial": 69, "rt": 675, "response": "Beta"}, "80": {"stimulus": 1249, "trial": 80, "rt": 778, "response": "Beta"}, "52": {"stimulus": 2437, "trial": 52, "rt": 530, "response": "Beta"}, "53": {"stimulus": 937, "trial": 53, "rt": 1046, "response": "Beta"}, "24": {"stimulus": 2405, "trial": 24, "rt": 564, "response": "Beta"}, "25": {"stimulus": 1905, "trial": 25, "rt": 596, "response": "Beta"}, "26": {"stimulus": 2187, "trial": 26, "rt": 822, "response": "Beta"}, "27": {"stimulus": 1062, "trial": 27, "rt": 776, "response": "Beta"}, "20": {"stimulus": 499, "trial": 20, "rt": 2868, "response": "Alpha"}, "21": {"stimulus": 1812, "trial": 21, "rt": 663, "response": "Beta"}, "22": {"stimulus": 1093, "trial": 22, "rt": 1699, "response": "Beta"}, "23": {"stimulus": 1562, "trial": 23, "rt": 1475, "response": "Beta"}, "46": {"stimulus": 1530, "trial": 46, "rt": 562, "response": "Beta"}, "47": {"stimulus": 655, "trial": 47, "rt": 708, "response": "Beta"}, "44": {"stimulus": 1155, "trial": 44, "rt": 562, "response": "Beta"}, "45": {"stimulus": 343, "trial": 45, "rt": 921, "response": "Alpha"}, "28": {"stimulus": 1937, "trial": 28, "rt": 911, "response": "Beta"}, "29": {"stimulus": 280, "trial": 29, "rt": 1327, "response": "Alpha"}, "40": {"stimulus": 1124, "trial": 40, "rt": 574, "response": "Beta"}, "41": {"stimulus": 530, "trial": 41, "rt": 1159, "response": "Alpha"}, "1": {"stimulus": 2062, "trial": 1, "rt": 1237, "response": "Beta"}, "0": {"stimulus": 1874, "trial": 0, "rt": 3227, "response": "Beta"}, "3": {"stimulus": 1655, "trial": 3, "rt": 1204, "response": "Beta"}, "2": {"stimulus": 218, "trial": 2, "rt": 1114, "response": "Alpha"}, "5": {"stimulus": 562, "trial": 5, "rt": 2834, "response": "Alpha"}, "4": {"stimulus": 1030, "trial": 4, "rt": 1464, "response": "Beta"}, "7": {"stimulus": 0, "trial": 7, "rt": 731, "response": "Alpha"}, "6": {"stimulus": 62, "trial": 6, "rt": 1046, "response": "Alpha"}, "9": {"stimulus": 437, "trial": 9, "rt": 1002, "response": "Alpha"}, "8": {"stimulus": 405, "trial": 8, "rt": 1350, "response": "Alpha"}, "78": {"stimulus": 2218, "trial": 78, "rt": 574, "response": "Beta"}, "51": {"stimulus": 2093, "trial": 51, "rt": 538, "response": "Beta"}, "39": {"stimulus": 468, "trial": 39, "rt": 1215, "response": "Alpha"}, "65": {"stimulus": 93, "trial": 65, "rt": 765, "response": "Alpha"}, "76": {"stimulus": 1687, "trial": 76, "rt": 574, "response": "Beta"}, "75": {"stimulus": 1468, "trial": 75, "rt": 618, "response": "Beta"}, "38": {"stimulus": 687, "trial": 38, "rt": 1182, "response": "Beta"}, "73": {"stimulus": 2312, "trial": 73, "rt": 629, "response": "Beta"}, "72": {"stimulus": 624, "trial": 72, "rt": 1136, "response": "Beta"}, "71": {"stimulus": 593, "trial": 71, "rt": 909, "response": "Alpha"}, "70": {"stimulus": 1593, "trial": 70, "rt": 632, "response": "Beta"}, "59": {"stimulus": 812, "trial": 59, "rt": 922, "response": "Beta"}, "79": {"stimulus": 1187, "trial": 79, "rt": 753, "response": "Beta"}, "58": {"stimulus": 2030, "trial": 58, "rt": 527, "response": "Beta"}, "11": {"stimulus": 1280, "trial": 11, "rt": 628, "response": "Beta"}, "10": {"stimulus": 1312, "trial": 10, "rt": 1148, "response": "Beta"}, "13": {"stimulus": 1968, "trial": 13, "rt": 899, "response": "Beta"}, "12": {"stimulus": 124, "trial": 12, "rt": 1104, "response": "Alpha"}, "15": {"stimulus": 2124, "trial": 15, "rt": 14591, "response": "Beta"}, "14": {"stimulus": 2468, "trial": 14, "rt": 676, "response": "Beta"}, "17": {"stimulus": 2280, "trial": 17, "rt": 810, "response": "Beta"}, "16": {"stimulus": 249, "trial": 16, "rt": 901, "response": "Alpha"}, "19": {"stimulus": 374, "trial": 19, "rt": 808, "response": "Alpha"}, "18": {"stimulus": 1999, "trial": 18, "rt": 551, "response": "Beta"}, "31": {"stimulus": 718, "trial": 31, "rt": 958, "response": "Beta"}, "30": {"stimulus": 155, "trial": 30, "rt": 799, "response": "Alpha"}, "37": {"stimulus": 312, "trial": 37, "rt": 1754, "response": "Beta"}, "36": {"stimulus": 1218, "trial": 36, "rt": 586, "response": "Beta"}, "35": {"stimulus": 2249, "trial": 35, "rt": 595, "response": "Beta"}, "34": {"stimulus": 1499, "trial": 34, "rt": 572, "response": "Beta"}, "33": {"stimulus": 1437, "trial": 33, "rt": 530, "response": "Beta"}, "55": {"stimulus": 1624, "trial": 55, "rt": 687, "response": "Beta"}, "74": {"stimulus": 874, "trial": 74, "rt": 843, "response": "Beta"}, "32": {"stimulus": 1749, "trial": 32, "rt": 606, "response": "Beta"}, "57": {"stimulus": 749, "trial": 57, "rt": 865, "response": "Beta"}, "50": {"stimulus": 1780, "trial": 50, "rt": 473, "response": "Beta"}}, "experiment": {"Paradigm": "TACL", "Stimuli": "Size-Color Squares", "Experiment": "Generating-Multiple-Categories"}, "submit": {"timeTotal": 357942, "age": "30", "comments": "Great Study, hope to do more in the future.", "sex": "Male"}}