{"info": {"finish": 1548115154534, "participant": 247, "exposed": true, "lab": false, "start": 1548114833220, "counterbalance": 4, "gentype": 2, "condition": "XOR", "browser": {"platform": "Linux x86_64", "userAgent": "Mozilla/5.0 (X11; CrOS x86_64 11021.81.0) AppleWebKit/537.36 (KHTML, like Gecko) Chrome/70.0.3538.110 Safari/537.36"}}, "observation": {"11": {"stimulus": 403, "trial": 11, "rt": 1398}, "10": {"stimulus": 818, "trial": 10, "rt": 1430}, "1": {"stimulus": 1479, "trial": 1, "rt": 2205}, "0": {"stimulus": 1890, "trial": 0, "rt": 2785}, "3": {"stimulus": 403, "trial": 3, "rt": 1712}, "2": {"stimulus": 818, "trial": 2, "rt": 2147}, "5": {"stimulus": 818, "trial": 5, "rt": 1542}, "4": {"stimulus": 403, "trial": 4, "rt": 1452}, "7": {"stimulus": 1890, "trial": 7, "rt": 1386}, "6": {"stimulus": 1479, "trial": 6, "rt": 1591}, "9": {"stimulus": 1479, "trial": 9, "rt": 1307}, "8": {"stimulus": 1890, "trial": 8, "rt": 1266}}, "generation": {"1": {"category": "Beta", "trial": 1, "stimulus": 2464, "rt": 10724}, "0": {"category": "Beta", "trial": 0, "stimulus": 2353, "rt": 17604}, "3": {"category": "Beta", "trial": 3, "stimulus": 2455, "rt": 3509}, "2": {"category": "Beta", "trial": 2, "stimulus": 2451, "rt": 6707}, "5": {"category": "Gamma", "trial": 5, "stimulus": 29, "rt": 5811}, "4": {"category": "Gamma", "trial": 4, "stimulus": 5, "rt": 8415}, "7": {"category": "Gamma", "trial": 7, "stimulus": 19, "rt": 4220}, "6": {"category": "Gamma", "trial": 6, "stimulus": 14, "rt": 5668}}, "generalization": {"56": {"stimulus": 1780, "trial": 56, "rt": 1558, "response": "Alpha"}, "77": {"stimulus": 874, "trial": 77, "rt": 596, "response": "Alpha"}, "54": {"stimulus": 187, "trial": 54, "rt": 663, "response": "Alpha"}, "42": {"stimulus": 1124, "trial": 42, "rt": 1487, "response": "Beta"}, "48": {"stimulus": 1093, "trial": 48, "rt": 863, "response": "Alpha"}, "43": {"stimulus": 1562, "trial": 43, "rt": 5003, "response": "Beta"}, "60": {"stimulus": 593, "trial": 60, "rt": 1037, "response": "Alpha"}, "61": {"stimulus": 2093, "trial": 61, "rt": 2055, "response": "Alpha"}, "62": {"stimulus": 937, "trial": 62, "rt": 997, "response": "Alpha"}, "63": {"stimulus": 718, "trial": 63, "rt": 1310, "response": "Alpha"}, "64": {"stimulus": 1405, "trial": 64, "rt": 931, "response": "Beta"}, "49": {"stimulus": 1687, "trial": 49, "rt": 846, "response": "Alpha"}, "66": {"stimulus": 1624, "trial": 66, "rt": 537, "response": "Alpha"}, "67": {"stimulus": 93, "trial": 67, "rt": 1227, "response": "Alpha"}, "68": {"stimulus": 968, "trial": 68, "rt": 756, "response": "Alpha"}, "69": {"stimulus": 1843, "trial": 69, "rt": 525, "response": "Alpha"}, "80": {"stimulus": 1749, "trial": 80, "rt": 627, "response": "Alpha"}, "52": {"stimulus": 687, "trial": 52, "rt": 1358, "response": "Alpha"}, "53": {"stimulus": 2280, "trial": 53, "rt": 1194, "response": "Alpha"}, "24": {"stimulus": 2030, "trial": 24, "rt": 1194, "response": "Alpha"}, "25": {"stimulus": 437, "trial": 25, "rt": 1118, "response": "Alpha"}, "26": {"stimulus": 1905, "trial": 26, "rt": 1596, "response": "Beta"}, "27": {"stimulus": 1812, "trial": 27, "rt": 984, "response": "Beta"}, "20": {"stimulus": 843, "trial": 20, "rt": 832, "response": "Alpha"}, "21": {"stimulus": 1030, "trial": 21, "rt": 946, "response": "Alpha"}, "22": {"stimulus": 655, "trial": 22, "rt": 2118, "response": "Beta"}, "23": {"stimulus": 1218, "trial": 23, "rt": 3140, "response": "Beta"}, "46": {"stimulus": 0, "trial": 46, "rt": 974, "response": "Gamma"}, "47": {"stimulus": 2155, "trial": 47, "rt": 881, "response": "Beta"}, "44": {"stimulus": 749, "trial": 44, "rt": 783, "response": "Alpha"}, "45": {"stimulus": 2062, "trial": 45, "rt": 972, "response": "Beta"}, "28": {"stimulus": 624, "trial": 28, "rt": 1329, "response": "Alpha"}, "29": {"stimulus": 2187, "trial": 29, "rt": 2101, "response": "Beta"}, "40": {"stimulus": 1499, "trial": 40, "rt": 819, "response": "Alpha"}, "41": {"stimulus": 62, "trial": 41, "rt": 963, "response": "Gamma"}, "1": {"stimulus": 1468, "trial": 1, "rt": 3960, "response": "Beta"}, "0": {"stimulus": 1593, "trial": 0, "rt": 4027, "response": "Alpha"}, "3": {"stimulus": 2249, "trial": 3, "rt": 1458, "response": "Alpha"}, "2": {"stimulus": 1530, "trial": 2, "rt": 1914, "response": "Alpha"}, "5": {"stimulus": 2312, "trial": 5, "rt": 1167, "response": "Beta"}, "4": {"stimulus": 2124, "trial": 4, "rt": 1217, "response": "Alpha"}, "7": {"stimulus": 405, "trial": 7, "rt": 1294, "response": "Gamma"}, "6": {"stimulus": 2374, "trial": 6, "rt": 1901, "response": "Alpha"}, "9": {"stimulus": 1999, "trial": 9, "rt": 864, "response": "Alpha"}, "8": {"stimulus": 1937, "trial": 8, "rt": 1031, "response": "Beta"}, "78": {"stimulus": 1968, "trial": 78, "rt": 1411, "response": "Beta"}, "51": {"stimulus": 1655, "trial": 51, "rt": 958, "response": "Beta"}, "39": {"stimulus": 530, "trial": 39, "rt": 1693, "response": "Gamma"}, "65": {"stimulus": 1249, "trial": 65, "rt": 825, "response": "Alpha"}, "76": {"stimulus": 905, "trial": 76, "rt": 1852, "response": "Alpha"}, "75": {"stimulus": 280, "trial": 75, "rt": 6505, "response": "Alpha"}, "38": {"stimulus": 312, "trial": 38, "rt": 1437, "response": "Gamma"}, "73": {"stimulus": 2218, "trial": 73, "rt": 999, "response": "Beta"}, "72": {"stimulus": 218, "trial": 72, "rt": 1002, "response": "Gamma"}, "71": {"stimulus": 155, "trial": 71, "rt": 1247, "response": "Gamma"}, "70": {"stimulus": 468, "trial": 70, "rt": 635, "response": "Alpha"}, "59": {"stimulus": 249, "trial": 59, "rt": 917, "response": "Alpha"}, "79": {"stimulus": 780, "trial": 79, "rt": 655, "response": "Alpha"}, "58": {"stimulus": 812, "trial": 58, "rt": 2026, "response": "Alpha"}, "11": {"stimulus": 562, "trial": 11, "rt": 1641, "response": "Gamma"}, "10": {"stimulus": 2405, "trial": 10, "rt": 872, "response": "Beta"}, "13": {"stimulus": 1343, "trial": 13, "rt": 853, "response": "Alpha"}, "12": {"stimulus": 1280, "trial": 12, "rt": 2450, "response": "Beta"}, "15": {"stimulus": 1062, "trial": 15, "rt": 1518, "response": "Beta"}, "14": {"stimulus": 1437, "trial": 14, "rt": 648, "response": "Alpha"}, "17": {"stimulus": 374, "trial": 17, "rt": 1354, "response": "Gamma"}, "16": {"stimulus": 2343, "trial": 16, "rt": 1224, "response": "Alpha"}, "19": {"stimulus": 1374, "trial": 19, "rt": 898, "response": "Beta"}, "18": {"stimulus": 1718, "trial": 18, "rt": 1746, "response": "Beta"}, "31": {"stimulus": 2437, "trial": 31, "rt": 981, "response": "Beta"}, "30": {"stimulus": 999, "trial": 30, "rt": 1337, "response": "Alpha"}, "37": {"stimulus": 499, "trial": 37, "rt": 1744, "response": "Alpha"}, "36": {"stimulus": 2468, "trial": 36, "rt": 999, "response": "Beta"}, "35": {"stimulus": 1187, "trial": 35, "rt": 1397, "response": "Alpha"}, "34": {"stimulus": 1312, "trial": 34, "rt": 1342, "response": "Alpha"}, "33": {"stimulus": 1874, "trial": 33, "rt": 1296, "response": "Beta"}, "55": {"stimulus": 30, "trial": 55, "rt": 1325, "response": "Alpha"}, "74": {"stimulus": 343, "trial": 74, "rt": 737, "response": "Alpha"}, "32": {"stimulus": 1155, "trial": 32, "rt": 1423, "response": "Beta"}, "57": {"stimulus": 124, "trial": 57, "rt": 1694, "response": "Alpha"}, "50": {"stimulus": 2499, "trial": 50, "rt": 624, "response": "Alpha"}}, "experiment": {"Paradigm": "TACL", "Stimuli": "Size-Color Squares", "Experiment": "Generating-Multiple-Categories"}, "submit": {"timeTotal": 321556, "age": "23", "comments": "", "sex": "male"}}