{"info": {"finish": 1548120709692, "participant": 254, "exposed": true, "lab": false, "start": 1548120344177, "counterbalance": 7, "gentype": 1, "condition": "Cluster", "browser": {"platform": "Win32", "userAgent": "Mozilla/5.0 (Windows NT 10.0; Win64; x64) AppleWebKit/537.36 (KHTML, like Gecko) Chrome/71.0.3578.98 Safari/537.36"}}, "observation": {"11": {"stimulus": 1093, "trial": 11, "rt": 1961}, "10": {"stimulus": 1083, "trial": 10, "rt": 1885}, "1": {"stimulus": 392, "trial": 1, "rt": 3514}, "0": {"stimulus": 1093, "trial": 0, "rt": 3729}, "3": {"stimulus": 1083, "trial": 3, "rt": 3007}, "2": {"stimulus": 583, "trial": 2, "rt": 2820}, "5": {"stimulus": 1093, "trial": 5, "rt": 1874}, "4": {"stimulus": 583, "trial": 4, "rt": 2143}, "7": {"stimulus": 1083, "trial": 7, "rt": 2154}, "6": {"stimulus": 392, "trial": 6, "rt": 1723}, "9": {"stimulus": 392, "trial": 9, "rt": 1950}, "8": {"stimulus": 583, "trial": 8, "rt": 1706}}, "generation": {"1": {"category": "Beta", "trial": 1, "stimulus": 2451, "rt": 7782}, "0": {"category": "Beta", "trial": 0, "stimulus": 2353, "rt": 23373}, "3": {"category": "Beta", "trial": 3, "stimulus": 2252, "rt": 6485}, "2": {"category": "Beta", "trial": 2, "stimulus": 2303, "rt": 6570}, "5": {"category": "Beta", "trial": 5, "stimulus": 2201, "rt": 9078}, "4": {"category": "Beta", "trial": 4, "stimulus": 2302, "rt": 7339}, "7": {"category": "Beta", "trial": 7, "stimulus": 2358, "rt": 7025}, "6": {"category": "Beta", "trial": 6, "stimulus": 2407, "rt": 7708}}, "generalization": {"56": {"stimulus": 874, "trial": 56, "rt": 1648, "response": "Alpha"}, "77": {"stimulus": 218, "trial": 77, "rt": 1592, "response": "Beta"}, "54": {"stimulus": 1155, "trial": 54, "rt": 1616, "response": "Beta"}, "42": {"stimulus": 749, "trial": 42, "rt": 824, "response": "Alpha"}, "48": {"stimulus": 499, "trial": 48, "rt": 1105, "response": "Alpha"}, "43": {"stimulus": 2468, "trial": 43, "rt": 1356, "response": "Beta"}, "60": {"stimulus": 780, "trial": 60, "rt": 1054, "response": "Alpha"}, "61": {"stimulus": 2155, "trial": 61, "rt": 1129, "response": "Beta"}, "62": {"stimulus": 93, "trial": 62, "rt": 1177, "response": "Alpha"}, "63": {"stimulus": 2280, "trial": 63, "rt": 1193, "response": "Beta"}, "64": {"stimulus": 280, "trial": 64, "rt": 1984, "response": "Alpha"}, "49": {"stimulus": 312, "trial": 49, "rt": 1289, "response": "Beta"}, "66": {"stimulus": 1593, "trial": 66, "rt": 1182, "response": "Beta"}, "67": {"stimulus": 718, "trial": 67, "rt": 1648, "response": "Alpha"}, "68": {"stimulus": 1624, "trial": 68, "rt": 1196, "response": "Beta"}, "69": {"stimulus": 374, "trial": 69, "rt": 1962, "response": "Alpha"}, "80": {"stimulus": 1343, "trial": 80, "rt": 1799, "response": "Alpha"}, "52": {"stimulus": 1468, "trial": 52, "rt": 1322, "response": "Beta"}, "53": {"stimulus": 1562, "trial": 53, "rt": 922, "response": "Beta"}, "24": {"stimulus": 812, "trial": 24, "rt": 1050, "response": "Beta"}, "25": {"stimulus": 187, "trial": 25, "rt": 1223, "response": "Alpha"}, "26": {"stimulus": 1124, "trial": 26, "rt": 1427, "response": "Beta"}, "27": {"stimulus": 2249, "trial": 27, "rt": 1095, "response": "Beta"}, "20": {"stimulus": 1999, "trial": 20, "rt": 1252, "response": "Beta"}, "21": {"stimulus": 1687, "trial": 21, "rt": 1343, "response": "Beta"}, "22": {"stimulus": 1405, "trial": 22, "rt": 1189, "response": "Beta"}, "23": {"stimulus": 562, "trial": 23, "rt": 1102, "response": "Beta"}, "46": {"stimulus": 593, "trial": 46, "rt": 1286, "response": "Alpha"}, "47": {"stimulus": 2218, "trial": 47, "rt": 1178, "response": "Beta"}, "44": {"stimulus": 624, "trial": 44, "rt": 2183, "response": "Alpha"}, "45": {"stimulus": 1749, "trial": 45, "rt": 1516, "response": "Beta"}, "28": {"stimulus": 1218, "trial": 28, "rt": 3586, "response": "Beta"}, "29": {"stimulus": 1937, "trial": 29, "rt": 1287, "response": "Beta"}, "40": {"stimulus": 1780, "trial": 40, "rt": 2023, "response": "Beta"}, "41": {"stimulus": 1499, "trial": 41, "rt": 1172, "response": "Alpha"}, "1": {"stimulus": 1187, "trial": 1, "rt": 2144, "response": "Alpha"}, "0": {"stimulus": 2030, "trial": 0, "rt": 3103, "response": "Beta"}, "3": {"stimulus": 655, "trial": 3, "rt": 5393, "response": "Beta"}, "2": {"stimulus": 999, "trial": 2, "rt": 1094, "response": "Alpha"}, "5": {"stimulus": 2062, "trial": 5, "rt": 1797, "response": "Beta"}, "4": {"stimulus": 62, "trial": 4, "rt": 2875, "response": "Beta"}, "7": {"stimulus": 1062, "trial": 7, "rt": 3456, "response": "Beta"}, "6": {"stimulus": 2187, "trial": 6, "rt": 1194, "response": "Beta"}, "9": {"stimulus": 1968, "trial": 9, "rt": 1494, "response": "Beta"}, "8": {"stimulus": 968, "trial": 8, "rt": 2454, "response": "Alpha"}, "78": {"stimulus": 1030, "trial": 78, "rt": 1458, "response": "Alpha"}, "51": {"stimulus": 2093, "trial": 51, "rt": 1564, "response": "Beta"}, "39": {"stimulus": 0, "trial": 39, "rt": 1697, "response": "Beta"}, "65": {"stimulus": 1312, "trial": 65, "rt": 1343, "response": "Beta"}, "76": {"stimulus": 405, "trial": 76, "rt": 1352, "response": "Beta"}, "75": {"stimulus": 937, "trial": 75, "rt": 782, "response": "Alpha"}, "38": {"stimulus": 2312, "trial": 38, "rt": 1288, "response": "Beta"}, "73": {"stimulus": 2437, "trial": 73, "rt": 2027, "response": "Beta"}, "72": {"stimulus": 1905, "trial": 72, "rt": 1103, "response": "Beta"}, "71": {"stimulus": 1812, "trial": 71, "rt": 1348, "response": "Beta"}, "70": {"stimulus": 1437, "trial": 70, "rt": 2176, "response": "Alpha"}, "59": {"stimulus": 1374, "trial": 59, "rt": 1874, "response": "Alpha"}, "79": {"stimulus": 1655, "trial": 79, "rt": 1243, "response": "Beta"}, "58": {"stimulus": 2374, "trial": 58, "rt": 1203, "response": "Beta"}, "11": {"stimulus": 1093, "trial": 11, "rt": 4000, "response": "Alpha"}, "10": {"stimulus": 2343, "trial": 10, "rt": 1216, "response": "Beta"}, "13": {"stimulus": 2405, "trial": 13, "rt": 1376, "response": "Beta"}, "12": {"stimulus": 687, "trial": 12, "rt": 1176, "response": "Alpha"}, "15": {"stimulus": 1280, "trial": 15, "rt": 995, "response": "Alpha"}, "14": {"stimulus": 1530, "trial": 14, "rt": 1920, "response": "Alpha"}, "17": {"stimulus": 905, "trial": 17, "rt": 1334, "response": "Beta"}, "16": {"stimulus": 124, "trial": 16, "rt": 1327, "response": "Alpha"}, "19": {"stimulus": 249, "trial": 19, "rt": 875, "response": "Alpha"}, "18": {"stimulus": 437, "trial": 18, "rt": 3606, "response": "Alpha"}, "31": {"stimulus": 530, "trial": 31, "rt": 1485, "response": "Alpha"}, "30": {"stimulus": 2499, "trial": 30, "rt": 1169, "response": "Beta"}, "37": {"stimulus": 30, "trial": 37, "rt": 1785, "response": "Alpha"}, "36": {"stimulus": 155, "trial": 36, "rt": 1858, "response": "Beta"}, "35": {"stimulus": 1718, "trial": 35, "rt": 903, "response": "Beta"}, "34": {"stimulus": 1874, "trial": 34, "rt": 1478, "response": "Beta"}, "33": {"stimulus": 1249, "trial": 33, "rt": 1155, "response": "Alpha"}, "55": {"stimulus": 1843, "trial": 55, "rt": 1081, "response": "Beta"}, "74": {"stimulus": 468, "trial": 74, "rt": 1325, "response": "Alpha"}, "32": {"stimulus": 343, "trial": 32, "rt": 859, "response": "Alpha"}, "57": {"stimulus": 843, "trial": 57, "rt": 955, "response": "Alpha"}, "50": {"stimulus": 2124, "trial": 50, "rt": 1018, "response": "Beta"}}, "experiment": {"Paradigm": "TACL", "Stimuli": "Size-Color Squares", "Experiment": "Generating-Multiple-Categories"}, "submit": {"timeTotal": 365839, "age": "57", "comments": "it was fairly interesting", "sex": "male"}}