{"info": {"finish": 1548122052801, "participant": 257, "exposed": true, "lab": false, "start": 1548121764746, "counterbalance": 3, "gentype": 0, "condition": "Row", "browser": {"platform": "Win32", "userAgent": "Mozilla/5.0 (Windows NT 10.0; Win64; x64; rv:64.0) Gecko/20100101 Firefox/64.0"}}, "observation": {"11": {"stimulus": 493, "trial": 11, "rt": 1300}, "10": {"stimulus": 612, "trial": 10, "rt": 1282}, "1": {"stimulus": 493, "trial": 1, "rt": 2092}, "0": {"stimulus": 421, "trial": 0, "rt": 2340}, "3": {"stimulus": 582, "trial": 3, "rt": 1631}, "2": {"stimulus": 612, "trial": 2, "rt": 1828}, "5": {"stimulus": 421, "trial": 5, "rt": 1407}, "4": {"stimulus": 612, "trial": 4, "rt": 1440}, "7": {"stimulus": 493, "trial": 7, "rt": 1351}, "6": {"stimulus": 582, "trial": 6, "rt": 1451}, "9": {"stimulus": 421, "trial": 9, "rt": 1401}, "8": {"stimulus": 582, "trial": 8, "rt": 1400}}, "generation": {"1": {"category": "Not-Alpha", "trial": 1, "stimulus": 1900, "rt": 8861}, "0": {"category": "Not-Alpha", "trial": 0, "stimulus": 2479, "rt": 8404}, "3": {"category": "Not-Alpha", "trial": 3, "stimulus": 1327, "rt": 7275}, "2": {"category": "Not-Alpha", "trial": 2, "stimulus": 49, "rt": 7017}, "5": {"category": "Not-Alpha", "trial": 5, "stimulus": 11, "rt": 14520}, "4": {"category": "Not-Alpha", "trial": 4, "stimulus": 1650, "rt": 5534}, "7": {"category": "Not-Alpha", "trial": 7, "stimulus": 1714, "rt": 5274}, "6": {"category": "Not-Alpha", "trial": 6, "stimulus": 2049, "rt": 5911}}, "generalization": {"56": {"stimulus": 1468, "trial": 56, "rt": 778, "response": "Beta"}, "77": {"stimulus": 2062, "trial": 77, "rt": 462, "response": "Beta"}, "54": {"stimulus": 905, "trial": 54, "rt": 1410, "response": "Beta"}, "42": {"stimulus": 1749, "trial": 42, "rt": 458, "response": "Beta"}, "48": {"stimulus": 1187, "trial": 48, "rt": 702, "response": "Beta"}, "43": {"stimulus": 249, "trial": 43, "rt": 1039, "response": "Alpha"}, "60": {"stimulus": 1968, "trial": 60, "rt": 461, "response": "Beta"}, "61": {"stimulus": 1249, "trial": 61, "rt": 1051, "response": "Beta"}, "62": {"stimulus": 1812, "trial": 62, "rt": 445, "response": "Beta"}, "63": {"stimulus": 30, "trial": 63, "rt": 1351, "response": "Beta"}, "64": {"stimulus": 499, "trial": 64, "rt": 693, "response": "Alpha"}, "49": {"stimulus": 1437, "trial": 49, "rt": 630, "response": "Beta"}, "66": {"stimulus": 749, "trial": 66, "rt": 1097, "response": "Alpha"}, "67": {"stimulus": 655, "trial": 67, "rt": 797, "response": "Alpha"}, "68": {"stimulus": 1530, "trial": 68, "rt": 449, "response": "Beta"}, "69": {"stimulus": 155, "trial": 69, "rt": 920, "response": "Alpha"}, "80": {"stimulus": 343, "trial": 80, "rt": 716, "response": "Alpha"}, "52": {"stimulus": 1280, "trial": 52, "rt": 721, "response": "Beta"}, "53": {"stimulus": 468, "trial": 53, "rt": 1000, "response": "Alpha"}, "24": {"stimulus": 2499, "trial": 24, "rt": 491, "response": "Beta"}, "25": {"stimulus": 1874, "trial": 25, "rt": 481, "response": "Beta"}, "26": {"stimulus": 2374, "trial": 26, "rt": 418, "response": "Beta"}, "27": {"stimulus": 530, "trial": 27, "rt": 883, "response": "Alpha"}, "20": {"stimulus": 1718, "trial": 20, "rt": 495, "response": "Beta"}, "21": {"stimulus": 1374, "trial": 21, "rt": 780, "response": "Beta"}, "22": {"stimulus": 1093, "trial": 22, "rt": 1101, "response": "Beta"}, "23": {"stimulus": 1343, "trial": 23, "rt": 782, "response": "Beta"}, "46": {"stimulus": 2249, "trial": 46, "rt": 702, "response": "Beta"}, "47": {"stimulus": 1562, "trial": 47, "rt": 739, "response": "Beta"}, "44": {"stimulus": 999, "trial": 44, "rt": 740, "response": "Beta"}, "45": {"stimulus": 718, "trial": 45, "rt": 3127, "response": "Beta"}, "28": {"stimulus": 2343, "trial": 28, "rt": 721, "response": "Beta"}, "29": {"stimulus": 1655, "trial": 29, "rt": 462, "response": "Beta"}, "40": {"stimulus": 1312, "trial": 40, "rt": 921, "response": "Beta"}, "41": {"stimulus": 2405, "trial": 41, "rt": 482, "response": "Beta"}, "1": {"stimulus": 562, "trial": 1, "rt": 1322, "response": "Alpha"}, "0": {"stimulus": 2187, "trial": 0, "rt": 1002, "response": "Beta"}, "3": {"stimulus": 1155, "trial": 3, "rt": 1786, "response": "Beta"}, "2": {"stimulus": 1937, "trial": 2, "rt": 802, "response": "Beta"}, "5": {"stimulus": 2468, "trial": 5, "rt": 682, "response": "Beta"}, "4": {"stimulus": 1999, "trial": 4, "rt": 773, "response": "Beta"}, "7": {"stimulus": 2218, "trial": 7, "rt": 640, "response": "Beta"}, "6": {"stimulus": 1624, "trial": 6, "rt": 1610, "response": "Beta"}, "9": {"stimulus": 1405, "trial": 9, "rt": 821, "response": "Beta"}, "8": {"stimulus": 187, "trial": 8, "rt": 1632, "response": "Beta"}, "78": {"stimulus": 1593, "trial": 78, "rt": 1301, "response": "Beta"}, "51": {"stimulus": 937, "trial": 51, "rt": 822, "response": "Alpha"}, "39": {"stimulus": 2280, "trial": 39, "rt": 433, "response": "Beta"}, "65": {"stimulus": 437, "trial": 65, "rt": 542, "response": "Alpha"}, "76": {"stimulus": 780, "trial": 76, "rt": 1180, "response": "Beta"}, "75": {"stimulus": 1124, "trial": 75, "rt": 521, "response": "Beta"}, "38": {"stimulus": 124, "trial": 38, "rt": 941, "response": "Alpha"}, "73": {"stimulus": 2312, "trial": 73, "rt": 462, "response": "Beta"}, "72": {"stimulus": 593, "trial": 72, "rt": 780, "response": "Alpha"}, "71": {"stimulus": 1687, "trial": 71, "rt": 437, "response": "Beta"}, "70": {"stimulus": 1030, "trial": 70, "rt": 729, "response": "Beta"}, "59": {"stimulus": 687, "trial": 59, "rt": 777, "response": "Alpha"}, "79": {"stimulus": 1218, "trial": 79, "rt": 682, "response": "Beta"}, "58": {"stimulus": 1780, "trial": 58, "rt": 462, "response": "Beta"}, "11": {"stimulus": 93, "trial": 11, "rt": 843, "response": "Beta"}, "10": {"stimulus": 374, "trial": 10, "rt": 1460, "response": "Alpha"}, "13": {"stimulus": 218, "trial": 13, "rt": 1312, "response": "Alpha"}, "12": {"stimulus": 2093, "trial": 12, "rt": 682, "response": "Beta"}, "15": {"stimulus": 1905, "trial": 15, "rt": 721, "response": "Beta"}, "14": {"stimulus": 1062, "trial": 14, "rt": 547, "response": "Beta"}, "17": {"stimulus": 2030, "trial": 17, "rt": 422, "response": "Beta"}, "16": {"stimulus": 2155, "trial": 16, "rt": 483, "response": "Beta"}, "19": {"stimulus": 968, "trial": 19, "rt": 924, "response": "Alpha"}, "18": {"stimulus": 624, "trial": 18, "rt": 981, "response": "Alpha"}, "31": {"stimulus": 843, "trial": 31, "rt": 936, "response": "Alpha"}, "30": {"stimulus": 874, "trial": 30, "rt": 779, "response": "Alpha"}, "37": {"stimulus": 0, "trial": 37, "rt": 1190, "response": "Alpha"}, "36": {"stimulus": 1843, "trial": 36, "rt": 1084, "response": "Beta"}, "35": {"stimulus": 280, "trial": 35, "rt": 960, "response": "Alpha"}, "34": {"stimulus": 312, "trial": 34, "rt": 943, "response": "Alpha"}, "33": {"stimulus": 62, "trial": 33, "rt": 823, "response": "Beta"}, "55": {"stimulus": 2437, "trial": 55, "rt": 682, "response": "Beta"}, "74": {"stimulus": 405, "trial": 74, "rt": 762, "response": "Alpha"}, "32": {"stimulus": 1499, "trial": 32, "rt": 662, "response": "Beta"}, "57": {"stimulus": 2124, "trial": 57, "rt": 522, "response": "Beta"}, "50": {"stimulus": 812, "trial": 50, "rt": 1109, "response": "Alpha"}}, "experiment": {"Paradigm": "TACL", "Stimuli": "Size-Color Squares", "Experiment": "Generating-Multiple-Categories"}, "submit": {"timeTotal": 288259, "age": "24", "comments": "", "sex": "Male"}}