{"info": {"finish": 1548122290196, "participant": 259, "exposed": true, "lab": false, "start": 1548121872231, "counterbalance": 0, "gentype": 1, "condition": "XOR", "browser": {"platform": "Linux i686", "userAgent": "Mozilla/5.0 (X11; Linux i686) AppleWebKit/537.36 (KHTML, like Gecko) Ubuntu Chromium/71.0.3578.98 Chrome/71.0.3578.98 Safari/537.36"}}, "observation": {"11": {"stimulus": 1890, "trial": 11, "rt": 2312}, "10": {"stimulus": 1479, "trial": 10, "rt": 36288}, "1": {"stimulus": 1479, "trial": 1, "rt": 3047}, "0": {"stimulus": 1890, "trial": 0, "rt": 3755}, "3": {"stimulus": 818, "trial": 3, "rt": 2840}, "2": {"stimulus": 403, "trial": 2, "rt": 3111}, "5": {"stimulus": 403, "trial": 5, "rt": 2510}, "4": {"stimulus": 1479, "trial": 4, "rt": 2470}, "7": {"stimulus": 1890, "trial": 7, "rt": 2072}, "6": {"stimulus": 818, "trial": 6, "rt": 3776}, "9": {"stimulus": 818, "trial": 9, "rt": 2592}, "8": {"stimulus": 403, "trial": 8, "rt": 2263}}, "generation": {"1": {"category": "Beta", "trial": 1, "stimulus": 0, "rt": 7671}, "0": {"category": "Beta", "trial": 0, "stimulus": 49, "rt": 26231}, "3": {"category": "Beta", "trial": 3, "stimulus": 2450, "rt": 4495}, "2": {"category": "Beta", "trial": 2, "stimulus": 2499, "rt": 4647}, "5": {"category": "Beta", "trial": 5, "stimulus": 2374, "rt": 15352}, "4": {"category": "Beta", "trial": 4, "stimulus": 274, "rt": 11215}, "7": {"category": "Beta", "trial": 7, "stimulus": 2245, "rt": 13215}, "6": {"category": "Beta", "trial": 6, "stimulus": 2453, "rt": 10599}}, "generalization": {"56": {"stimulus": 812, "trial": 56, "rt": 743, "response": "Alpha"}, "77": {"stimulus": 2312, "trial": 77, "rt": 823, "response": "Beta"}, "54": {"stimulus": 2468, "trial": 54, "rt": 871, "response": "Beta"}, "42": {"stimulus": 968, "trial": 42, "rt": 1143, "response": "Alpha"}, "48": {"stimulus": 687, "trial": 48, "rt": 921, "response": "Alpha"}, "43": {"stimulus": 2499, "trial": 43, "rt": 719, "response": "Beta"}, "60": {"stimulus": 2062, "trial": 60, "rt": 887, "response": "Beta"}, "61": {"stimulus": 124, "trial": 61, "rt": 967, "response": "Beta"}, "62": {"stimulus": 2249, "trial": 62, "rt": 1047, "response": "Beta"}, "63": {"stimulus": 1124, "trial": 63, "rt": 687, "response": "Alpha"}, "64": {"stimulus": 718, "trial": 64, "rt": 687, "response": "Alpha"}, "49": {"stimulus": 593, "trial": 49, "rt": 1983, "response": "Alpha"}, "66": {"stimulus": 1562, "trial": 66, "rt": 848, "response": "Alpha"}, "67": {"stimulus": 343, "trial": 67, "rt": 608, "response": "Beta"}, "68": {"stimulus": 1687, "trial": 68, "rt": 672, "response": "Alpha"}, "69": {"stimulus": 374, "trial": 69, "rt": 712, "response": "Beta"}, "80": {"stimulus": 1937, "trial": 80, "rt": 1071, "response": "Alpha"}, "52": {"stimulus": 1812, "trial": 52, "rt": 1095, "response": "Alpha"}, "53": {"stimulus": 1280, "trial": 53, "rt": 824, "response": "Alpha"}, "24": {"stimulus": 999, "trial": 24, "rt": 704, "response": "Beta"}, "25": {"stimulus": 749, "trial": 25, "rt": 784, "response": "Beta"}, "26": {"stimulus": 843, "trial": 26, "rt": 767, "response": "Beta"}, "27": {"stimulus": 93, "trial": 27, "rt": 760, "response": "Beta"}, "20": {"stimulus": 937, "trial": 20, "rt": 1103, "response": "Alpha"}, "21": {"stimulus": 1374, "trial": 21, "rt": 1112, "response": "Alpha"}, "22": {"stimulus": 1655, "trial": 22, "rt": 968, "response": "Alpha"}, "23": {"stimulus": 780, "trial": 23, "rt": 1008, "response": "Beta"}, "46": {"stimulus": 530, "trial": 46, "rt": 1230, "response": "Alpha"}, "47": {"stimulus": 1312, "trial": 47, "rt": 1376, "response": "Alpha"}, "44": {"stimulus": 2030, "trial": 44, "rt": 1223, "response": "Alpha"}, "45": {"stimulus": 62, "trial": 45, "rt": 753, "response": "Beta"}, "28": {"stimulus": 437, "trial": 28, "rt": 639, "response": "Beta"}, "29": {"stimulus": 1187, "trial": 29, "rt": 615, "response": "Beta"}, "40": {"stimulus": 0, "trial": 40, "rt": 879, "response": "Beta"}, "41": {"stimulus": 218, "trial": 41, "rt": 896, "response": "Beta"}, "1": {"stimulus": 1843, "trial": 1, "rt": 1254, "response": "Alpha"}, "0": {"stimulus": 2405, "trial": 0, "rt": 3086, "response": "Alpha"}, "3": {"stimulus": 1718, "trial": 3, "rt": 960, "response": "Alpha"}, "2": {"stimulus": 2187, "trial": 2, "rt": 1399, "response": "Alpha"}, "5": {"stimulus": 312, "trial": 5, "rt": 1015, "response": "Beta"}, "4": {"stimulus": 155, "trial": 4, "rt": 1240, "response": "Beta"}, "7": {"stimulus": 1874, "trial": 7, "rt": 912, "response": "Alpha"}, "6": {"stimulus": 1249, "trial": 6, "rt": 2016, "response": "Beta"}, "9": {"stimulus": 2343, "trial": 9, "rt": 952, "response": "Beta"}, "8": {"stimulus": 1499, "trial": 8, "rt": 895, "response": "Alpha"}, "78": {"stimulus": 1155, "trial": 78, "rt": 1328, "response": "Alpha"}, "51": {"stimulus": 2437, "trial": 51, "rt": 808, "response": "Beta"}, "39": {"stimulus": 905, "trial": 39, "rt": 2071, "response": "Alpha"}, "65": {"stimulus": 187, "trial": 65, "rt": 703, "response": "Beta"}, "76": {"stimulus": 562, "trial": 76, "rt": 760, "response": "Alpha"}, "75": {"stimulus": 1593, "trial": 75, "rt": 1079, "response": "Alpha"}, "38": {"stimulus": 1530, "trial": 38, "rt": 687, "response": "Alpha"}, "73": {"stimulus": 468, "trial": 73, "rt": 672, "response": "Alpha"}, "72": {"stimulus": 499, "trial": 72, "rt": 1271, "response": "Beta"}, "71": {"stimulus": 249, "trial": 71, "rt": 576, "response": "Beta"}, "70": {"stimulus": 2124, "trial": 70, "rt": 672, "response": "Alpha"}, "59": {"stimulus": 2218, "trial": 59, "rt": 1216, "response": "Beta"}, "79": {"stimulus": 1780, "trial": 79, "rt": 1094, "response": "Alpha"}, "58": {"stimulus": 30, "trial": 58, "rt": 1608, "response": "Beta"}, "11": {"stimulus": 624, "trial": 11, "rt": 1240, "response": "Alpha"}, "10": {"stimulus": 1624, "trial": 10, "rt": 792, "response": "Alpha"}, "13": {"stimulus": 1749, "trial": 13, "rt": 1136, "response": "Alpha"}, "12": {"stimulus": 280, "trial": 12, "rt": 840, "response": "Beta"}, "15": {"stimulus": 1968, "trial": 15, "rt": 1606, "response": "Beta"}, "14": {"stimulus": 1218, "trial": 14, "rt": 808, "response": "Alpha"}, "17": {"stimulus": 2093, "trial": 17, "rt": 1031, "response": "Alpha"}, "16": {"stimulus": 2155, "trial": 16, "rt": 1024, "response": "Beta"}, "19": {"stimulus": 1437, "trial": 19, "rt": 928, "response": "Alpha"}, "18": {"stimulus": 1405, "trial": 18, "rt": 1311, "response": "Alpha"}, "31": {"stimulus": 655, "trial": 31, "rt": 855, "response": "Alpha"}, "30": {"stimulus": 2374, "trial": 30, "rt": 1280, "response": "Beta"}, "37": {"stimulus": 1062, "trial": 37, "rt": 760, "response": "Alpha"}, "36": {"stimulus": 1093, "trial": 36, "rt": 952, "response": "Alpha"}, "35": {"stimulus": 405, "trial": 35, "rt": 2871, "response": "Beta"}, "34": {"stimulus": 1999, "trial": 34, "rt": 823, "response": "Beta"}, "33": {"stimulus": 1905, "trial": 33, "rt": 911, "response": "Beta"}, "55": {"stimulus": 1343, "trial": 55, "rt": 857, "response": "Alpha"}, "74": {"stimulus": 874, "trial": 74, "rt": 984, "response": "Alpha"}, "32": {"stimulus": 1030, "trial": 32, "rt": 855, "response": "Alpha"}, "57": {"stimulus": 2280, "trial": 57, "rt": 1168, "response": "Beta"}, "50": {"stimulus": 1468, "trial": 50, "rt": 1287, "response": "Alpha"}}, "experiment": {"Paradigm": "TACL", "Stimuli": "Size-Color Squares", "Experiment": "Generating-Multiple-Categories"}, "submit": {"timeTotal": 418132, "age": "39", "comments": "No comments at the current time.", "sex": "Female"}}