{"info": {"finish": 1548122632746, "participant": 260, "exposed": true, "lab": false, "start": 1548122284240, "counterbalance": 6, "gentype": 0, "condition": "Cluster", "browser": {"platform": "Win32", "userAgent": "Mozilla/5.0 (Windows NT 10.0; Win64; x64) AppleWebKit/537.36 (KHTML, like Gecko) Chrome/71.0.3578.98 Safari/537.36"}}, "observation": {"11": {"stimulus": 1083, "trial": 11, "rt": 1615}, "10": {"stimulus": 1093, "trial": 10, "rt": 1640}, "1": {"stimulus": 392, "trial": 1, "rt": 1542}, "0": {"stimulus": 1083, "trial": 0, "rt": 2316}, "3": {"stimulus": 583, "trial": 3, "rt": 1560}, "2": {"stimulus": 1093, "trial": 2, "rt": 2054}, "5": {"stimulus": 583, "trial": 5, "rt": 1591}, "4": {"stimulus": 392, "trial": 4, "rt": 1846}, "7": {"stimulus": 1093, "trial": 7, "rt": 1599}, "6": {"stimulus": 1083, "trial": 6, "rt": 1486}, "9": {"stimulus": 392, "trial": 9, "rt": 30974}, "8": {"stimulus": 583, "trial": 8, "rt": 1566}}, "generation": {"1": {"category": "Not-Alpha", "trial": 1, "stimulus": 2455, "rt": 3263}, "0": {"category": "Not-Alpha", "trial": 0, "stimulus": 2050, "rt": 10702}, "3": {"category": "Not-Alpha", "trial": 3, "stimulus": 2405, "rt": 4950}, "2": {"category": "Not-Alpha", "trial": 2, "stimulus": 2469, "rt": 4462}, "5": {"category": "Not-Alpha", "trial": 5, "stimulus": 0, "rt": 8540}, "4": {"category": "Not-Alpha", "trial": 4, "stimulus": 2315, "rt": 7238}, "7": {"category": "Not-Alpha", "trial": 7, "stimulus": 900, "rt": 2390}, "6": {"category": "Not-Alpha", "trial": 6, "stimulus": 1355, "rt": 6166}}, "generalization": {"56": {"stimulus": 280, "trial": 56, "rt": 1662, "response": "Beta"}, "77": {"stimulus": 1562, "trial": 77, "rt": 453, "response": "Beta"}, "54": {"stimulus": 1530, "trial": 54, "rt": 496, "response": "Beta"}, "42": {"stimulus": 1687, "trial": 42, "rt": 534, "response": "Beta"}, "48": {"stimulus": 1124, "trial": 48, "rt": 487, "response": "Beta"}, "43": {"stimulus": 1499, "trial": 43, "rt": 517, "response": "Beta"}, "60": {"stimulus": 2093, "trial": 60, "rt": 464, "response": "Beta"}, "61": {"stimulus": 1937, "trial": 61, "rt": 502, "response": "Beta"}, "62": {"stimulus": 1874, "trial": 62, "rt": 503, "response": "Beta"}, "63": {"stimulus": 749, "trial": 63, "rt": 1623, "response": "Alpha"}, "64": {"stimulus": 2437, "trial": 64, "rt": 486, "response": "Beta"}, "49": {"stimulus": 718, "trial": 49, "rt": 446, "response": "Beta"}, "66": {"stimulus": 2499, "trial": 66, "rt": 470, "response": "Beta"}, "67": {"stimulus": 468, "trial": 67, "rt": 480, "response": "Beta"}, "68": {"stimulus": 374, "trial": 68, "rt": 543, "response": "Beta"}, "69": {"stimulus": 1374, "trial": 69, "rt": 583, "response": "Beta"}, "80": {"stimulus": 124, "trial": 80, "rt": 2743, "response": "Beta"}, "52": {"stimulus": 2062, "trial": 52, "rt": 470, "response": "Beta"}, "53": {"stimulus": 499, "trial": 53, "rt": 973, "response": "Alpha"}, "24": {"stimulus": 2030, "trial": 24, "rt": 520, "response": "Beta"}, "25": {"stimulus": 1280, "trial": 25, "rt": 1087, "response": "Beta"}, "26": {"stimulus": 155, "trial": 26, "rt": 648, "response": "Beta"}, "27": {"stimulus": 1749, "trial": 27, "rt": 926, "response": "Beta"}, "20": {"stimulus": 2374, "trial": 20, "rt": 478, "response": "Beta"}, "21": {"stimulus": 2280, "trial": 21, "rt": 440, "response": "Beta"}, "22": {"stimulus": 1905, "trial": 22, "rt": 455, "response": "Beta"}, "23": {"stimulus": 937, "trial": 23, "rt": 735, "response": "Beta"}, "46": {"stimulus": 1655, "trial": 46, "rt": 495, "response": "Beta"}, "47": {"stimulus": 1218, "trial": 47, "rt": 520, "response": "Beta"}, "44": {"stimulus": 1343, "trial": 44, "rt": 568, "response": "Beta"}, "45": {"stimulus": 187, "trial": 45, "rt": 888, "response": "Alpha"}, "28": {"stimulus": 968, "trial": 28, "rt": 685, "response": "Beta"}, "29": {"stimulus": 405, "trial": 29, "rt": 489, "response": "Beta"}, "40": {"stimulus": 2124, "trial": 40, "rt": 391, "response": "Beta"}, "41": {"stimulus": 624, "trial": 41, "rt": 734, "response": "Beta"}, "1": {"stimulus": 312, "trial": 1, "rt": 1148, "response": "Beta"}, "0": {"stimulus": 1468, "trial": 0, "rt": 2022, "response": "Beta"}, "3": {"stimulus": 2405, "trial": 3, "rt": 574, "response": "Beta"}, "2": {"stimulus": 1593, "trial": 2, "rt": 953, "response": "Beta"}, "5": {"stimulus": 2218, "trial": 5, "rt": 759, "response": "Beta"}, "4": {"stimulus": 655, "trial": 4, "rt": 750, "response": "Beta"}, "7": {"stimulus": 30, "trial": 7, "rt": 989, "response": "Alpha"}, "6": {"stimulus": 62, "trial": 6, "rt": 984, "response": "Beta"}, "9": {"stimulus": 2312, "trial": 9, "rt": 599, "response": "Beta"}, "8": {"stimulus": 1843, "trial": 8, "rt": 928, "response": "Beta"}, "78": {"stimulus": 687, "trial": 78, "rt": 592, "response": "Beta"}, "51": {"stimulus": 1718, "trial": 51, "rt": 511, "response": "Beta"}, "39": {"stimulus": 1624, "trial": 39, "rt": 398, "response": "Beta"}, "65": {"stimulus": 343, "trial": 65, "rt": 862, "response": "Alpha"}, "76": {"stimulus": 2155, "trial": 76, "rt": 455, "response": "Beta"}, "75": {"stimulus": 999, "trial": 75, "rt": 617, "response": "Beta"}, "38": {"stimulus": 93, "trial": 38, "rt": 1014, "response": "Alpha"}, "73": {"stimulus": 1312, "trial": 73, "rt": 406, "response": "Beta"}, "72": {"stimulus": 1155, "trial": 72, "rt": 429, "response": "Beta"}, "71": {"stimulus": 2249, "trial": 71, "rt": 614, "response": "Beta"}, "70": {"stimulus": 1812, "trial": 70, "rt": 529, "response": "Beta"}, "59": {"stimulus": 218, "trial": 59, "rt": 712, "response": "Beta"}, "79": {"stimulus": 1780, "trial": 79, "rt": 575, "response": "Beta"}, "58": {"stimulus": 593, "trial": 58, "rt": 1255, "response": "Beta"}, "11": {"stimulus": 1999, "trial": 11, "rt": 822, "response": "Beta"}, "10": {"stimulus": 562, "trial": 10, "rt": 703, "response": "Beta"}, "13": {"stimulus": 1093, "trial": 13, "rt": 1038, "response": "Beta"}, "12": {"stimulus": 437, "trial": 12, "rt": 750, "response": "Alpha"}, "15": {"stimulus": 780, "trial": 15, "rt": 1215, "response": "Beta"}, "14": {"stimulus": 874, "trial": 14, "rt": 856, "response": "Beta"}, "17": {"stimulus": 843, "trial": 17, "rt": 1199, "response": "Alpha"}, "16": {"stimulus": 812, "trial": 16, "rt": 653, "response": "Beta"}, "19": {"stimulus": 1249, "trial": 19, "rt": 638, "response": "Beta"}, "18": {"stimulus": 530, "trial": 18, "rt": 1463, "response": "Alpha"}, "31": {"stimulus": 1187, "trial": 31, "rt": 703, "response": "Beta"}, "30": {"stimulus": 905, "trial": 30, "rt": 510, "response": "Beta"}, "37": {"stimulus": 2187, "trial": 37, "rt": 750, "response": "Beta"}, "36": {"stimulus": 1405, "trial": 36, "rt": 654, "response": "Beta"}, "35": {"stimulus": 1968, "trial": 35, "rt": 439, "response": "Beta"}, "34": {"stimulus": 1030, "trial": 34, "rt": 478, "response": "Beta"}, "33": {"stimulus": 1437, "trial": 33, "rt": 573, "response": "Beta"}, "55": {"stimulus": 2343, "trial": 55, "rt": 422, "response": "Beta"}, "74": {"stimulus": 1062, "trial": 74, "rt": 422, "response": "Beta"}, "32": {"stimulus": 249, "trial": 32, "rt": 992, "response": "Alpha"}, "57": {"stimulus": 0, "trial": 57, "rt": 702, "response": "Beta"}, "50": {"stimulus": 2468, "trial": 50, "rt": 496, "response": "Beta"}}, "experiment": {"Paradigm": "TACL", "Stimuli": "Size-Color Squares", "Experiment": "Generating-Multiple-Categories"}, "submit": {"timeTotal": 348827, "age": "31", "comments": "It was okay.", "sex": "male"}}