{"info": {"finish": 1548122998320, "participant": 262, "exposed": true, "lab": false, "start": 1548122631902, "counterbalance": 4, "gentype": 1, "condition": "Row", "browser": {"platform": "MacIntel", "userAgent": "Mozilla/5.0 (Macintosh; Intel Mac OS X 10_13_6) AppleWebKit/537.36 (KHTML, like Gecko) Chrome/71.0.3578.98 Safari/537.36"}}, "observation": {"11": {"stimulus": 493, "trial": 11, "rt": 1342}, "10": {"stimulus": 582, "trial": 10, "rt": 1349}, "1": {"stimulus": 421, "trial": 1, "rt": 2567}, "0": {"stimulus": 582, "trial": 0, "rt": 6234}, "3": {"stimulus": 493, "trial": 3, "rt": 2640}, "2": {"stimulus": 612, "trial": 2, "rt": 1864}, "5": {"stimulus": 493, "trial": 5, "rt": 1592}, "4": {"stimulus": 582, "trial": 4, "rt": 1443}, "7": {"stimulus": 421, "trial": 7, "rt": 1350}, "6": {"stimulus": 612, "trial": 6, "rt": 2057}, "9": {"stimulus": 612, "trial": 9, "rt": 1392}, "8": {"stimulus": 421, "trial": 8, "rt": 1606}}, "generation": {"1": {"category": "Beta", "trial": 1, "stimulus": 5, "rt": 10707}, "0": {"category": "Beta", "trial": 0, "stimulus": 2499, "rt": 38708}, "3": {"category": "Beta", "trial": 3, "stimulus": 42, "rt": 4126}, "2": {"category": "Beta", "trial": 2, "stimulus": 16, "rt": 5546}, "5": {"category": "Beta", "trial": 5, "stimulus": 2452, "rt": 4934}, "4": {"category": "Beta", "trial": 4, "stimulus": 2450, "rt": 3604}, "7": {"category": "Beta", "trial": 7, "stimulus": 49, "rt": 14685}, "6": {"category": "Beta", "trial": 6, "stimulus": 2496, "rt": 7107}}, "generalization": {"56": {"stimulus": 1374, "trial": 56, "rt": 821, "response": "Beta"}, "77": {"stimulus": 843, "trial": 77, "rt": 929, "response": "Beta"}, "54": {"stimulus": 2280, "trial": 54, "rt": 1671, "response": "Beta"}, "42": {"stimulus": 343, "trial": 42, "rt": 884, "response": "Beta"}, "48": {"stimulus": 0, "trial": 48, "rt": 768, "response": "Beta"}, "43": {"stimulus": 2468, "trial": 43, "rt": 1638, "response": "Beta"}, "60": {"stimulus": 874, "trial": 60, "rt": 1417, "response": "Beta"}, "61": {"stimulus": 999, "trial": 61, "rt": 904, "response": "Beta"}, "62": {"stimulus": 1843, "trial": 62, "rt": 1771, "response": "Alpha"}, "63": {"stimulus": 749, "trial": 63, "rt": 760, "response": "Beta"}, "64": {"stimulus": 187, "trial": 64, "rt": 495, "response": "Beta"}, "49": {"stimulus": 499, "trial": 49, "rt": 2842, "response": "Beta"}, "66": {"stimulus": 1812, "trial": 66, "rt": 1546, "response": "Beta"}, "67": {"stimulus": 1624, "trial": 67, "rt": 573, "response": "Alpha"}, "68": {"stimulus": 530, "trial": 68, "rt": 591, "response": "Beta"}, "69": {"stimulus": 437, "trial": 69, "rt": 572, "response": "Beta"}, "80": {"stimulus": 655, "trial": 80, "rt": 695, "response": "Beta"}, "52": {"stimulus": 93, "trial": 52, "rt": 791, "response": "Beta"}, "53": {"stimulus": 1718, "trial": 53, "rt": 765, "response": "Alpha"}, "24": {"stimulus": 2405, "trial": 24, "rt": 4691, "response": "Beta"}, "25": {"stimulus": 1093, "trial": 25, "rt": 1546, "response": "Beta"}, "26": {"stimulus": 1905, "trial": 26, "rt": 881, "response": "Alpha"}, "27": {"stimulus": 1655, "trial": 27, "rt": 4478, "response": "Alpha"}, "20": {"stimulus": 2249, "trial": 20, "rt": 593, "response": "Alpha"}, "21": {"stimulus": 2218, "trial": 21, "rt": 792, "response": "Alpha"}, "22": {"stimulus": 1437, "trial": 22, "rt": 1008, "response": "Beta"}, "23": {"stimulus": 1312, "trial": 23, "rt": 2589, "response": "Alpha"}, "46": {"stimulus": 905, "trial": 46, "rt": 1547, "response": "Beta"}, "47": {"stimulus": 2155, "trial": 47, "rt": 775, "response": "Alpha"}, "44": {"stimulus": 1062, "trial": 44, "rt": 1263, "response": "Beta"}, "45": {"stimulus": 2499, "trial": 45, "rt": 654, "response": "Alpha"}, "28": {"stimulus": 2030, "trial": 28, "rt": 863, "response": "Alpha"}, "29": {"stimulus": 2343, "trial": 29, "rt": 599, "response": "Alpha"}, "40": {"stimulus": 374, "trial": 40, "rt": 557, "response": "Beta"}, "41": {"stimulus": 1749, "trial": 41, "rt": 1303, "response": "Alpha"}, "1": {"stimulus": 1343, "trial": 1, "rt": 1227, "response": "Alpha"}, "0": {"stimulus": 1968, "trial": 0, "rt": 5666, "response": "Alpha"}, "3": {"stimulus": 1405, "trial": 3, "rt": 881, "response": "Beta"}, "2": {"stimulus": 1155, "trial": 2, "rt": 1211, "response": "Beta"}, "5": {"stimulus": 2437, "trial": 5, "rt": 2663, "response": "Beta"}, "4": {"stimulus": 1124, "trial": 4, "rt": 1468, "response": "Alpha"}, "7": {"stimulus": 1187, "trial": 7, "rt": 3695, "response": "Alpha"}, "6": {"stimulus": 1780, "trial": 6, "rt": 4942, "response": "Alpha"}, "9": {"stimulus": 812, "trial": 9, "rt": 1864, "response": "Alpha"}, "8": {"stimulus": 1499, "trial": 8, "rt": 1864, "response": "Beta"}, "78": {"stimulus": 937, "trial": 78, "rt": 782, "response": "Beta"}, "51": {"stimulus": 1218, "trial": 51, "rt": 485, "response": "Beta"}, "39": {"stimulus": 155, "trial": 39, "rt": 712, "response": "Beta"}, "65": {"stimulus": 1593, "trial": 65, "rt": 1374, "response": "Beta"}, "76": {"stimulus": 718, "trial": 76, "rt": 1006, "response": "Beta"}, "75": {"stimulus": 1687, "trial": 75, "rt": 1145, "response": "Alpha"}, "38": {"stimulus": 687, "trial": 38, "rt": 1296, "response": "Beta"}, "73": {"stimulus": 405, "trial": 73, "rt": 833, "response": "Beta"}, "72": {"stimulus": 1530, "trial": 72, "rt": 1150, "response": "Alpha"}, "71": {"stimulus": 1468, "trial": 71, "rt": 976, "response": "Beta"}, "70": {"stimulus": 1999, "trial": 70, "rt": 795, "response": "Alpha"}, "59": {"stimulus": 30, "trial": 59, "rt": 581, "response": "Beta"}, "79": {"stimulus": 280, "trial": 79, "rt": 709, "response": "Beta"}, "58": {"stimulus": 249, "trial": 58, "rt": 676, "response": "Beta"}, "11": {"stimulus": 2312, "trial": 11, "rt": 3648, "response": "Alpha"}, "10": {"stimulus": 2187, "trial": 10, "rt": 4931, "response": "Alpha"}, "13": {"stimulus": 593, "trial": 13, "rt": 797, "response": "Beta"}, "12": {"stimulus": 62, "trial": 12, "rt": 2400, "response": "Beta"}, "15": {"stimulus": 218, "trial": 15, "rt": 877, "response": "Beta"}, "14": {"stimulus": 1249, "trial": 14, "rt": 1305, "response": "Beta"}, "17": {"stimulus": 312, "trial": 17, "rt": 780, "response": "Beta"}, "16": {"stimulus": 2124, "trial": 16, "rt": 1222, "response": "Alpha"}, "19": {"stimulus": 1874, "trial": 19, "rt": 2801, "response": "Alpha"}, "18": {"stimulus": 1030, "trial": 18, "rt": 939, "response": "Beta"}, "31": {"stimulus": 562, "trial": 31, "rt": 1216, "response": "Beta"}, "30": {"stimulus": 780, "trial": 30, "rt": 1519, "response": "Beta"}, "37": {"stimulus": 1562, "trial": 37, "rt": 1921, "response": "Beta"}, "36": {"stimulus": 624, "trial": 36, "rt": 769, "response": "Beta"}, "35": {"stimulus": 2374, "trial": 35, "rt": 902, "response": "Alpha"}, "34": {"stimulus": 1937, "trial": 34, "rt": 519, "response": "Alpha"}, "33": {"stimulus": 2093, "trial": 33, "rt": 738, "response": "Alpha"}, "55": {"stimulus": 1280, "trial": 55, "rt": 1879, "response": "Beta"}, "74": {"stimulus": 124, "trial": 74, "rt": 1233, "response": "Beta"}, "32": {"stimulus": 968, "trial": 32, "rt": 978, "response": "Beta"}, "57": {"stimulus": 2062, "trial": 57, "rt": 742, "response": "Alpha"}, "50": {"stimulus": 468, "trial": 50, "rt": 619, "response": "Beta"}}, "experiment": {"Paradigm": "TACL", "Stimuli": "Size-Color Squares", "Experiment": "Generating-Multiple-Categories"}, "submit": {"timeTotal": 366627, "age": "29", "comments": "It was a great experiment ", "sex": "male"}}