{"info": {"finish": 1548124952830, "participant": 265, "exposed": true, "lab": false, "start": 1548124352662, "counterbalance": 1, "gentype": 0, "condition": "Cluster", "browser": {"platform": "Win32", "userAgent": "Mozilla/5.0 (Windows NT 10.0; Win64; x64; rv:64.0) Gecko/20100101 Firefox/64.0"}}, "observation": {"11": {"stimulus": 1093, "trial": 11, "rt": 1575}, "10": {"stimulus": 583, "trial": 10, "rt": 2415}, "1": {"stimulus": 1083, "trial": 1, "rt": 6336}, "0": {"stimulus": 1093, "trial": 0, "rt": 14754}, "3": {"stimulus": 583, "trial": 3, "rt": 15158}, "2": {"stimulus": 392, "trial": 2, "rt": 50231}, "5": {"stimulus": 392, "trial": 5, "rt": 10855}, "4": {"stimulus": 1083, "trial": 4, "rt": 6679}, "7": {"stimulus": 1093, "trial": 7, "rt": 4294}, "6": {"stimulus": 583, "trial": 6, "rt": 1998}, "9": {"stimulus": 1083, "trial": 9, "rt": 10391}, "8": {"stimulus": 392, "trial": 8, "rt": 2647}}, "generation": {"1": {"category": "Not-Alpha", "trial": 1, "stimulus": 1108, "rt": 20207}, "0": {"category": "Not-Alpha", "trial": 0, "stimulus": 2455, "rt": 29422}, "3": {"category": "Not-Alpha", "trial": 3, "stimulus": 954, "rt": 22436}, "2": {"category": "Not-Alpha", "trial": 2, "stimulus": 0, "rt": 15608}, "5": {"category": "Not-Alpha", "trial": 5, "stimulus": 1961, "rt": 17865}, "4": {"category": "Not-Alpha", "trial": 4, "stimulus": 1908, "rt": 14463}, "7": {"category": "Not-Alpha", "trial": 7, "stimulus": 1562, "rt": 8894}, "6": {"category": "Not-Alpha", "trial": 6, "stimulus": 449, "rt": 13422}}, "generalization": {"56": {"stimulus": 1030, "trial": 56, "rt": 1959, "response": "Alpha"}, "77": {"stimulus": 624, "trial": 77, "rt": 1344, "response": "Beta"}, "54": {"stimulus": 1937, "trial": 54, "rt": 1119, "response": "Alpha"}, "42": {"stimulus": 1968, "trial": 42, "rt": 4581, "response": "Beta"}, "48": {"stimulus": 2218, "trial": 48, "rt": 1047, "response": "Beta"}, "43": {"stimulus": 187, "trial": 43, "rt": 816, "response": "Alpha"}, "60": {"stimulus": 2124, "trial": 60, "rt": 797, "response": "Alpha"}, "61": {"stimulus": 280, "trial": 61, "rt": 1087, "response": "Alpha"}, "62": {"stimulus": 499, "trial": 62, "rt": 1039, "response": "Beta"}, "63": {"stimulus": 2405, "trial": 63, "rt": 1303, "response": "Beta"}, "64": {"stimulus": 1655, "trial": 64, "rt": 1454, "response": "Beta"}, "49": {"stimulus": 124, "trial": 49, "rt": 1774, "response": "Alpha"}, "66": {"stimulus": 2499, "trial": 66, "rt": 1232, "response": "Beta"}, "67": {"stimulus": 780, "trial": 67, "rt": 1375, "response": "Alpha"}, "68": {"stimulus": 2187, "trial": 68, "rt": 976, "response": "Beta"}, "69": {"stimulus": 999, "trial": 69, "rt": 1640, "response": "Beta"}, "80": {"stimulus": 1187, "trial": 80, "rt": 1423, "response": "Alpha"}, "52": {"stimulus": 1562, "trial": 52, "rt": 2367, "response": "Beta"}, "53": {"stimulus": 562, "trial": 53, "rt": 2701, "response": "Alpha"}, "24": {"stimulus": 2062, "trial": 24, "rt": 903, "response": "Beta"}, "25": {"stimulus": 1062, "trial": 25, "rt": 983, "response": "Beta"}, "26": {"stimulus": 1905, "trial": 26, "rt": 1022, "response": "Beta"}, "27": {"stimulus": 2155, "trial": 27, "rt": 807, "response": "Beta"}, "20": {"stimulus": 30, "trial": 20, "rt": 3590, "response": "Alpha"}, "21": {"stimulus": 1437, "trial": 21, "rt": 2832, "response": "Beta"}, "22": {"stimulus": 968, "trial": 22, "rt": 1479, "response": "Beta"}, "23": {"stimulus": 1843, "trial": 23, "rt": 1047, "response": "Alpha"}, "46": {"stimulus": 2343, "trial": 46, "rt": 760, "response": "Alpha"}, "47": {"stimulus": 405, "trial": 47, "rt": 910, "response": "Beta"}, "44": {"stimulus": 1749, "trial": 44, "rt": 2031, "response": "Beta"}, "45": {"stimulus": 93, "trial": 45, "rt": 2375, "response": "Beta"}, "28": {"stimulus": 2280, "trial": 28, "rt": 2038, "response": "Alpha"}, "29": {"stimulus": 374, "trial": 29, "rt": 1536, "response": "Alpha"}, "40": {"stimulus": 1218, "trial": 40, "rt": 1695, "response": "Beta"}, "41": {"stimulus": 1468, "trial": 41, "rt": 935, "response": "Beta"}, "1": {"stimulus": 312, "trial": 1, "rt": 1182, "response": "Beta"}, "0": {"stimulus": 1249, "trial": 0, "rt": 2527, "response": "Alpha"}, "3": {"stimulus": 1343, "trial": 3, "rt": 974, "response": "Alpha"}, "2": {"stimulus": 1374, "trial": 2, "rt": 3862, "response": "Beta"}, "5": {"stimulus": 1280, "trial": 5, "rt": 3279, "response": "Beta"}, "4": {"stimulus": 1999, "trial": 4, "rt": 1005, "response": "Alpha"}, "7": {"stimulus": 2030, "trial": 7, "rt": 1457, "response": "Alpha"}, "6": {"stimulus": 2093, "trial": 6, "rt": 1135, "response": "Alpha"}, "9": {"stimulus": 343, "trial": 9, "rt": 2784, "response": "Alpha"}, "8": {"stimulus": 1093, "trial": 8, "rt": 2156, "response": "Alpha"}, "78": {"stimulus": 62, "trial": 78, "rt": 1198, "response": "Beta"}, "51": {"stimulus": 1812, "trial": 51, "rt": 927, "response": "Beta"}, "39": {"stimulus": 2312, "trial": 39, "rt": 1511, "response": "Beta"}, "65": {"stimulus": 1687, "trial": 65, "rt": 816, "response": "Alpha"}, "76": {"stimulus": 437, "trial": 76, "rt": 822, "response": "Alpha"}, "75": {"stimulus": 1312, "trial": 75, "rt": 879, "response": "Beta"}, "38": {"stimulus": 1530, "trial": 38, "rt": 1270, "response": "Alpha"}, "73": {"stimulus": 0, "trial": 73, "rt": 934, "response": "Beta"}, "72": {"stimulus": 2437, "trial": 72, "rt": 1024, "response": "Alpha"}, "71": {"stimulus": 843, "trial": 71, "rt": 799, "response": "Alpha"}, "70": {"stimulus": 1405, "trial": 70, "rt": 1542, "response": "Beta"}, "59": {"stimulus": 1718, "trial": 59, "rt": 920, "response": "Beta"}, "79": {"stimulus": 1874, "trial": 79, "rt": 1960, "response": "Alpha"}, "58": {"stimulus": 530, "trial": 58, "rt": 1079, "response": "Alpha"}, "11": {"stimulus": 218, "trial": 11, "rt": 1392, "response": "Beta"}, "10": {"stimulus": 1499, "trial": 10, "rt": 4599, "response": "Beta"}, "13": {"stimulus": 718, "trial": 13, "rt": 1423, "response": "Beta"}, "12": {"stimulus": 1155, "trial": 12, "rt": 991, "response": "Beta"}, "15": {"stimulus": 1780, "trial": 15, "rt": 2126, "response": "Alpha"}, "14": {"stimulus": 1124, "trial": 14, "rt": 1215, "response": "Beta"}, "17": {"stimulus": 687, "trial": 17, "rt": 895, "response": "Alpha"}, "16": {"stimulus": 905, "trial": 16, "rt": 943, "response": "Beta"}, "19": {"stimulus": 2374, "trial": 19, "rt": 2479, "response": "Beta"}, "18": {"stimulus": 1593, "trial": 18, "rt": 1767, "response": "Alpha"}, "31": {"stimulus": 2249, "trial": 31, "rt": 1022, "response": "Alpha"}, "30": {"stimulus": 812, "trial": 30, "rt": 959, "response": "Beta"}, "37": {"stimulus": 155, "trial": 37, "rt": 999, "response": "Beta"}, "36": {"stimulus": 468, "trial": 36, "rt": 870, "response": "Beta"}, "35": {"stimulus": 2468, "trial": 35, "rt": 951, "response": "Beta"}, "34": {"stimulus": 937, "trial": 34, "rt": 1575, "response": "Alpha"}, "33": {"stimulus": 593, "trial": 33, "rt": 1192, "response": "Alpha"}, "55": {"stimulus": 1624, "trial": 55, "rt": 1319, "response": "Alpha"}, "74": {"stimulus": 249, "trial": 74, "rt": 1958, "response": "Alpha"}, "32": {"stimulus": 749, "trial": 32, "rt": 1040, "response": "Alpha"}, "57": {"stimulus": 874, "trial": 57, "rt": 4142, "response": "Alpha"}, "50": {"stimulus": 655, "trial": 50, "rt": 903, "response": "Beta"}}, "experiment": {"Paradigm": "TACL", "Stimuli": "Size-Color Squares", "Experiment": "Generating-Multiple-Categories"}, "submit": {"timeTotal": 600391, "age": "30", "comments": "It was definitely different than what I've seen before. ", "sex": "Female"}}