{"info": {"finish": 1548124855620, "participant": 268, "exposed": true, "lab": false, "start": 1548124386876, "counterbalance": 0, "gentype": 2, "condition": "Cluster", "browser": {"platform": "Win32", "userAgent": "Mozilla/5.0 (Windows NT 10.0; Win64; x64) AppleWebKit/537.36 (KHTML, like Gecko) Chrome/71.0.3578.98 Safari/537.36"}}, "observation": {"11": {"stimulus": 392, "trial": 11, "rt": 1605}, "10": {"stimulus": 583, "trial": 10, "rt": 1815}, "1": {"stimulus": 583, "trial": 1, "rt": 2494}, "0": {"stimulus": 1093, "trial": 0, "rt": 4619}, "3": {"stimulus": 1083, "trial": 3, "rt": 1894}, "2": {"stimulus": 392, "trial": 2, "rt": 1711}, "5": {"stimulus": 1093, "trial": 5, "rt": 1927}, "4": {"stimulus": 1083, "trial": 4, "rt": 2039}, "7": {"stimulus": 392, "trial": 7, "rt": 1703}, "6": {"stimulus": 583, "trial": 6, "rt": 2136}, "9": {"stimulus": 1083, "trial": 9, "rt": 1678}, "8": {"stimulus": 1093, "trial": 8, "rt": 1758}}, "generation": {"1": {"category": "Beta", "trial": 1, "stimulus": 1906, "rt": 13094}, "0": {"category": "Beta", "trial": 0, "stimulus": 2256, "rt": 16334}, "3": {"category": "Beta", "trial": 3, "stimulus": 2300, "rt": 8293}, "2": {"category": "Beta", "trial": 2, "stimulus": 2493, "rt": 8375}, "5": {"category": "Gamma", "trial": 5, "stimulus": 2388, "rt": 5662}, "4": {"category": "Gamma", "trial": 4, "stimulus": 2499, "rt": 8558}, "7": {"category": "Gamma", "trial": 7, "stimulus": 2467, "rt": 4838}, "6": {"category": "Gamma", "trial": 6, "stimulus": 2489, "rt": 6565}}, "generalization": {"56": {"stimulus": 2093, "trial": 56, "rt": 1391, "response": "Alpha"}, "77": {"stimulus": 2374, "trial": 77, "rt": 1295, "response": "Gamma"}, "54": {"stimulus": 1187, "trial": 54, "rt": 3240, "response": "Alpha"}, "42": {"stimulus": 874, "trial": 42, "rt": 1968, "response": "Gamma"}, "48": {"stimulus": 1124, "trial": 48, "rt": 2951, "response": "Gamma"}, "43": {"stimulus": 1499, "trial": 43, "rt": 1510, "response": "Alpha"}, "60": {"stimulus": 249, "trial": 60, "rt": 1919, "response": "Alpha"}, "61": {"stimulus": 624, "trial": 61, "rt": 2126, "response": "Beta"}, "62": {"stimulus": 1968, "trial": 62, "rt": 1206, "response": "Beta"}, "63": {"stimulus": 1405, "trial": 63, "rt": 1718, "response": "Beta"}, "64": {"stimulus": 2155, "trial": 64, "rt": 2446, "response": "Beta"}, "49": {"stimulus": 62, "trial": 49, "rt": 1326, "response": "Beta"}, "66": {"stimulus": 2249, "trial": 66, "rt": 1350, "response": "Gamma"}, "67": {"stimulus": 1374, "trial": 67, "rt": 10591, "response": "Beta"}, "68": {"stimulus": 1093, "trial": 68, "rt": 1047, "response": "Alpha"}, "69": {"stimulus": 1812, "trial": 69, "rt": 1230, "response": "Beta"}, "80": {"stimulus": 1843, "trial": 80, "rt": 880, "response": "Alpha"}, "52": {"stimulus": 1718, "trial": 52, "rt": 1319, "response": "Beta"}, "53": {"stimulus": 2437, "trial": 53, "rt": 1390, "response": "Gamma"}, "24": {"stimulus": 218, "trial": 24, "rt": 1469, "response": "Beta"}, "25": {"stimulus": 499, "trial": 25, "rt": 3288, "response": "Gamma"}, "26": {"stimulus": 2343, "trial": 26, "rt": 3032, "response": "Gamma"}, "27": {"stimulus": 2124, "trial": 27, "rt": 1078, "response": "Beta"}, "20": {"stimulus": 1218, "trial": 20, "rt": 2118, "response": "Beta"}, "21": {"stimulus": 93, "trial": 21, "rt": 3583, "response": "Alpha"}, "22": {"stimulus": 1030, "trial": 22, "rt": 3047, "response": "Alpha"}, "23": {"stimulus": 468, "trial": 23, "rt": 2142, "response": "Beta"}, "46": {"stimulus": 1343, "trial": 46, "rt": 12014, "response": "Alpha"}, "47": {"stimulus": 2468, "trial": 47, "rt": 1336, "response": "Beta"}, "44": {"stimulus": 749, "trial": 44, "rt": 1726, "response": "Alpha"}, "45": {"stimulus": 1062, "trial": 45, "rt": 1693, "response": "Beta"}, "28": {"stimulus": 593, "trial": 28, "rt": 1743, "response": "Alpha"}, "29": {"stimulus": 343, "trial": 29, "rt": 1317, "response": "Alpha"}, "40": {"stimulus": 1593, "trial": 40, "rt": 1407, "response": "Alpha"}, "41": {"stimulus": 1437, "trial": 41, "rt": 967, "response": "Alpha"}, "1": {"stimulus": 2499, "trial": 1, "rt": 2542, "response": "Beta"}, "0": {"stimulus": 1937, "trial": 0, "rt": 6509, "response": "Alpha"}, "3": {"stimulus": 718, "trial": 3, "rt": 3159, "response": "Gamma"}, "2": {"stimulus": 437, "trial": 2, "rt": 1935, "response": "Alpha"}, "5": {"stimulus": 1312, "trial": 5, "rt": 2030, "response": "Gamma"}, "4": {"stimulus": 687, "trial": 4, "rt": 1239, "response": "Alpha"}, "7": {"stimulus": 1687, "trial": 7, "rt": 1591, "response": "Alpha"}, "6": {"stimulus": 30, "trial": 6, "rt": 2592, "response": "Alpha"}, "9": {"stimulus": 1655, "trial": 9, "rt": 1455, "response": "Beta"}, "8": {"stimulus": 405, "trial": 8, "rt": 2991, "response": "Gamma"}, "78": {"stimulus": 2187, "trial": 78, "rt": 1103, "response": "Gamma"}, "51": {"stimulus": 999, "trial": 51, "rt": 2366, "response": "Alpha"}, "39": {"stimulus": 0, "trial": 39, "rt": 1624, "response": "Beta"}, "65": {"stimulus": 1249, "trial": 65, "rt": 1446, "response": "Alpha"}, "76": {"stimulus": 2062, "trial": 76, "rt": 1206, "response": "Beta"}, "75": {"stimulus": 1780, "trial": 75, "rt": 1070, "response": "Beta"}, "38": {"stimulus": 1530, "trial": 38, "rt": 2127, "response": "Gamma"}, "73": {"stimulus": 1624, "trial": 73, "rt": 904, "response": "Beta"}, "72": {"stimulus": 562, "trial": 72, "rt": 1464, "response": "Beta"}, "71": {"stimulus": 1562, "trial": 71, "rt": 1255, "response": "Beta"}, "70": {"stimulus": 937, "trial": 70, "rt": 3223, "response": "Gamma"}, "59": {"stimulus": 843, "trial": 59, "rt": 1430, "response": "Alpha"}, "79": {"stimulus": 155, "trial": 79, "rt": 1151, "response": "Beta"}, "58": {"stimulus": 187, "trial": 58, "rt": 1511, "response": "Alpha"}, "11": {"stimulus": 374, "trial": 11, "rt": 1640, "response": "Gamma"}, "10": {"stimulus": 780, "trial": 10, "rt": 1663, "response": "Alpha"}, "13": {"stimulus": 655, "trial": 13, "rt": 2421, "response": "Beta"}, "12": {"stimulus": 1468, "trial": 12, "rt": 5751, "response": "Beta"}, "15": {"stimulus": 1749, "trial": 15, "rt": 2406, "response": "Gamma"}, "14": {"stimulus": 2280, "trial": 14, "rt": 4343, "response": "Beta"}, "17": {"stimulus": 905, "trial": 17, "rt": 1310, "response": "Beta"}, "16": {"stimulus": 530, "trial": 16, "rt": 3718, "response": "Alpha"}, "19": {"stimulus": 124, "trial": 19, "rt": 3536, "response": "Alpha"}, "18": {"stimulus": 1905, "trial": 18, "rt": 2206, "response": "Beta"}, "31": {"stimulus": 280, "trial": 31, "rt": 3008, "response": "Gamma"}, "30": {"stimulus": 1280, "trial": 30, "rt": 4142, "response": "Gamma"}, "37": {"stimulus": 2218, "trial": 37, "rt": 1846, "response": "Beta"}, "36": {"stimulus": 2030, "trial": 36, "rt": 2342, "response": "Gamma"}, "35": {"stimulus": 2312, "trial": 35, "rt": 1824, "response": "Beta"}, "34": {"stimulus": 968, "trial": 34, "rt": 1086, "response": "Beta"}, "33": {"stimulus": 812, "trial": 33, "rt": 1424, "response": "Beta"}, "55": {"stimulus": 1155, "trial": 55, "rt": 1135, "response": "Beta"}, "74": {"stimulus": 1874, "trial": 74, "rt": 678, "response": "Beta"}, "32": {"stimulus": 1999, "trial": 32, "rt": 5167, "response": "Alpha"}, "57": {"stimulus": 2405, "trial": 57, "rt": 2150, "response": "Beta"}, "50": {"stimulus": 312, "trial": 50, "rt": 1342, "response": "Beta"}}, "experiment": {"Paradigm": "TACL", "Stimuli": "Size-Color Squares", "Experiment": "Generating-Multiple-Categories"}, "submit": {"timeTotal": 469096, "age": "51", "comments": "", "sex": "Male"}}