{"info": {"finish": 1548125832446, "participant": 273, "exposed": true, "lab": false, "start": 1548125358326, "counterbalance": 5, "gentype": 2, "condition": "Row", "browser": {"platform": "Win32", "userAgent": "Mozilla/5.0 (Windows NT 6.1; Win64; x64) AppleWebKit/537.36 (KHTML, like Gecko) Chrome/71.0.3578.98 Safari/537.36"}}, "observation": {"11": {"stimulus": 582, "trial": 11, "rt": 1577}, "10": {"stimulus": 421, "trial": 10, "rt": 5332}, "1": {"stimulus": 493, "trial": 1, "rt": 2097}, "0": {"stimulus": 421, "trial": 0, "rt": 2792}, "3": {"stimulus": 582, "trial": 3, "rt": 1673}, "2": {"stimulus": 612, "trial": 2, "rt": 1956}, "5": {"stimulus": 421, "trial": 5, "rt": 2969}, "4": {"stimulus": 612, "trial": 4, "rt": 61783}, "7": {"stimulus": 493, "trial": 7, "rt": 1453}, "6": {"stimulus": 582, "trial": 6, "rt": 1461}, "9": {"stimulus": 493, "trial": 9, "rt": 3952}, "8": {"stimulus": 612, "trial": 8, "rt": 1478}}, "generation": {"1": {"category": "Beta", "trial": 1, "stimulus": 2459, "rt": 9068}, "0": {"category": "Beta", "trial": 0, "stimulus": 2450, "rt": 15815}, "3": {"category": "Beta", "trial": 3, "stimulus": 2493, "rt": 3493}, "2": {"category": "Beta", "trial": 2, "stimulus": 2473, "rt": 3281}, "5": {"category": "Gamma", "trial": 5, "stimulus": 37, "rt": 4003}, "4": {"category": "Gamma", "trial": 4, "stimulus": 49, "rt": 4983}, "7": {"category": "Gamma", "trial": 7, "stimulus": 0, "rt": 3520}, "6": {"category": "Gamma", "trial": 6, "stimulus": 20, "rt": 3945}}, "generalization": {"56": {"stimulus": 405, "trial": 56, "rt": 1149, "response": "Gamma"}, "77": {"stimulus": 155, "trial": 77, "rt": 619, "response": "Gamma"}, "54": {"stimulus": 343, "trial": 54, "rt": 1068, "response": "Gamma"}, "42": {"stimulus": 562, "trial": 42, "rt": 1150, "response": "Gamma"}, "48": {"stimulus": 1405, "trial": 48, "rt": 660, "response": "Alpha"}, "43": {"stimulus": 1749, "trial": 43, "rt": 3102, "response": "Alpha"}, "60": {"stimulus": 2062, "trial": 60, "rt": 2955, "response": "Beta"}, "61": {"stimulus": 655, "trial": 61, "rt": 1038, "response": "Gamma"}, "62": {"stimulus": 749, "trial": 62, "rt": 726, "response": "Gamma"}, "63": {"stimulus": 2437, "trial": 63, "rt": 1323, "response": "Beta"}, "64": {"stimulus": 1280, "trial": 64, "rt": 970, "response": "Alpha"}, "49": {"stimulus": 1187, "trial": 49, "rt": 928, "response": "Alpha"}, "66": {"stimulus": 2499, "trial": 66, "rt": 1650, "response": "Beta"}, "67": {"stimulus": 2187, "trial": 67, "rt": 1632, "response": "Beta"}, "68": {"stimulus": 187, "trial": 68, "rt": 2348, "response": "Gamma"}, "69": {"stimulus": 0, "trial": 69, "rt": 5130, "response": "Gamma"}, "80": {"stimulus": 812, "trial": 80, "rt": 578, "response": "Alpha"}, "52": {"stimulus": 2280, "trial": 52, "rt": 1153, "response": "Beta"}, "53": {"stimulus": 999, "trial": 53, "rt": 939, "response": "Alpha"}, "24": {"stimulus": 1343, "trial": 24, "rt": 1100, "response": "Alpha"}, "25": {"stimulus": 1968, "trial": 25, "rt": 868, "response": "Beta"}, "26": {"stimulus": 374, "trial": 26, "rt": 1591, "response": "Gamma"}, "27": {"stimulus": 1593, "trial": 27, "rt": 1863, "response": "Alpha"}, "20": {"stimulus": 1312, "trial": 20, "rt": 4263, "response": "Alpha"}, "21": {"stimulus": 2405, "trial": 21, "rt": 1330, "response": "Beta"}, "22": {"stimulus": 1124, "trial": 22, "rt": 9640, "response": "Gamma"}, "23": {"stimulus": 249, "trial": 23, "rt": 957, "response": "Gamma"}, "46": {"stimulus": 30, "trial": 46, "rt": 1288, "response": "Gamma"}, "47": {"stimulus": 1624, "trial": 47, "rt": 2373, "response": "Alpha"}, "44": {"stimulus": 1843, "trial": 44, "rt": 6282, "response": "Alpha"}, "45": {"stimulus": 312, "trial": 45, "rt": 2790, "response": "Gamma"}, "28": {"stimulus": 1655, "trial": 28, "rt": 10857, "response": "Alpha"}, "29": {"stimulus": 718, "trial": 29, "rt": 913, "response": "Gamma"}, "40": {"stimulus": 2124, "trial": 40, "rt": 1965, "response": "Beta"}, "41": {"stimulus": 1780, "trial": 41, "rt": 1301, "response": "Alpha"}, "1": {"stimulus": 62, "trial": 1, "rt": 1640, "response": "Gamma"}, "0": {"stimulus": 1812, "trial": 0, "rt": 10038, "response": "Alpha"}, "3": {"stimulus": 1030, "trial": 3, "rt": 715, "response": "Alpha"}, "2": {"stimulus": 1062, "trial": 2, "rt": 1868, "response": "Alpha"}, "5": {"stimulus": 905, "trial": 5, "rt": 749, "response": "Alpha"}, "4": {"stimulus": 1562, "trial": 4, "rt": 1011, "response": "Beta"}, "7": {"stimulus": 530, "trial": 7, "rt": 2243, "response": "Gamma"}, "6": {"stimulus": 937, "trial": 6, "rt": 810, "response": "Alpha"}, "9": {"stimulus": 437, "trial": 9, "rt": 1242, "response": "Alpha"}, "8": {"stimulus": 2093, "trial": 8, "rt": 1336, "response": "Beta"}, "78": {"stimulus": 1687, "trial": 78, "rt": 1158, "response": "Alpha"}, "51": {"stimulus": 280, "trial": 51, "rt": 1029, "response": "Gamma"}, "39": {"stimulus": 593, "trial": 39, "rt": 1082, "response": "Gamma"}, "65": {"stimulus": 93, "trial": 65, "rt": 950, "response": "Gamma"}, "76": {"stimulus": 124, "trial": 76, "rt": 990, "response": "Gamma"}, "75": {"stimulus": 1218, "trial": 75, "rt": 767, "response": "Alpha"}, "38": {"stimulus": 1905, "trial": 38, "rt": 2664, "response": "Alpha"}, "73": {"stimulus": 1530, "trial": 73, "rt": 1043, "response": "Alpha"}, "72": {"stimulus": 2468, "trial": 72, "rt": 741, "response": "Beta"}, "71": {"stimulus": 2249, "trial": 71, "rt": 866, "response": "Beta"}, "70": {"stimulus": 624, "trial": 70, "rt": 1357, "response": "Alpha"}, "59": {"stimulus": 874, "trial": 59, "rt": 760, "response": "Alpha"}, "79": {"stimulus": 780, "trial": 79, "rt": 781, "response": "Alpha"}, "58": {"stimulus": 1499, "trial": 58, "rt": 1835, "response": "Alpha"}, "11": {"stimulus": 2312, "trial": 11, "rt": 1484, "response": "Beta"}, "10": {"stimulus": 1874, "trial": 10, "rt": 818, "response": "Beta"}, "13": {"stimulus": 2218, "trial": 13, "rt": 1059, "response": "Beta"}, "12": {"stimulus": 499, "trial": 12, "rt": 1537, "response": "Gamma"}, "15": {"stimulus": 2030, "trial": 15, "rt": 2284, "response": "Beta"}, "14": {"stimulus": 2155, "trial": 14, "rt": 1427, "response": "Beta"}, "17": {"stimulus": 1718, "trial": 17, "rt": 2461, "response": "Alpha"}, "16": {"stimulus": 2343, "trial": 16, "rt": 1646, "response": "Beta"}, "19": {"stimulus": 1093, "trial": 19, "rt": 1993, "response": "Gamma"}, "18": {"stimulus": 1374, "trial": 18, "rt": 2205, "response": "Alpha"}, "31": {"stimulus": 1937, "trial": 31, "rt": 1287, "response": "Alpha"}, "30": {"stimulus": 843, "trial": 30, "rt": 1235, "response": "Gamma"}, "37": {"stimulus": 218, "trial": 37, "rt": 862, "response": "Gamma"}, "36": {"stimulus": 1999, "trial": 36, "rt": 993, "response": "Alpha"}, "35": {"stimulus": 1468, "trial": 35, "rt": 821, "response": "Alpha"}, "34": {"stimulus": 2374, "trial": 34, "rt": 1018, "response": "Beta"}, "33": {"stimulus": 687, "trial": 33, "rt": 1405, "response": "Gamma"}, "55": {"stimulus": 968, "trial": 55, "rt": 1421, "response": "Alpha"}, "74": {"stimulus": 468, "trial": 74, "rt": 1280, "response": "Alpha"}, "32": {"stimulus": 1155, "trial": 32, "rt": 1002, "response": "Alpha"}, "57": {"stimulus": 1437, "trial": 57, "rt": 1164, "response": "Alpha"}, "50": {"stimulus": 1249, "trial": 50, "rt": 898, "response": "Alpha"}}, "experiment": {"Paradigm": "TACL", "Stimuli": "Size-Color Squares", "Experiment": "Generating-Multiple-Categories"}, "submit": {"timeTotal": 474304, "age": "29", "comments": "not a bad task", "sex": "Male"}}