{"info": {"finish": 1548126726298, "participant": 277, "exposed": true, "lab": false, "start": 1548126449821, "counterbalance": 1, "gentype": 1, "condition": "XOR", "browser": {"platform": "Win32", "userAgent": "Mozilla/5.0 (Windows NT 10.0; Win64; x64) AppleWebKit/537.36 (KHTML, like Gecko) Chrome/71.0.3578.98 Safari/537.36"}}, "observation": {"11": {"stimulus": 818, "trial": 11, "rt": 1433}, "10": {"stimulus": 1479, "trial": 10, "rt": 1485}, "1": {"stimulus": 403, "trial": 1, "rt": 1691}, "0": {"stimulus": 1479, "trial": 0, "rt": 3465}, "3": {"stimulus": 1890, "trial": 3, "rt": 1907}, "2": {"stimulus": 818, "trial": 2, "rt": 1662}, "5": {"stimulus": 1479, "trial": 5, "rt": 1951}, "4": {"stimulus": 403, "trial": 4, "rt": 1690}, "7": {"stimulus": 818, "trial": 7, "rt": 1550}, "6": {"stimulus": 1890, "trial": 6, "rt": 1786}, "9": {"stimulus": 403, "trial": 9, "rt": 1606}, "8": {"stimulus": 1890, "trial": 8, "rt": 1881}}, "generation": {"1": {"category": "Beta", "trial": 1, "stimulus": 2473, "rt": 4201}, "0": {"category": "Beta", "trial": 0, "stimulus": 2479, "rt": 7596}, "3": {"category": "Beta", "trial": 3, "stimulus": 2499, "rt": 3949}, "2": {"category": "Beta", "trial": 2, "stimulus": 2457, "rt": 3506}, "5": {"category": "Beta", "trial": 5, "stimulus": 2482, "rt": 3785}, "4": {"category": "Beta", "trial": 4, "stimulus": 2493, "rt": 3849}, "7": {"category": "Beta", "trial": 7, "stimulus": 2467, "rt": 3343}, "6": {"category": "Beta", "trial": 6, "stimulus": 2468, "rt": 3792}}, "generalization": {"56": {"stimulus": 0, "trial": 56, "rt": 758, "response": "Alpha"}, "77": {"stimulus": 2187, "trial": 77, "rt": 1154, "response": "Beta"}, "54": {"stimulus": 718, "trial": 54, "rt": 790, "response": "Alpha"}, "42": {"stimulus": 2343, "trial": 42, "rt": 935, "response": "Beta"}, "48": {"stimulus": 1124, "trial": 48, "rt": 594, "response": "Alpha"}, "43": {"stimulus": 1812, "trial": 43, "rt": 918, "response": "Alpha"}, "60": {"stimulus": 530, "trial": 60, "rt": 739, "response": "Alpha"}, "61": {"stimulus": 780, "trial": 61, "rt": 755, "response": "Alpha"}, "62": {"stimulus": 1874, "trial": 62, "rt": 812, "response": "Alpha"}, "63": {"stimulus": 1749, "trial": 63, "rt": 756, "response": "Alpha"}, "64": {"stimulus": 249, "trial": 64, "rt": 629, "response": "Alpha"}, "49": {"stimulus": 1905, "trial": 49, "rt": 752, "response": "Alpha"}, "66": {"stimulus": 1843, "trial": 66, "rt": 766, "response": "Alpha"}, "67": {"stimulus": 2124, "trial": 67, "rt": 1243, "response": "Beta"}, "68": {"stimulus": 1718, "trial": 68, "rt": 1060, "response": "Alpha"}, "69": {"stimulus": 187, "trial": 69, "rt": 762, "response": "Alpha"}, "80": {"stimulus": 1218, "trial": 80, "rt": 1066, "response": "Alpha"}, "52": {"stimulus": 2468, "trial": 52, "rt": 1176, "response": "Beta"}, "53": {"stimulus": 2093, "trial": 53, "rt": 982, "response": "Alpha"}, "24": {"stimulus": 812, "trial": 24, "rt": 739, "response": "Alpha"}, "25": {"stimulus": 2405, "trial": 25, "rt": 911, "response": "Beta"}, "26": {"stimulus": 1155, "trial": 26, "rt": 755, "response": "Alpha"}, "27": {"stimulus": 655, "trial": 27, "rt": 583, "response": "Alpha"}, "20": {"stimulus": 1687, "trial": 20, "rt": 966, "response": "Alpha"}, "21": {"stimulus": 374, "trial": 21, "rt": 1353, "response": "Alpha"}, "22": {"stimulus": 562, "trial": 22, "rt": 933, "response": "Alpha"}, "23": {"stimulus": 2280, "trial": 23, "rt": 892, "response": "Beta"}, "46": {"stimulus": 2312, "trial": 46, "rt": 1089, "response": "Beta"}, "47": {"stimulus": 1280, "trial": 47, "rt": 739, "response": "Alpha"}, "44": {"stimulus": 1593, "trial": 44, "rt": 560, "response": "Alpha"}, "45": {"stimulus": 1312, "trial": 45, "rt": 523, "response": "Alpha"}, "28": {"stimulus": 1530, "trial": 28, "rt": 584, "response": "Alpha"}, "29": {"stimulus": 999, "trial": 29, "rt": 719, "response": "Alpha"}, "40": {"stimulus": 280, "trial": 40, "rt": 571, "response": "Alpha"}, "41": {"stimulus": 968, "trial": 41, "rt": 509, "response": "Alpha"}, "1": {"stimulus": 155, "trial": 1, "rt": 1536, "response": "Alpha"}, "0": {"stimulus": 1999, "trial": 0, "rt": 2089, "response": "Alpha"}, "3": {"stimulus": 1562, "trial": 3, "rt": 896, "response": "Alpha"}, "2": {"stimulus": 874, "trial": 2, "rt": 842, "response": "Alpha"}, "5": {"stimulus": 1437, "trial": 5, "rt": 756, "response": "Alpha"}, "4": {"stimulus": 937, "trial": 4, "rt": 718, "response": "Alpha"}, "7": {"stimulus": 2374, "trial": 7, "rt": 897, "response": "Beta"}, "6": {"stimulus": 1655, "trial": 6, "rt": 826, "response": "Alpha"}, "9": {"stimulus": 2437, "trial": 9, "rt": 1132, "response": "Beta"}, "8": {"stimulus": 218, "trial": 8, "rt": 795, "response": "Alpha"}, "78": {"stimulus": 93, "trial": 78, "rt": 1035, "response": "Alpha"}, "51": {"stimulus": 1937, "trial": 51, "rt": 810, "response": "Alpha"}, "39": {"stimulus": 1780, "trial": 39, "rt": 716, "response": "Alpha"}, "65": {"stimulus": 343, "trial": 65, "rt": 1235, "response": "Alpha"}, "76": {"stimulus": 843, "trial": 76, "rt": 1174, "response": "Alpha"}, "75": {"stimulus": 2155, "trial": 75, "rt": 1314, "response": "Beta"}, "38": {"stimulus": 1405, "trial": 38, "rt": 700, "response": "Alpha"}, "73": {"stimulus": 1499, "trial": 73, "rt": 898, "response": "Alpha"}, "72": {"stimulus": 1093, "trial": 72, "rt": 1041, "response": "Alpha"}, "71": {"stimulus": 1968, "trial": 71, "rt": 974, "response": "Alpha"}, "70": {"stimulus": 2218, "trial": 70, "rt": 1059, "response": "Beta"}, "59": {"stimulus": 593, "trial": 59, "rt": 1051, "response": "Alpha"}, "79": {"stimulus": 62, "trial": 79, "rt": 880, "response": "Alpha"}, "58": {"stimulus": 2499, "trial": 58, "rt": 981, "response": "Beta"}, "11": {"stimulus": 1249, "trial": 11, "rt": 750, "response": "Alpha"}, "10": {"stimulus": 2030, "trial": 10, "rt": 925, "response": "Alpha"}, "13": {"stimulus": 1187, "trial": 13, "rt": 2145, "response": "Alpha"}, "12": {"stimulus": 749, "trial": 12, "rt": 959, "response": "Alpha"}, "15": {"stimulus": 1343, "trial": 15, "rt": 771, "response": "Alpha"}, "14": {"stimulus": 1374, "trial": 14, "rt": 773, "response": "Alpha"}, "17": {"stimulus": 1062, "trial": 17, "rt": 743, "response": "Alpha"}, "16": {"stimulus": 2249, "trial": 16, "rt": 1452, "response": "Beta"}, "19": {"stimulus": 1468, "trial": 19, "rt": 1058, "response": "Alpha"}, "18": {"stimulus": 2062, "trial": 18, "rt": 1129, "response": "Beta"}, "31": {"stimulus": 499, "trial": 31, "rt": 549, "response": "Alpha"}, "30": {"stimulus": 687, "trial": 30, "rt": 550, "response": "Alpha"}, "37": {"stimulus": 437, "trial": 37, "rt": 586, "response": "Alpha"}, "36": {"stimulus": 468, "trial": 36, "rt": 576, "response": "Alpha"}, "35": {"stimulus": 1030, "trial": 35, "rt": 610, "response": "Alpha"}, "34": {"stimulus": 312, "trial": 34, "rt": 553, "response": "Alpha"}, "33": {"stimulus": 905, "trial": 33, "rt": 538, "response": "Alpha"}, "55": {"stimulus": 30, "trial": 55, "rt": 711, "response": "Alpha"}, "74": {"stimulus": 624, "trial": 74, "rt": 892, "response": "Alpha"}, "32": {"stimulus": 405, "trial": 32, "rt": 553, "response": "Alpha"}, "57": {"stimulus": 1624, "trial": 57, "rt": 823, "response": "Alpha"}, "50": {"stimulus": 124, "trial": 50, "rt": 772, "response": "Alpha"}}, "experiment": {"Paradigm": "TACL", "Stimuli": "Size-Color Squares", "Experiment": "Generating-Multiple-Categories"}, "submit": {"timeTotal": 276685, "age": "29", "comments": "quick and easy to understand.", "sex": "female"}}