{"info": {"finish": 1548128222950, "participant": 278, "exposed": true, "lab": false, "start": 1548127963990, "counterbalance": 5, "gentype": 0, "condition": "XOR", "browser": {"platform": "Win32", "userAgent": "Mozilla/5.0 (Windows NT 10.0; Win64; x64) AppleWebKit/537.36 (KHTML, like Gecko) Chrome/71.0.3578.98 Safari/537.36"}}, "observation": {"11": {"stimulus": 818, "trial": 11, "rt": 1438}, "10": {"stimulus": 403, "trial": 10, "rt": 1225}, "1": {"stimulus": 1479, "trial": 1, "rt": 2217}, "0": {"stimulus": 403, "trial": 0, "rt": 5403}, "3": {"stimulus": 1890, "trial": 3, "rt": 1677}, "2": {"stimulus": 818, "trial": 2, "rt": 22094}, "5": {"stimulus": 818, "trial": 5, "rt": 2795}, "4": {"stimulus": 1890, "trial": 4, "rt": 8006}, "7": {"stimulus": 1479, "trial": 7, "rt": 1661}, "6": {"stimulus": 403, "trial": 6, "rt": 1575}, "9": {"stimulus": 1479, "trial": 9, "rt": 2995}, "8": {"stimulus": 1890, "trial": 8, "rt": 3715}}, "generation": {"1": {"category": "Not-Alpha", "trial": 1, "stimulus": 760, "rt": 3721}, "0": {"category": "Not-Alpha", "trial": 0, "stimulus": 710, "rt": 5047}, "3": {"category": "Not-Alpha", "trial": 3, "stimulus": 49, "rt": 5896}, "2": {"category": "Not-Alpha", "trial": 2, "stimulus": 1158, "rt": 3008}, "5": {"category": "Not-Alpha", "trial": 5, "stimulus": 499, "rt": 6510}, "4": {"category": "Not-Alpha", "trial": 4, "stimulus": 2499, "rt": 4299}, "7": {"category": "Not-Alpha", "trial": 7, "stimulus": 1999, "rt": 2557}, "6": {"category": "Not-Alpha", "trial": 6, "stimulus": 949, "rt": 2427}}, "generalization": {"56": {"stimulus": 2187, "trial": 56, "rt": 2824, "response": "Beta"}, "77": {"stimulus": 843, "trial": 77, "rt": 208, "response": "Beta"}, "54": {"stimulus": 718, "trial": 54, "rt": 435, "response": "Beta"}, "42": {"stimulus": 593, "trial": 42, "rt": 267, "response": "Alpha"}, "48": {"stimulus": 1812, "trial": 48, "rt": 321, "response": "Alpha"}, "43": {"stimulus": 2468, "trial": 43, "rt": 211, "response": "Alpha"}, "60": {"stimulus": 1374, "trial": 60, "rt": 150, "response": "Alpha"}, "61": {"stimulus": 1093, "trial": 61, "rt": 462, "response": "Alpha"}, "62": {"stimulus": 1843, "trial": 62, "rt": 182, "response": "Beta"}, "63": {"stimulus": 1530, "trial": 63, "rt": 1615, "response": "Beta"}, "64": {"stimulus": 1280, "trial": 64, "rt": 6770, "response": "Alpha"}, "49": {"stimulus": 1249, "trial": 49, "rt": 283, "response": "Alpha"}, "66": {"stimulus": 2218, "trial": 66, "rt": 91, "response": "Alpha"}, "67": {"stimulus": 2062, "trial": 67, "rt": 267, "response": "Beta"}, "68": {"stimulus": 124, "trial": 68, "rt": 169, "response": "Beta"}, "69": {"stimulus": 1499, "trial": 69, "rt": 199, "response": "Beta"}, "80": {"stimulus": 93, "trial": 80, "rt": 661, "response": "Beta"}, "52": {"stimulus": 1749, "trial": 52, "rt": 1153, "response": "Alpha"}, "53": {"stimulus": 2093, "trial": 53, "rt": 229, "response": "Beta"}, "24": {"stimulus": 1780, "trial": 24, "rt": 283, "response": "Alpha"}, "25": {"stimulus": 499, "trial": 25, "rt": 226, "response": "Alpha"}, "26": {"stimulus": 1937, "trial": 26, "rt": 263, "response": "Alpha"}, "27": {"stimulus": 312, "trial": 27, "rt": 275, "response": "Beta"}, "20": {"stimulus": 874, "trial": 20, "rt": 334, "response": "Alpha"}, "21": {"stimulus": 2405, "trial": 21, "rt": 1097, "response": "Beta"}, "22": {"stimulus": 2030, "trial": 22, "rt": 1703, "response": "Alpha"}, "23": {"stimulus": 30, "trial": 23, "rt": 642, "response": "Beta"}, "46": {"stimulus": 530, "trial": 46, "rt": 312, "response": "Alpha"}, "47": {"stimulus": 1187, "trial": 47, "rt": 188, "response": "Beta"}, "44": {"stimulus": 999, "trial": 44, "rt": 1241, "response": "Beta"}, "45": {"stimulus": 1624, "trial": 45, "rt": 274, "response": "Alpha"}, "28": {"stimulus": 62, "trial": 28, "rt": 283, "response": "Alpha"}, "29": {"stimulus": 374, "trial": 29, "rt": 905, "response": "Beta"}, "40": {"stimulus": 249, "trial": 40, "rt": 1061, "response": "Alpha"}, "41": {"stimulus": 468, "trial": 41, "rt": 1062, "response": "Beta"}, "1": {"stimulus": 1405, "trial": 1, "rt": 1027, "response": "Alpha"}, "0": {"stimulus": 937, "trial": 0, "rt": 724, "response": "Alpha"}, "3": {"stimulus": 1968, "trial": 3, "rt": 817, "response": "Alpha"}, "2": {"stimulus": 1905, "trial": 2, "rt": 8174, "response": "Beta"}, "5": {"stimulus": 1593, "trial": 5, "rt": 735, "response": "Beta"}, "4": {"stimulus": 2312, "trial": 4, "rt": 659, "response": "Beta"}, "7": {"stimulus": 1030, "trial": 7, "rt": 911, "response": "Beta"}, "6": {"stimulus": 405, "trial": 6, "rt": 411, "response": "Alpha"}, "9": {"stimulus": 1218, "trial": 9, "rt": 336, "response": "Beta"}, "8": {"stimulus": 905, "trial": 8, "rt": 528, "response": "Alpha"}, "78": {"stimulus": 2374, "trial": 78, "rt": 914, "response": "Alpha"}, "51": {"stimulus": 1124, "trial": 51, "rt": 756, "response": "Alpha"}, "39": {"stimulus": 1874, "trial": 39, "rt": 301, "response": "Beta"}, "65": {"stimulus": 562, "trial": 65, "rt": 221, "response": "Beta"}, "76": {"stimulus": 2499, "trial": 76, "rt": 241, "response": "Alpha"}, "75": {"stimulus": 155, "trial": 75, "rt": 152, "response": "Alpha"}, "38": {"stimulus": 2280, "trial": 38, "rt": 151, "response": "Alpha"}, "73": {"stimulus": 280, "trial": 73, "rt": 1604, "response": "Alpha"}, "72": {"stimulus": 2437, "trial": 72, "rt": 163, "response": "Beta"}, "71": {"stimulus": 780, "trial": 71, "rt": 1408, "response": "Alpha"}, "70": {"stimulus": 2155, "trial": 70, "rt": 537, "response": "Alpha"}, "59": {"stimulus": 2124, "trial": 59, "rt": 298, "response": "Beta"}, "79": {"stimulus": 187, "trial": 79, "rt": 512, "response": "Alpha"}, "58": {"stimulus": 0, "trial": 58, "rt": 216, "response": "Alpha"}, "11": {"stimulus": 1312, "trial": 11, "rt": 504, "response": "Alpha"}, "10": {"stimulus": 1999, "trial": 10, "rt": 385, "response": "Alpha"}, "13": {"stimulus": 343, "trial": 13, "rt": 1280, "response": "Beta"}, "12": {"stimulus": 812, "trial": 12, "rt": 470, "response": "Beta"}, "15": {"stimulus": 1468, "trial": 15, "rt": 441, "response": "Alpha"}, "14": {"stimulus": 687, "trial": 14, "rt": 234, "response": "Alpha"}, "17": {"stimulus": 1155, "trial": 17, "rt": 260, "response": "Alpha"}, "16": {"stimulus": 655, "trial": 16, "rt": 256, "response": "Beta"}, "19": {"stimulus": 437, "trial": 19, "rt": 865, "response": "Beta"}, "18": {"stimulus": 624, "trial": 18, "rt": 512, "response": "Alpha"}, "31": {"stimulus": 2343, "trial": 31, "rt": 259, "response": "Alpha"}, "30": {"stimulus": 968, "trial": 30, "rt": 497, "response": "Beta"}, "37": {"stimulus": 1343, "trial": 37, "rt": 242, "response": "Alpha"}, "36": {"stimulus": 1562, "trial": 36, "rt": 263, "response": "Beta"}, "35": {"stimulus": 218, "trial": 35, "rt": 258, "response": "Alpha"}, "34": {"stimulus": 1655, "trial": 34, "rt": 345, "response": "Alpha"}, "33": {"stimulus": 1687, "trial": 33, "rt": 114, "response": "Beta"}, "55": {"stimulus": 1062, "trial": 55, "rt": 524, "response": "Alpha"}, "74": {"stimulus": 749, "trial": 74, "rt": 306, "response": "Beta"}, "32": {"stimulus": 2249, "trial": 32, "rt": 467, "response": "Beta"}, "57": {"stimulus": 1437, "trial": 57, "rt": 1053, "response": "Alpha"}, "50": {"stimulus": 1718, "trial": 50, "rt": 1066, "response": "Beta"}}, "experiment": {"Paradigm": "TACL", "Stimuli": "Size-Color Squares", "Experiment": "Generating-Multiple-Categories"}, "submit": {"timeTotal": 259210, "age": "28", "comments": "None", "sex": "Male"}}