{"info": {"finish": 1548128600379, "participant": 280, "exposed": true, "lab": false, "start": 1548128339851, "counterbalance": 1, "gentype": 1, "condition": "Row", "browser": {"platform": "MacIntel", "userAgent": "Mozilla/5.0 (Macintosh; Intel Mac OS X 10_14_0) AppleWebKit/537.36 (KHTML, like Gecko) Chrome/71.0.3578.98 Safari/537.36"}}, "observation": {"11": {"stimulus": 582, "trial": 11, "rt": 1452}, "10": {"stimulus": 612, "trial": 10, "rt": 1320}, "1": {"stimulus": 493, "trial": 1, "rt": 1585}, "0": {"stimulus": 421, "trial": 0, "rt": 2175}, "3": {"stimulus": 612, "trial": 3, "rt": 1444}, "2": {"stimulus": 582, "trial": 2, "rt": 1466}, "5": {"stimulus": 493, "trial": 5, "rt": 1516}, "4": {"stimulus": 612, "trial": 4, "rt": 1585}, "7": {"stimulus": 582, "trial": 7, "rt": 1485}, "6": {"stimulus": 421, "trial": 6, "rt": 1625}, "9": {"stimulus": 421, "trial": 9, "rt": 1287}, "8": {"stimulus": 493, "trial": 8, "rt": 1432}}, "generation": {"1": {"category": "Beta", "trial": 1, "stimulus": 2472, "rt": 4187}, "0": {"category": "Beta", "trial": 0, "stimulus": 2454, "rt": 12708}, "3": {"category": "Beta", "trial": 3, "stimulus": 2476, "rt": 4457}, "2": {"category": "Beta", "trial": 2, "stimulus": 2459, "rt": 4391}, "5": {"category": "Beta", "trial": 5, "stimulus": 2496, "rt": 8479}, "4": {"category": "Beta", "trial": 4, "stimulus": 2453, "rt": 3810}, "7": {"category": "Beta", "trial": 7, "stimulus": 2499, "rt": 4223}, "6": {"category": "Beta", "trial": 6, "stimulus": 2487, "rt": 4407}}, "generalization": {"56": {"stimulus": 718, "trial": 56, "rt": 865, "response": "Alpha"}, "77": {"stimulus": 593, "trial": 77, "rt": 898, "response": "Alpha"}, "54": {"stimulus": 343, "trial": 54, "rt": 746, "response": "Alpha"}, "42": {"stimulus": 405, "trial": 42, "rt": 863, "response": "Alpha"}, "48": {"stimulus": 2030, "trial": 48, "rt": 492, "response": "Beta"}, "43": {"stimulus": 1030, "trial": 43, "rt": 1585, "response": "Beta"}, "60": {"stimulus": 1999, "trial": 60, "rt": 556, "response": "Beta"}, "61": {"stimulus": 499, "trial": 61, "rt": 914, "response": "Alpha"}, "62": {"stimulus": 1343, "trial": 62, "rt": 653, "response": "Beta"}, "63": {"stimulus": 1093, "trial": 63, "rt": 792, "response": "Alpha"}, "64": {"stimulus": 749, "trial": 64, "rt": 700, "response": "Alpha"}, "49": {"stimulus": 1155, "trial": 49, "rt": 1018, "response": "Alpha"}, "66": {"stimulus": 1593, "trial": 66, "rt": 716, "response": "Beta"}, "67": {"stimulus": 312, "trial": 67, "rt": 669, "response": "Alpha"}, "68": {"stimulus": 1968, "trial": 68, "rt": 711, "response": "Beta"}, "69": {"stimulus": 249, "trial": 69, "rt": 664, "response": "Alpha"}, "80": {"stimulus": 1374, "trial": 80, "rt": 631, "response": "Beta"}, "52": {"stimulus": 1218, "trial": 52, "rt": 1458, "response": "Beta"}, "53": {"stimulus": 1812, "trial": 53, "rt": 1178, "response": "Beta"}, "24": {"stimulus": 1937, "trial": 24, "rt": 852, "response": "Beta"}, "25": {"stimulus": 2187, "trial": 25, "rt": 638, "response": "Beta"}, "26": {"stimulus": 2280, "trial": 26, "rt": 588, "response": "Beta"}, "27": {"stimulus": 1249, "trial": 27, "rt": 942, "response": "Alpha"}, "20": {"stimulus": 1187, "trial": 20, "rt": 1101, "response": "Beta"}, "21": {"stimulus": 1718, "trial": 21, "rt": 892, "response": "Beta"}, "22": {"stimulus": 1687, "trial": 22, "rt": 788, "response": "Beta"}, "23": {"stimulus": 2249, "trial": 23, "rt": 944, "response": "Beta"}, "46": {"stimulus": 812, "trial": 46, "rt": 1014, "response": "Alpha"}, "47": {"stimulus": 2468, "trial": 47, "rt": 442, "response": "Beta"}, "44": {"stimulus": 1874, "trial": 44, "rt": 601, "response": "Beta"}, "45": {"stimulus": 2343, "trial": 45, "rt": 492, "response": "Beta"}, "28": {"stimulus": 218, "trial": 28, "rt": 949, "response": "Alpha"}, "29": {"stimulus": 1062, "trial": 29, "rt": 996, "response": "Beta"}, "40": {"stimulus": 30, "trial": 40, "rt": 1330, "response": "Alpha"}, "41": {"stimulus": 1905, "trial": 41, "rt": 734, "response": "Beta"}, "1": {"stimulus": 62, "trial": 1, "rt": 886, "response": "Alpha"}, "0": {"stimulus": 280, "trial": 0, "rt": 2371, "response": "Alpha"}, "3": {"stimulus": 562, "trial": 3, "rt": 915, "response": "Alpha"}, "2": {"stimulus": 2218, "trial": 2, "rt": 767, "response": "Beta"}, "5": {"stimulus": 999, "trial": 5, "rt": 740, "response": "Alpha"}, "4": {"stimulus": 937, "trial": 4, "rt": 831, "response": "Alpha"}, "7": {"stimulus": 124, "trial": 7, "rt": 716, "response": "Alpha"}, "6": {"stimulus": 2405, "trial": 6, "rt": 637, "response": "Beta"}, "9": {"stimulus": 968, "trial": 9, "rt": 808, "response": "Beta"}, "8": {"stimulus": 1499, "trial": 8, "rt": 859, "response": "Beta"}, "78": {"stimulus": 468, "trial": 78, "rt": 738, "response": "Alpha"}, "51": {"stimulus": 1655, "trial": 51, "rt": 703, "response": "Beta"}, "39": {"stimulus": 843, "trial": 39, "rt": 1354, "response": "Alpha"}, "65": {"stimulus": 1468, "trial": 65, "rt": 890, "response": "Beta"}, "76": {"stimulus": 2437, "trial": 76, "rt": 501, "response": "Beta"}, "75": {"stimulus": 2155, "trial": 75, "rt": 564, "response": "Beta"}, "38": {"stimulus": 905, "trial": 38, "rt": 803, "response": "Beta"}, "73": {"stimulus": 1843, "trial": 73, "rt": 575, "response": "Beta"}, "72": {"stimulus": 374, "trial": 72, "rt": 730, "response": "Alpha"}, "71": {"stimulus": 187, "trial": 71, "rt": 725, "response": "Alpha"}, "70": {"stimulus": 2062, "trial": 70, "rt": 633, "response": "Beta"}, "59": {"stimulus": 93, "trial": 59, "rt": 698, "response": "Alpha"}, "79": {"stimulus": 1124, "trial": 79, "rt": 946, "response": "Beta"}, "58": {"stimulus": 1312, "trial": 58, "rt": 764, "response": "Beta"}, "11": {"stimulus": 1562, "trial": 11, "rt": 530, "response": "Beta"}, "10": {"stimulus": 437, "trial": 10, "rt": 834, "response": "Alpha"}, "13": {"stimulus": 1624, "trial": 13, "rt": 497, "response": "Beta"}, "12": {"stimulus": 687, "trial": 12, "rt": 731, "response": "Alpha"}, "15": {"stimulus": 530, "trial": 15, "rt": 779, "response": "Alpha"}, "14": {"stimulus": 1405, "trial": 14, "rt": 494, "response": "Beta"}, "17": {"stimulus": 2312, "trial": 17, "rt": 597, "response": "Beta"}, "16": {"stimulus": 1749, "trial": 16, "rt": 678, "response": "Beta"}, "19": {"stimulus": 2374, "trial": 19, "rt": 981, "response": "Beta"}, "18": {"stimulus": 874, "trial": 18, "rt": 690, "response": "Beta"}, "31": {"stimulus": 1780, "trial": 31, "rt": 567, "response": "Beta"}, "30": {"stimulus": 2093, "trial": 30, "rt": 717, "response": "Beta"}, "37": {"stimulus": 780, "trial": 37, "rt": 812, "response": "Alpha"}, "36": {"stimulus": 1530, "trial": 36, "rt": 882, "response": "Beta"}, "35": {"stimulus": 0, "trial": 35, "rt": 654, "response": "Alpha"}, "34": {"stimulus": 2499, "trial": 34, "rt": 835, "response": "Beta"}, "33": {"stimulus": 1437, "trial": 33, "rt": 853, "response": "Beta"}, "55": {"stimulus": 155, "trial": 55, "rt": 762, "response": "Alpha"}, "74": {"stimulus": 2124, "trial": 74, "rt": 563, "response": "Beta"}, "32": {"stimulus": 1280, "trial": 32, "rt": 1137, "response": "Beta"}, "57": {"stimulus": 655, "trial": 57, "rt": 1038, "response": "Alpha"}, "50": {"stimulus": 624, "trial": 50, "rt": 2449, "response": "Alpha"}}, "experiment": {"Paradigm": "TACL", "Stimuli": "Size-Color Squares", "Experiment": "Generating-Multiple-Categories"}, "submit": {"timeTotal": 260726, "age": "30", "comments": "It was cool to let me get a little creative.", "sex": "Male"}}