{"info": {"finish": 1548129082369, "participant": 283, "exposed": true, "lab": false, "start": 1548128723803, "counterbalance": 4, "gentype": 0, "condition": "Row", "browser": {"platform": "Win32", "userAgent": "Mozilla/5.0 (Windows NT 10.0; Win64; x64) AppleWebKit/537.36 (KHTML, like Gecko) Chrome/71.0.3578.98 Safari/537.36"}}, "observation": {"11": {"stimulus": 421, "trial": 11, "rt": 1606}, "10": {"stimulus": 612, "trial": 10, "rt": 1636}, "1": {"stimulus": 493, "trial": 1, "rt": 2501}, "0": {"stimulus": 421, "trial": 0, "rt": 2948}, "3": {"stimulus": 582, "trial": 3, "rt": 1806}, "2": {"stimulus": 612, "trial": 2, "rt": 2053}, "5": {"stimulus": 582, "trial": 5, "rt": 1630}, "4": {"stimulus": 612, "trial": 4, "rt": 1901}, "7": {"stimulus": 421, "trial": 7, "rt": 1570}, "6": {"stimulus": 493, "trial": 6, "rt": 1562}, "9": {"stimulus": 582, "trial": 9, "rt": 1594}, "8": {"stimulus": 493, "trial": 8, "rt": 1590}}, "generation": {"1": {"category": "Not-Alpha", "trial": 1, "stimulus": 49, "rt": 5944}, "0": {"category": "Not-Alpha", "trial": 0, "stimulus": 2199, "rt": 15733}, "3": {"category": "Not-Alpha", "trial": 3, "stimulus": 2495, "rt": 8643}, "2": {"category": "Not-Alpha", "trial": 2, "stimulus": 2250, "rt": 8659}, "5": {"category": "Not-Alpha", "trial": 5, "stimulus": 2450, "rt": 13691}, "4": {"category": "Not-Alpha", "trial": 4, "stimulus": 2499, "rt": 8740}, "7": {"category": "Not-Alpha", "trial": 7, "stimulus": 1949, "rt": 4286}, "6": {"category": "Not-Alpha", "trial": 6, "stimulus": 2099, "rt": 5520}}, "generalization": {"56": {"stimulus": 1030, "trial": 56, "rt": 658, "response": "Alpha"}, "77": {"stimulus": 1562, "trial": 77, "rt": 1851, "response": "Alpha"}, "54": {"stimulus": 343, "trial": 54, "rt": 508, "response": "Beta"}, "42": {"stimulus": 218, "trial": 42, "rt": 3438, "response": "Beta"}, "48": {"stimulus": 249, "trial": 48, "rt": 594, "response": "Beta"}, "43": {"stimulus": 1249, "trial": 43, "rt": 801, "response": "Beta"}, "60": {"stimulus": 1812, "trial": 60, "rt": 610, "response": "Alpha"}, "61": {"stimulus": 1187, "trial": 61, "rt": 715, "response": "Alpha"}, "62": {"stimulus": 124, "trial": 62, "rt": 1508, "response": "Beta"}, "63": {"stimulus": 1374, "trial": 63, "rt": 680, "response": "Alpha"}, "64": {"stimulus": 1312, "trial": 64, "rt": 593, "response": "Alpha"}, "49": {"stimulus": 187, "trial": 49, "rt": 1107, "response": "Alpha"}, "66": {"stimulus": 905, "trial": 66, "rt": 1683, "response": "Beta"}, "67": {"stimulus": 1437, "trial": 67, "rt": 1019, "response": "Alpha"}, "68": {"stimulus": 2343, "trial": 68, "rt": 1001, "response": "Beta"}, "69": {"stimulus": 2499, "trial": 69, "rt": 539, "response": "Beta"}, "80": {"stimulus": 1874, "trial": 80, "rt": 923, "response": "Beta"}, "52": {"stimulus": 562, "trial": 52, "rt": 721, "response": "Alpha"}, "53": {"stimulus": 1593, "trial": 53, "rt": 1184, "response": "Beta"}, "24": {"stimulus": 2437, "trial": 24, "rt": 2558, "response": "Alpha"}, "25": {"stimulus": 1405, "trial": 25, "rt": 928, "response": "Alpha"}, "26": {"stimulus": 687, "trial": 26, "rt": 1036, "response": "Beta"}, "27": {"stimulus": 1780, "trial": 27, "rt": 1691, "response": "Alpha"}, "20": {"stimulus": 2124, "trial": 20, "rt": 4369, "response": "Alpha"}, "21": {"stimulus": 2155, "trial": 21, "rt": 1677, "response": "Beta"}, "22": {"stimulus": 1218, "trial": 22, "rt": 1267, "response": "Alpha"}, "23": {"stimulus": 1655, "trial": 23, "rt": 2195, "response": "Alpha"}, "46": {"stimulus": 2249, "trial": 46, "rt": 944, "response": "Beta"}, "47": {"stimulus": 499, "trial": 47, "rt": 545, "response": "Beta"}, "44": {"stimulus": 999, "trial": 44, "rt": 778, "response": "Beta"}, "45": {"stimulus": 1718, "trial": 45, "rt": 2630, "response": "Alpha"}, "28": {"stimulus": 93, "trial": 28, "rt": 1546, "response": "Beta"}, "29": {"stimulus": 2405, "trial": 29, "rt": 2052, "response": "Beta"}, "40": {"stimulus": 1687, "trial": 40, "rt": 1162, "response": "Alpha"}, "41": {"stimulus": 2218, "trial": 41, "rt": 1861, "response": "Alpha"}, "1": {"stimulus": 1280, "trial": 1, "rt": 2212, "response": "Beta"}, "0": {"stimulus": 62, "trial": 0, "rt": 1097, "response": "Alpha"}, "3": {"stimulus": 780, "trial": 3, "rt": 1837, "response": "Alpha"}, "2": {"stimulus": 1124, "trial": 2, "rt": 1834, "response": "Alpha"}, "5": {"stimulus": 2312, "trial": 5, "rt": 1315, "response": "Beta"}, "4": {"stimulus": 374, "trial": 4, "rt": 867, "response": "Alpha"}, "7": {"stimulus": 1155, "trial": 7, "rt": 1811, "response": "Alpha"}, "6": {"stimulus": 155, "trial": 6, "rt": 1182, "response": "Beta"}, "9": {"stimulus": 2468, "trial": 9, "rt": 874, "response": "Alpha"}, "8": {"stimulus": 2187, "trial": 8, "rt": 1903, "response": "Beta"}, "78": {"stimulus": 968, "trial": 78, "rt": 848, "response": "Alpha"}, "51": {"stimulus": 937, "trial": 51, "rt": 1130, "response": "Alpha"}, "39": {"stimulus": 30, "trial": 39, "rt": 953, "response": "Beta"}, "65": {"stimulus": 1624, "trial": 65, "rt": 995, "response": "Alpha"}, "76": {"stimulus": 280, "trial": 76, "rt": 2028, "response": "Beta"}, "75": {"stimulus": 1093, "trial": 75, "rt": 968, "response": "Beta"}, "38": {"stimulus": 1937, "trial": 38, "rt": 616, "response": "Alpha"}, "73": {"stimulus": 2062, "trial": 73, "rt": 1027, "response": "Beta"}, "72": {"stimulus": 1843, "trial": 72, "rt": 927, "response": "Beta"}, "71": {"stimulus": 1905, "trial": 71, "rt": 7699, "response": "Beta"}, "70": {"stimulus": 1749, "trial": 70, "rt": 646, "response": "Beta"}, "59": {"stimulus": 655, "trial": 59, "rt": 1028, "response": "Beta"}, "79": {"stimulus": 1499, "trial": 79, "rt": 928, "response": "Beta"}, "58": {"stimulus": 624, "trial": 58, "rt": 1240, "response": "Beta"}, "11": {"stimulus": 718, "trial": 11, "rt": 1267, "response": "Beta"}, "10": {"stimulus": 2030, "trial": 10, "rt": 706, "response": "Alpha"}, "13": {"stimulus": 1468, "trial": 13, "rt": 1499, "response": "Beta"}, "12": {"stimulus": 1968, "trial": 12, "rt": 890, "response": "Alpha"}, "15": {"stimulus": 593, "trial": 15, "rt": 746, "response": "Beta"}, "14": {"stimulus": 749, "trial": 14, "rt": 923, "response": "Beta"}, "17": {"stimulus": 812, "trial": 17, "rt": 1525, "response": "Alpha"}, "16": {"stimulus": 1343, "trial": 16, "rt": 663, "response": "Beta"}, "19": {"stimulus": 0, "trial": 19, "rt": 1299, "response": "Beta"}, "18": {"stimulus": 530, "trial": 18, "rt": 1331, "response": "Alpha"}, "31": {"stimulus": 312, "trial": 31, "rt": 900, "response": "Beta"}, "30": {"stimulus": 2374, "trial": 30, "rt": 2004, "response": "Beta"}, "37": {"stimulus": 1530, "trial": 37, "rt": 2050, "response": "Alpha"}, "36": {"stimulus": 843, "trial": 36, "rt": 1563, "response": "Beta"}, "35": {"stimulus": 874, "trial": 35, "rt": 939, "response": "Alpha"}, "34": {"stimulus": 437, "trial": 34, "rt": 1635, "response": "Beta"}, "33": {"stimulus": 1999, "trial": 33, "rt": 546, "response": "Beta"}, "55": {"stimulus": 2280, "trial": 55, "rt": 2290, "response": "Beta"}, "74": {"stimulus": 1062, "trial": 74, "rt": 818, "response": "Alpha"}, "32": {"stimulus": 2093, "trial": 32, "rt": 1130, "response": "Beta"}, "57": {"stimulus": 405, "trial": 57, "rt": 1828, "response": "Beta"}, "50": {"stimulus": 468, "trial": 50, "rt": 744, "response": "Alpha"}}, "experiment": {"Paradigm": "TACL", "Stimuli": "Size-Color Squares", "Experiment": "Generating-Multiple-Categories"}, "submit": {"timeTotal": 358933, "age": "42", "comments": "I think I should not have messed with the size, I feel like I would have done better to create all mine with just color difference?", "sex": "female"}}