{"info": {"finish": 1548130737659, "participant": 286, "exposed": true, "lab": false, "start": 1548129637167, "counterbalance": 6, "gentype": 2, "condition": "XOR", "browser": {"platform": "Win32", "userAgent": "Mozilla/5.0 (Windows NT 6.1; WOW64; rv:64.0) Gecko/20100101 Firefox/64.0"}}, "observation": {"11": {"stimulus": 1890, "trial": 11, "rt": 1950}, "10": {"stimulus": 403, "trial": 10, "rt": 2061}, "1": {"stimulus": 1479, "trial": 1, "rt": 1976}, "0": {"stimulus": 403, "trial": 0, "rt": 85291}, "3": {"stimulus": 818, "trial": 3, "rt": 2624}, "2": {"stimulus": 1890, "trial": 2, "rt": 4484}, "5": {"stimulus": 1479, "trial": 5, "rt": 2009}, "4": {"stimulus": 818, "trial": 4, "rt": 1976}, "7": {"stimulus": 403, "trial": 7, "rt": 1903}, "6": {"stimulus": 1890, "trial": 6, "rt": 1866}, "9": {"stimulus": 818, "trial": 9, "rt": 2057}, "8": {"stimulus": 1479, "trial": 8, "rt": 1807}}, "generation": {"1": {"category": "Beta", "trial": 1, "stimulus": 49, "rt": 3838}, "0": {"category": "Beta", "trial": 0, "stimulus": 2499, "rt": 18563}, "3": {"category": "Beta", "trial": 3, "stimulus": 0, "rt": 5162}, "2": {"category": "Beta", "trial": 2, "stimulus": 2450, "rt": 20792}, "5": {"category": "Gamma", "trial": 5, "stimulus": 39, "rt": 5450}, "4": {"category": "Gamma", "trial": 4, "stimulus": 2489, "rt": 24323}, "7": {"category": "Gamma", "trial": 7, "stimulus": 11, "rt": 4336}, "6": {"category": "Gamma", "trial": 6, "stimulus": 2459, "rt": 15108}}, "generalization": {"56": {"stimulus": 2155, "trial": 56, "rt": 2111, "response": "Beta"}, "77": {"stimulus": 1437, "trial": 77, "rt": 1213, "response": "Alpha"}, "54": {"stimulus": 562, "trial": 54, "rt": 3544, "response": "Alpha"}, "42": {"stimulus": 1562, "trial": 42, "rt": 777, "response": "Alpha"}, "48": {"stimulus": 405, "trial": 48, "rt": 2471, "response": "Beta"}, "43": {"stimulus": 2093, "trial": 43, "rt": 5419, "response": "Gamma"}, "60": {"stimulus": 780, "trial": 60, "rt": 947, "response": "Alpha"}, "61": {"stimulus": 1155, "trial": 61, "rt": 729, "response": "Alpha"}, "62": {"stimulus": 312, "trial": 62, "rt": 3034, "response": "Gamma"}, "63": {"stimulus": 1124, "trial": 63, "rt": 1426, "response": "Alpha"}, "64": {"stimulus": 1905, "trial": 64, "rt": 1391, "response": "Alpha"}, "49": {"stimulus": 1999, "trial": 49, "rt": 11984, "response": "Alpha"}, "66": {"stimulus": 2499, "trial": 66, "rt": 1454, "response": "Beta"}, "67": {"stimulus": 218, "trial": 67, "rt": 4085, "response": "Gamma"}, "68": {"stimulus": 2405, "trial": 68, "rt": 1146, "response": "Beta"}, "69": {"stimulus": 1718, "trial": 69, "rt": 1300, "response": "Alpha"}, "80": {"stimulus": 905, "trial": 80, "rt": 1385, "response": "Alpha"}, "52": {"stimulus": 280, "trial": 52, "rt": 2238, "response": "Gamma"}, "53": {"stimulus": 1968, "trial": 53, "rt": 1715, "response": "Alpha"}, "24": {"stimulus": 0, "trial": 24, "rt": 2050, "response": "Beta"}, "25": {"stimulus": 2374, "trial": 25, "rt": 2194, "response": "Gamma"}, "26": {"stimulus": 2187, "trial": 26, "rt": 2823, "response": "Gamma"}, "27": {"stimulus": 1843, "trial": 27, "rt": 2535, "response": "Alpha"}, "20": {"stimulus": 1468, "trial": 20, "rt": 1676, "response": "Alpha"}, "21": {"stimulus": 968, "trial": 21, "rt": 1335, "response": "Alpha"}, "22": {"stimulus": 1812, "trial": 22, "rt": 2762, "response": "Alpha"}, "23": {"stimulus": 624, "trial": 23, "rt": 1750, "response": "Gamma"}, "46": {"stimulus": 1624, "trial": 46, "rt": 871, "response": "Alpha"}, "47": {"stimulus": 1687, "trial": 47, "rt": 1471, "response": "Alpha"}, "44": {"stimulus": 530, "trial": 44, "rt": 1306, "response": "Alpha"}, "45": {"stimulus": 718, "trial": 45, "rt": 807, "response": "Alpha"}, "28": {"stimulus": 1343, "trial": 28, "rt": 1644, "response": "Alpha"}, "29": {"stimulus": 1187, "trial": 29, "rt": 934, "response": "Alpha"}, "40": {"stimulus": 1780, "trial": 40, "rt": 1488, "response": "Alpha"}, "41": {"stimulus": 374, "trial": 41, "rt": 2762, "response": "Alpha"}, "1": {"stimulus": 843, "trial": 1, "rt": 1442, "response": "Gamma"}, "0": {"stimulus": 249, "trial": 0, "rt": 7210, "response": "Beta"}, "3": {"stimulus": 30, "trial": 3, "rt": 4032, "response": "Gamma"}, "2": {"stimulus": 2280, "trial": 2, "rt": 4048, "response": "Alpha"}, "5": {"stimulus": 1874, "trial": 5, "rt": 5426, "response": "Alpha"}, "4": {"stimulus": 593, "trial": 4, "rt": 5651, "response": "Gamma"}, "7": {"stimulus": 2343, "trial": 7, "rt": 6230, "response": "Alpha"}, "6": {"stimulus": 687, "trial": 6, "rt": 2648, "response": "Alpha"}, "9": {"stimulus": 187, "trial": 9, "rt": 3015, "response": "Gamma"}, "8": {"stimulus": 999, "trial": 8, "rt": 3110, "response": "Beta"}, "78": {"stimulus": 2030, "trial": 78, "rt": 789, "response": "Alpha"}, "51": {"stimulus": 2468, "trial": 51, "rt": 2585, "response": "Gamma"}, "39": {"stimulus": 437, "trial": 39, "rt": 1144, "response": "Gamma"}, "65": {"stimulus": 343, "trial": 65, "rt": 1517, "response": "Gamma"}, "76": {"stimulus": 2437, "trial": 76, "rt": 1678, "response": "Gamma"}, "75": {"stimulus": 2218, "trial": 75, "rt": 1504, "response": "Alpha"}, "38": {"stimulus": 468, "trial": 38, "rt": 2901, "response": "Gamma"}, "73": {"stimulus": 93, "trial": 73, "rt": 2987, "response": "Gamma"}, "72": {"stimulus": 812, "trial": 72, "rt": 1554, "response": "Alpha"}, "71": {"stimulus": 1499, "trial": 71, "rt": 1223, "response": "Alpha"}, "70": {"stimulus": 1405, "trial": 70, "rt": 1910, "response": "Alpha"}, "59": {"stimulus": 1062, "trial": 59, "rt": 1039, "response": "Alpha"}, "79": {"stimulus": 1312, "trial": 79, "rt": 938, "response": "Alpha"}, "58": {"stimulus": 1937, "trial": 58, "rt": 2020, "response": "Alpha"}, "11": {"stimulus": 1749, "trial": 11, "rt": 2190, "response": "Alpha"}, "10": {"stimulus": 1655, "trial": 10, "rt": 2074, "response": "Alpha"}, "13": {"stimulus": 1593, "trial": 13, "rt": 968, "response": "Alpha"}, "12": {"stimulus": 1374, "trial": 12, "rt": 1310, "response": "Alpha"}, "15": {"stimulus": 1218, "trial": 15, "rt": 4114, "response": "Alpha"}, "14": {"stimulus": 155, "trial": 14, "rt": 2769, "response": "Beta"}, "17": {"stimulus": 655, "trial": 17, "rt": 1631, "response": "Beta"}, "16": {"stimulus": 124, "trial": 16, "rt": 8089, "response": "Gamma"}, "19": {"stimulus": 2249, "trial": 19, "rt": 3096, "response": "Beta"}, "18": {"stimulus": 1093, "trial": 18, "rt": 432, "response": "Alpha"}, "31": {"stimulus": 2062, "trial": 31, "rt": 1878, "response": "Beta"}, "30": {"stimulus": 1280, "trial": 30, "rt": 749, "response": "Alpha"}, "37": {"stimulus": 749, "trial": 37, "rt": 1463, "response": "Beta"}, "36": {"stimulus": 937, "trial": 36, "rt": 1771, "response": "Alpha"}, "35": {"stimulus": 1249, "trial": 35, "rt": 8603, "response": "Alpha"}, "34": {"stimulus": 2312, "trial": 34, "rt": 3087, "response": "Gamma"}, "33": {"stimulus": 874, "trial": 33, "rt": 1488, "response": "Alpha"}, "55": {"stimulus": 62, "trial": 55, "rt": 1445, "response": "Beta"}, "74": {"stimulus": 1530, "trial": 74, "rt": 950, "response": "Alpha"}, "32": {"stimulus": 1030, "trial": 32, "rt": 2060, "response": "Alpha"}, "57": {"stimulus": 2124, "trial": 57, "rt": 1016, "response": "Gamma"}, "50": {"stimulus": 499, "trial": 50, "rt": 4200, "response": "Alpha"}}, "experiment": {"Paradigm": "TACL", "Stimuli": "Size-Color Squares", "Experiment": "Generating-Multiple-Categories"}, "submit": {"timeTotal": 1100706, "age": "61", "comments": "", "sex": "Male"}}