{"info": {"finish": 1548133527551, "participant": 287, "exposed": true, "lab": false, "start": 1548133089378, "counterbalance": 3, "gentype": 0, "condition": "Cluster", "browser": {"platform": "Win32", "userAgent": "Mozilla/5.0 (Windows NT 10.0; Win64; x64) AppleWebKit/537.36 (KHTML, like Gecko) Chrome/71.0.3578.98 Safari/537.36"}}, "observation": {"11": {"stimulus": 583, "trial": 11, "rt": 1600}, "10": {"stimulus": 1083, "trial": 10, "rt": 1734}, "1": {"stimulus": 1083, "trial": 1, "rt": 1728}, "0": {"stimulus": 392, "trial": 0, "rt": 2596}, "3": {"stimulus": 1093, "trial": 3, "rt": 1671}, "2": {"stimulus": 583, "trial": 2, "rt": 1824}, "5": {"stimulus": 1093, "trial": 5, "rt": 1871}, "4": {"stimulus": 1083, "trial": 4, "rt": 1686}, "7": {"stimulus": 583, "trial": 7, "rt": 1663}, "6": {"stimulus": 392, "trial": 6, "rt": 1560}, "9": {"stimulus": 392, "trial": 9, "rt": 1592}, "8": {"stimulus": 1093, "trial": 8, "rt": 1561}}, "generation": {"1": {"category": "Not-Alpha", "trial": 1, "stimulus": 1999, "rt": 10493}, "0": {"category": "Not-Alpha", "trial": 0, "stimulus": 2499, "rt": 16227}, "3": {"category": "Not-Alpha", "trial": 3, "stimulus": 0, "rt": 4950}, "2": {"category": "Not-Alpha", "trial": 2, "stimulus": 2450, "rt": 4342}, "5": {"category": "Not-Alpha", "trial": 5, "stimulus": 2474, "rt": 7166}, "4": {"category": "Not-Alpha", "trial": 4, "stimulus": 2150, "rt": 5086}, "7": {"category": "Not-Alpha", "trial": 7, "stimulus": 49, "rt": 5294}, "6": {"category": "Not-Alpha", "trial": 6, "stimulus": 2400, "rt": 11085}}, "generalization": {"56": {"stimulus": 1374, "trial": 56, "rt": 1143, "response": "Alpha"}, "77": {"stimulus": 1968, "trial": 77, "rt": 1591, "response": "Beta"}, "54": {"stimulus": 1124, "trial": 54, "rt": 5334, "response": "Alpha"}, "42": {"stimulus": 1624, "trial": 42, "rt": 1319, "response": "Alpha"}, "48": {"stimulus": 968, "trial": 48, "rt": 966, "response": "Alpha"}, "43": {"stimulus": 468, "trial": 43, "rt": 1503, "response": "Beta"}, "60": {"stimulus": 562, "trial": 60, "rt": 967, "response": "Alpha"}, "61": {"stimulus": 1937, "trial": 61, "rt": 1006, "response": "Beta"}, "62": {"stimulus": 2030, "trial": 62, "rt": 937, "response": "Alpha"}, "63": {"stimulus": 2499, "trial": 63, "rt": 883, "response": "Beta"}, "64": {"stimulus": 999, "trial": 64, "rt": 1712, "response": "Beta"}, "49": {"stimulus": 1905, "trial": 49, "rt": 1191, "response": "Beta"}, "66": {"stimulus": 1093, "trial": 66, "rt": 944, "response": "Beta"}, "67": {"stimulus": 530, "trial": 67, "rt": 3688, "response": "Alpha"}, "68": {"stimulus": 0, "trial": 68, "rt": 1231, "response": "Beta"}, "69": {"stimulus": 1530, "trial": 69, "rt": 1335, "response": "Alpha"}, "80": {"stimulus": 1312, "trial": 80, "rt": 1185, "response": "Alpha"}, "52": {"stimulus": 1562, "trial": 52, "rt": 1391, "response": "Beta"}, "53": {"stimulus": 62, "trial": 53, "rt": 1151, "response": "Beta"}, "24": {"stimulus": 1655, "trial": 24, "rt": 864, "response": "Beta"}, "25": {"stimulus": 2468, "trial": 25, "rt": 1159, "response": "Beta"}, "26": {"stimulus": 1405, "trial": 26, "rt": 1174, "response": "Beta"}, "27": {"stimulus": 624, "trial": 27, "rt": 1127, "response": "Alpha"}, "20": {"stimulus": 155, "trial": 20, "rt": 1470, "response": "Beta"}, "21": {"stimulus": 1999, "trial": 21, "rt": 1415, "response": "Beta"}, "22": {"stimulus": 593, "trial": 22, "rt": 959, "response": "Beta"}, "23": {"stimulus": 1468, "trial": 23, "rt": 1471, "response": "Alpha"}, "46": {"stimulus": 343, "trial": 46, "rt": 1535, "response": "Beta"}, "47": {"stimulus": 687, "trial": 47, "rt": 951, "response": "Beta"}, "44": {"stimulus": 2280, "trial": 44, "rt": 1231, "response": "Beta"}, "45": {"stimulus": 937, "trial": 45, "rt": 1631, "response": "Beta"}, "28": {"stimulus": 718, "trial": 28, "rt": 4000, "response": "Alpha"}, "29": {"stimulus": 1249, "trial": 29, "rt": 1495, "response": "Beta"}, "40": {"stimulus": 2124, "trial": 40, "rt": 1016, "response": "Beta"}, "41": {"stimulus": 280, "trial": 41, "rt": 1184, "response": "Alpha"}, "1": {"stimulus": 2093, "trial": 1, "rt": 2159, "response": "Beta"}, "0": {"stimulus": 1062, "trial": 0, "rt": 7399, "response": "Beta"}, "3": {"stimulus": 218, "trial": 3, "rt": 1223, "response": "Alpha"}, "2": {"stimulus": 187, "trial": 2, "rt": 1454, "response": "Alpha"}, "5": {"stimulus": 1280, "trial": 5, "rt": 1359, "response": "Alpha"}, "4": {"stimulus": 405, "trial": 4, "rt": 1263, "response": "Beta"}, "7": {"stimulus": 124, "trial": 7, "rt": 1272, "response": "Alpha"}, "6": {"stimulus": 312, "trial": 6, "rt": 1096, "response": "Beta"}, "9": {"stimulus": 1843, "trial": 9, "rt": 1360, "response": "Beta"}, "8": {"stimulus": 1343, "trial": 8, "rt": 1344, "response": "Beta"}, "78": {"stimulus": 249, "trial": 78, "rt": 1543, "response": "Beta"}, "51": {"stimulus": 1780, "trial": 51, "rt": 1078, "response": "Alpha"}, "39": {"stimulus": 1718, "trial": 39, "rt": 1407, "response": "Alpha"}, "65": {"stimulus": 874, "trial": 65, "rt": 2063, "response": "Alpha"}, "76": {"stimulus": 2155, "trial": 76, "rt": 946, "response": "Beta"}, "75": {"stimulus": 437, "trial": 75, "rt": 1421, "response": "Alpha"}, "38": {"stimulus": 499, "trial": 38, "rt": 895, "response": "Beta"}, "73": {"stimulus": 1155, "trial": 73, "rt": 2454, "response": "Alpha"}, "72": {"stimulus": 1749, "trial": 72, "rt": 1015, "response": "Beta"}, "71": {"stimulus": 1499, "trial": 71, "rt": 918, "response": "Beta"}, "70": {"stimulus": 1593, "trial": 70, "rt": 1255, "response": "Beta"}, "59": {"stimulus": 1687, "trial": 59, "rt": 1584, "response": "Beta"}, "79": {"stimulus": 2249, "trial": 79, "rt": 727, "response": "Beta"}, "58": {"stimulus": 1030, "trial": 58, "rt": 1279, "response": "Alpha"}, "11": {"stimulus": 374, "trial": 11, "rt": 1127, "response": "Alpha"}, "10": {"stimulus": 1812, "trial": 10, "rt": 1950, "response": "Beta"}, "13": {"stimulus": 843, "trial": 13, "rt": 926, "response": "Beta"}, "12": {"stimulus": 749, "trial": 12, "rt": 2319, "response": "Beta"}, "15": {"stimulus": 2374, "trial": 15, "rt": 1814, "response": "Beta"}, "14": {"stimulus": 2405, "trial": 14, "rt": 1479, "response": "Beta"}, "17": {"stimulus": 655, "trial": 17, "rt": 1312, "response": "Beta"}, "16": {"stimulus": 1218, "trial": 16, "rt": 1639, "response": "Alpha"}, "19": {"stimulus": 2062, "trial": 19, "rt": 1143, "response": "Beta"}, "18": {"stimulus": 780, "trial": 18, "rt": 7101, "response": "Beta"}, "31": {"stimulus": 1874, "trial": 31, "rt": 1624, "response": "Alpha"}, "30": {"stimulus": 2437, "trial": 30, "rt": 1606, "response": "Beta"}, "37": {"stimulus": 30, "trial": 37, "rt": 823, "response": "Beta"}, "36": {"stimulus": 1437, "trial": 36, "rt": 1398, "response": "Beta"}, "35": {"stimulus": 2187, "trial": 35, "rt": 1127, "response": "Beta"}, "34": {"stimulus": 93, "trial": 34, "rt": 1320, "response": "Beta"}, "33": {"stimulus": 2218, "trial": 33, "rt": 2590, "response": "Beta"}, "55": {"stimulus": 905, "trial": 55, "rt": 2592, "response": "Alpha"}, "74": {"stimulus": 1187, "trial": 74, "rt": 1959, "response": "Alpha"}, "32": {"stimulus": 2343, "trial": 32, "rt": 1048, "response": "Beta"}, "57": {"stimulus": 2312, "trial": 57, "rt": 919, "response": "Beta"}, "50": {"stimulus": 812, "trial": 50, "rt": 1319, "response": "Beta"}}, "experiment": {"Paradigm": "TACL", "Stimuli": "Size-Color Squares", "Experiment": "Generating-Multiple-Categories"}, "submit": {"timeTotal": 438503, "age": "47", "comments": "I'm not 100% sure I nailed down exactly what alpha was in my head, I was aiming for medium sized squares in a largish middle of the brightness scale.", "sex": "male"}}