{"info": {"finish": 1548134271733, "participant": 289, "exposed": true, "lab": false, "start": 1548133952094, "counterbalance": 3, "gentype": 1, "condition": "XOR", "browser": {"platform": "Win32", "userAgent": "Mozilla/5.0 (Windows NT 6.1; Win64; x64) AppleWebKit/537.36 (KHTML, like Gecko) Chrome/71.0.3578.98 Safari/537.36"}}, "observation": {"11": {"stimulus": 1890, "trial": 11, "rt": 1999}, "10": {"stimulus": 818, "trial": 10, "rt": 1843}, "1": {"stimulus": 1890, "trial": 1, "rt": 2235}, "0": {"stimulus": 1479, "trial": 0, "rt": 2866}, "3": {"stimulus": 403, "trial": 3, "rt": 2485}, "2": {"stimulus": 818, "trial": 2, "rt": 2019}, "5": {"stimulus": 403, "trial": 5, "rt": 2241}, "4": {"stimulus": 818, "trial": 4, "rt": 2049}, "7": {"stimulus": 1479, "trial": 7, "rt": 2047}, "6": {"stimulus": 1890, "trial": 6, "rt": 2713}, "9": {"stimulus": 1479, "trial": 9, "rt": 1908}, "8": {"stimulus": 403, "trial": 8, "rt": 2441}}, "generation": {"1": {"category": "Beta", "trial": 1, "stimulus": 49, "rt": 5168}, "0": {"category": "Beta", "trial": 0, "stimulus": 2450, "rt": 9538}, "3": {"category": "Beta", "trial": 3, "stimulus": 2204, "rt": 3562}, "2": {"category": "Beta", "trial": 2, "stimulus": 499, "rt": 4787}, "5": {"category": "Beta", "trial": 5, "stimulus": 294, "rt": 8359}, "4": {"category": "Beta", "trial": 4, "stimulus": 1954, "rt": 4237}, "7": {"category": "Beta", "trial": 7, "stimulus": 644, "rt": 2649}, "6": {"category": "Beta", "trial": 6, "stimulus": 444, "rt": 2552}}, "generalization": {"56": {"stimulus": 280, "trial": 56, "rt": 2098, "response": "Beta"}, "77": {"stimulus": 1124, "trial": 77, "rt": 1232, "response": "Alpha"}, "54": {"stimulus": 2312, "trial": 54, "rt": 850, "response": "Beta"}, "42": {"stimulus": 187, "trial": 42, "rt": 1090, "response": "Beta"}, "48": {"stimulus": 2468, "trial": 48, "rt": 1205, "response": "Beta"}, "43": {"stimulus": 2249, "trial": 43, "rt": 1039, "response": "Alpha"}, "60": {"stimulus": 562, "trial": 60, "rt": 2265, "response": "Alpha"}, "61": {"stimulus": 468, "trial": 61, "rt": 1283, "response": "Alpha"}, "62": {"stimulus": 1687, "trial": 62, "rt": 1269, "response": "Alpha"}, "63": {"stimulus": 937, "trial": 63, "rt": 1870, "response": "Beta"}, "64": {"stimulus": 718, "trial": 64, "rt": 1437, "response": "Alpha"}, "49": {"stimulus": 1437, "trial": 49, "rt": 1202, "response": "Alpha"}, "66": {"stimulus": 1155, "trial": 66, "rt": 1475, "response": "Beta"}, "67": {"stimulus": 1187, "trial": 67, "rt": 1321, "response": "Alpha"}, "68": {"stimulus": 1030, "trial": 68, "rt": 1027, "response": "Alpha"}, "69": {"stimulus": 812, "trial": 69, "rt": 1737, "response": "Beta"}, "80": {"stimulus": 249, "trial": 80, "rt": 798, "response": "Beta"}, "52": {"stimulus": 405, "trial": 52, "rt": 873, "response": "Alpha"}, "53": {"stimulus": 1562, "trial": 53, "rt": 1167, "response": "Beta"}, "24": {"stimulus": 1249, "trial": 24, "rt": 1460, "response": "Beta"}, "25": {"stimulus": 624, "trial": 25, "rt": 2738, "response": "Alpha"}, "26": {"stimulus": 1968, "trial": 26, "rt": 1564, "response": "Beta"}, "27": {"stimulus": 2093, "trial": 27, "rt": 2341, "response": "Alpha"}, "20": {"stimulus": 0, "trial": 20, "rt": 1194, "response": "Alpha"}, "21": {"stimulus": 312, "trial": 21, "rt": 1220, "response": "Alpha"}, "22": {"stimulus": 1593, "trial": 22, "rt": 7495, "response": "Beta"}, "23": {"stimulus": 1718, "trial": 23, "rt": 3605, "response": "Beta"}, "46": {"stimulus": 155, "trial": 46, "rt": 1025, "response": "Alpha"}, "47": {"stimulus": 343, "trial": 47, "rt": 1204, "response": "Beta"}, "44": {"stimulus": 687, "trial": 44, "rt": 1957, "response": "Alpha"}, "45": {"stimulus": 1280, "trial": 45, "rt": 872, "response": "Alpha"}, "28": {"stimulus": 1312, "trial": 28, "rt": 1232, "response": "Alpha"}, "29": {"stimulus": 499, "trial": 29, "rt": 1053, "response": "Beta"}, "40": {"stimulus": 780, "trial": 40, "rt": 2778, "response": "Alpha"}, "41": {"stimulus": 1905, "trial": 41, "rt": 1053, "response": "Beta"}, "1": {"stimulus": 218, "trial": 1, "rt": 2241, "response": "Alpha"}, "0": {"stimulus": 30, "trial": 0, "rt": 4952, "response": "Beta"}, "3": {"stimulus": 1374, "trial": 3, "rt": 1769, "response": "Alpha"}, "2": {"stimulus": 2499, "trial": 2, "rt": 2446, "response": "Alpha"}, "5": {"stimulus": 1218, "trial": 5, "rt": 1935, "response": "Beta"}, "4": {"stimulus": 2405, "trial": 4, "rt": 1605, "response": "Beta"}, "7": {"stimulus": 124, "trial": 7, "rt": 1715, "response": "Beta"}, "6": {"stimulus": 1780, "trial": 6, "rt": 4799, "response": "Alpha"}, "9": {"stimulus": 874, "trial": 9, "rt": 1973, "response": "Alpha"}, "8": {"stimulus": 2155, "trial": 8, "rt": 1332, "response": "Beta"}, "78": {"stimulus": 749, "trial": 78, "rt": 1015, "response": "Beta"}, "51": {"stimulus": 2030, "trial": 51, "rt": 1078, "response": "Beta"}, "39": {"stimulus": 2374, "trial": 39, "rt": 1270, "response": "Beta"}, "65": {"stimulus": 437, "trial": 65, "rt": 1218, "response": "Beta"}, "76": {"stimulus": 1405, "trial": 76, "rt": 1576, "response": "Beta"}, "75": {"stimulus": 374, "trial": 75, "rt": 3312, "response": "Beta"}, "38": {"stimulus": 905, "trial": 38, "rt": 837, "response": "Alpha"}, "73": {"stimulus": 999, "trial": 73, "rt": 1178, "response": "Beta"}, "72": {"stimulus": 2218, "trial": 72, "rt": 848, "response": "Beta"}, "71": {"stimulus": 1937, "trial": 71, "rt": 3871, "response": "Alpha"}, "70": {"stimulus": 2124, "trial": 70, "rt": 925, "response": "Beta"}, "59": {"stimulus": 1499, "trial": 59, "rt": 1157, "response": "Beta"}, "79": {"stimulus": 1093, "trial": 79, "rt": 1512, "response": "Beta"}, "58": {"stimulus": 93, "trial": 58, "rt": 1217, "response": "Beta"}, "11": {"stimulus": 1062, "trial": 11, "rt": 1652, "response": "Beta"}, "10": {"stimulus": 2437, "trial": 10, "rt": 1753, "response": "Beta"}, "13": {"stimulus": 1843, "trial": 13, "rt": 1629, "response": "Alpha"}, "12": {"stimulus": 1530, "trial": 12, "rt": 1739, "response": "Alpha"}, "15": {"stimulus": 655, "trial": 15, "rt": 1540, "response": "Alpha"}, "14": {"stimulus": 2343, "trial": 14, "rt": 2240, "response": "Alpha"}, "17": {"stimulus": 1468, "trial": 17, "rt": 1400, "response": "Alpha"}, "16": {"stimulus": 530, "trial": 16, "rt": 1487, "response": "Beta"}, "19": {"stimulus": 2280, "trial": 19, "rt": 1737, "response": "Beta"}, "18": {"stimulus": 2187, "trial": 18, "rt": 1553, "response": "Alpha"}, "31": {"stimulus": 1812, "trial": 31, "rt": 1217, "response": "Beta"}, "30": {"stimulus": 1655, "trial": 30, "rt": 1424, "response": "Beta"}, "37": {"stimulus": 1624, "trial": 37, "rt": 3146, "response": "Alpha"}, "36": {"stimulus": 1749, "trial": 36, "rt": 1155, "response": "Alpha"}, "35": {"stimulus": 1343, "trial": 35, "rt": 1462, "response": "Beta"}, "34": {"stimulus": 593, "trial": 34, "rt": 1043, "response": "Beta"}, "33": {"stimulus": 1999, "trial": 33, "rt": 1706, "response": "Alpha"}, "55": {"stimulus": 843, "trial": 55, "rt": 1069, "response": "Beta"}, "74": {"stimulus": 968, "trial": 74, "rt": 1077, "response": "Alpha"}, "32": {"stimulus": 2062, "trial": 32, "rt": 823, "response": "Beta"}, "57": {"stimulus": 62, "trial": 57, "rt": 1119, "response": "Alpha"}, "50": {"stimulus": 1874, "trial": 50, "rt": 1230, "response": "Alpha"}}, "experiment": {"Paradigm": "TACL", "Stimuli": "Size-Color Squares", "Experiment": "Generating-Multiple-Categories"}, "submit": {"timeTotal": 319905, "age": "27", "comments": "", "sex": "female"}}