{"info": {"finish": 1548134707864, "participant": 295, "exposed": true, "lab": false, "start": 1548134299083, "counterbalance": 4, "gentype": 0, "condition": "Row", "browser": {"platform": "Win32", "userAgent": "Mozilla/5.0 (Windows NT 6.1; Win64; x64) AppleWebKit/537.36 (KHTML, like Gecko) Chrome/71.0.3578.98 Safari/537.36"}}, "observation": {"11": {"stimulus": 582, "trial": 11, "rt": 1528}, "10": {"stimulus": 493, "trial": 10, "rt": 1599}, "1": {"stimulus": 493, "trial": 1, "rt": 2392}, "0": {"stimulus": 582, "trial": 0, "rt": 2397}, "3": {"stimulus": 612, "trial": 3, "rt": 1743}, "2": {"stimulus": 421, "trial": 2, "rt": 1936}, "5": {"stimulus": 612, "trial": 5, "rt": 1551}, "4": {"stimulus": 493, "trial": 4, "rt": 1919}, "7": {"stimulus": 582, "trial": 7, "rt": 1920}, "6": {"stimulus": 421, "trial": 6, "rt": 2040}, "9": {"stimulus": 421, "trial": 9, "rt": 1607}, "8": {"stimulus": 612, "trial": 8, "rt": 1599}}, "generation": {"1": {"category": "Not-Alpha", "trial": 1, "stimulus": 2353, "rt": 7382}, "0": {"category": "Not-Alpha", "trial": 0, "stimulus": 1750, "rt": 21191}, "3": {"category": "Not-Alpha", "trial": 3, "stimulus": 2455, "rt": 5486}, "2": {"category": "Not-Alpha", "trial": 2, "stimulus": 2352, "rt": 12439}, "5": {"category": "Not-Alpha", "trial": 5, "stimulus": 2355, "rt": 7896}, "4": {"category": "Not-Alpha", "trial": 4, "stimulus": 2401, "rt": 10407}, "7": {"category": "Not-Alpha", "trial": 7, "stimulus": 2405, "rt": 6127}, "6": {"category": "Not-Alpha", "trial": 6, "stimulus": 2356, "rt": 6518}}, "generalization": {"56": {"stimulus": 1312, "trial": 56, "rt": 647, "response": "Beta"}, "77": {"stimulus": 1030, "trial": 77, "rt": 975, "response": "Alpha"}, "54": {"stimulus": 2374, "trial": 54, "rt": 456, "response": "Beta"}, "42": {"stimulus": 1280, "trial": 42, "rt": 935, "response": "Alpha"}, "48": {"stimulus": 1374, "trial": 48, "rt": 599, "response": "Beta"}, "43": {"stimulus": 62, "trial": 43, "rt": 1473, "response": "Beta"}, "60": {"stimulus": 468, "trial": 60, "rt": 1103, "response": "Alpha"}, "61": {"stimulus": 2062, "trial": 61, "rt": 600, "response": "Beta"}, "62": {"stimulus": 1905, "trial": 62, "rt": 536, "response": "Beta"}, "63": {"stimulus": 1499, "trial": 63, "rt": 623, "response": "Beta"}, "64": {"stimulus": 124, "trial": 64, "rt": 753, "response": "Beta"}, "49": {"stimulus": 1124, "trial": 49, "rt": 703, "response": "Beta"}, "66": {"stimulus": 1624, "trial": 66, "rt": 505, "response": "Beta"}, "67": {"stimulus": 874, "trial": 67, "rt": 878, "response": "Alpha"}, "68": {"stimulus": 2030, "trial": 68, "rt": 496, "response": "Beta"}, "69": {"stimulus": 312, "trial": 69, "rt": 1366, "response": "Beta"}, "80": {"stimulus": 249, "trial": 80, "rt": 823, "response": "Beta"}, "52": {"stimulus": 2093, "trial": 52, "rt": 1016, "response": "Beta"}, "53": {"stimulus": 2249, "trial": 53, "rt": 584, "response": "Beta"}, "24": {"stimulus": 937, "trial": 24, "rt": 952, "response": "Alpha"}, "25": {"stimulus": 2312, "trial": 25, "rt": 641, "response": "Beta"}, "26": {"stimulus": 1655, "trial": 26, "rt": 608, "response": "Beta"}, "27": {"stimulus": 2124, "trial": 27, "rt": 487, "response": "Beta"}, "20": {"stimulus": 1062, "trial": 20, "rt": 600, "response": "Beta"}, "21": {"stimulus": 1780, "trial": 21, "rt": 722, "response": "Beta"}, "22": {"stimulus": 155, "trial": 22, "rt": 853, "response": "Alpha"}, "23": {"stimulus": 1218, "trial": 23, "rt": 704, "response": "Beta"}, "46": {"stimulus": 1593, "trial": 46, "rt": 672, "response": "Beta"}, "47": {"stimulus": 1530, "trial": 47, "rt": 558, "response": "Beta"}, "44": {"stimulus": 968, "trial": 44, "rt": 913, "response": "Alpha"}, "45": {"stimulus": 343, "trial": 45, "rt": 864, "response": "Beta"}, "28": {"stimulus": 655, "trial": 28, "rt": 895, "response": "Alpha"}, "29": {"stimulus": 30, "trial": 29, "rt": 560, "response": "Beta"}, "40": {"stimulus": 2499, "trial": 40, "rt": 576, "response": "Beta"}, "41": {"stimulus": 218, "trial": 41, "rt": 1247, "response": "Beta"}, "1": {"stimulus": 1187, "trial": 1, "rt": 928, "response": "Alpha"}, "0": {"stimulus": 2155, "trial": 0, "rt": 1558, "response": "Beta"}, "3": {"stimulus": 1468, "trial": 3, "rt": 976, "response": "Beta"}, "2": {"stimulus": 812, "trial": 2, "rt": 975, "response": "Alpha"}, "5": {"stimulus": 2218, "trial": 5, "rt": 719, "response": "Beta"}, "4": {"stimulus": 1437, "trial": 4, "rt": 969, "response": "Beta"}, "7": {"stimulus": 843, "trial": 7, "rt": 915, "response": "Beta"}, "6": {"stimulus": 280, "trial": 6, "rt": 832, "response": "Alpha"}, "9": {"stimulus": 2437, "trial": 9, "rt": 958, "response": "Beta"}, "8": {"stimulus": 905, "trial": 8, "rt": 1167, "response": "Alpha"}, "78": {"stimulus": 530, "trial": 78, "rt": 839, "response": "Beta"}, "51": {"stimulus": 2405, "trial": 51, "rt": 632, "response": "Beta"}, "39": {"stimulus": 187, "trial": 39, "rt": 2167, "response": "Beta"}, "65": {"stimulus": 1999, "trial": 65, "rt": 529, "response": "Beta"}, "76": {"stimulus": 1812, "trial": 76, "rt": 815, "response": "Beta"}, "75": {"stimulus": 624, "trial": 75, "rt": 936, "response": "Alpha"}, "38": {"stimulus": 1874, "trial": 38, "rt": 535, "response": "Beta"}, "73": {"stimulus": 1155, "trial": 73, "rt": 1075, "response": "Beta"}, "72": {"stimulus": 562, "trial": 72, "rt": 1060, "response": "Alpha"}, "71": {"stimulus": 1562, "trial": 71, "rt": 631, "response": "Beta"}, "70": {"stimulus": 437, "trial": 70, "rt": 1039, "response": "Beta"}, "59": {"stimulus": 2187, "trial": 59, "rt": 471, "response": "Beta"}, "79": {"stimulus": 1405, "trial": 79, "rt": 630, "response": "Beta"}, "58": {"stimulus": 593, "trial": 58, "rt": 807, "response": "Alpha"}, "11": {"stimulus": 1718, "trial": 11, "rt": 727, "response": "Beta"}, "10": {"stimulus": 1343, "trial": 10, "rt": 559, "response": "Beta"}, "13": {"stimulus": 1937, "trial": 13, "rt": 616, "response": "Beta"}, "12": {"stimulus": 1093, "trial": 12, "rt": 839, "response": "Alpha"}, "15": {"stimulus": 749, "trial": 15, "rt": 905, "response": "Alpha"}, "14": {"stimulus": 1749, "trial": 14, "rt": 983, "response": "Beta"}, "17": {"stimulus": 374, "trial": 17, "rt": 927, "response": "Alpha"}, "16": {"stimulus": 2343, "trial": 16, "rt": 584, "response": "Beta"}, "19": {"stimulus": 2468, "trial": 19, "rt": 607, "response": "Beta"}, "18": {"stimulus": 93, "trial": 18, "rt": 782, "response": "Alpha"}, "31": {"stimulus": 718, "trial": 31, "rt": 752, "response": "Alpha"}, "30": {"stimulus": 687, "trial": 30, "rt": 839, "response": "Alpha"}, "37": {"stimulus": 1687, "trial": 37, "rt": 712, "response": "Beta"}, "36": {"stimulus": 2280, "trial": 36, "rt": 796, "response": "Beta"}, "35": {"stimulus": 499, "trial": 35, "rt": 888, "response": "Alpha"}, "34": {"stimulus": 999, "trial": 34, "rt": 1288, "response": "Alpha"}, "33": {"stimulus": 1249, "trial": 33, "rt": 662, "response": "Beta"}, "55": {"stimulus": 780, "trial": 55, "rt": 1184, "response": "Alpha"}, "74": {"stimulus": 405, "trial": 74, "rt": 1553, "response": "Alpha"}, "32": {"stimulus": 1843, "trial": 32, "rt": 769, "response": "Beta"}, "57": {"stimulus": 1968, "trial": 57, "rt": 856, "response": "Beta"}, "50": {"stimulus": 0, "trial": 50, "rt": 750, "response": "Beta"}}, "experiment": {"Paradigm": "TACL", "Stimuli": "Size-Color Squares", "Experiment": "Generating-Multiple-Categories"}, "submit": {"timeTotal": 409200, "age": "50", "comments": "", "sex": "male"}}