{"info": {"finish": 1548135251313, "participant": 296, "exposed": true, "lab": false, "start": 1548134913049, "counterbalance": 7, "gentype": 2, "condition": "Row", "browser": {"platform": "Win32", "userAgent": "Mozilla/5.0 (Windows NT 10.0; Win64; x64) AppleWebKit/537.36 (KHTML, like Gecko) Chrome/71.0.3578.98 Safari/537.36"}}, "observation": {"11": {"stimulus": 582, "trial": 11, "rt": 1407}, "10": {"stimulus": 493, "trial": 10, "rt": 1391}, "1": {"stimulus": 493, "trial": 1, "rt": 2230}, "0": {"stimulus": 421, "trial": 0, "rt": 3621}, "3": {"stimulus": 612, "trial": 3, "rt": 3559}, "2": {"stimulus": 582, "trial": 2, "rt": 45624}, "5": {"stimulus": 421, "trial": 5, "rt": 2209}, "4": {"stimulus": 493, "trial": 4, "rt": 1924}, "7": {"stimulus": 582, "trial": 7, "rt": 1691}, "6": {"stimulus": 612, "trial": 6, "rt": 1517}, "9": {"stimulus": 612, "trial": 9, "rt": 1391}, "8": {"stimulus": 421, "trial": 8, "rt": 1353}}, "generation": {"1": {"category": "Beta", "trial": 1, "stimulus": 1970, "rt": 4753}, "0": {"category": "Beta", "trial": 0, "stimulus": 1944, "rt": 10402}, "3": {"category": "Beta", "trial": 3, "stimulus": 2049, "rt": 4014}, "2": {"category": "Beta", "trial": 2, "stimulus": 1906, "rt": 4965}, "5": {"category": "Gamma", "trial": 5, "stimulus": 49, "rt": 4301}, "4": {"category": "Gamma", "trial": 4, "stimulus": 0, "rt": 7054}, "7": {"category": "Gamma", "trial": 7, "stimulus": 29, "rt": 7298}, "6": {"category": "Gamma", "trial": 6, "stimulus": 12, "rt": 4688}}, "generalization": {"56": {"stimulus": 937, "trial": 56, "rt": 477, "response": "Alpha"}, "77": {"stimulus": 2124, "trial": 77, "rt": 1181, "response": "Beta"}, "54": {"stimulus": 499, "trial": 54, "rt": 470, "response": "Alpha"}, "42": {"stimulus": 780, "trial": 42, "rt": 559, "response": "Gamma"}, "48": {"stimulus": 655, "trial": 48, "rt": 501, "response": "Gamma"}, "43": {"stimulus": 1312, "trial": 43, "rt": 971, "response": "Alpha"}, "60": {"stimulus": 1530, "trial": 60, "rt": 1164, "response": "Alpha"}, "61": {"stimulus": 1562, "trial": 61, "rt": 737, "response": "Alpha"}, "62": {"stimulus": 687, "trial": 62, "rt": 911, "response": "Gamma"}, "63": {"stimulus": 2343, "trial": 63, "rt": 1071, "response": "Beta"}, "64": {"stimulus": 1968, "trial": 64, "rt": 455, "response": "Beta"}, "49": {"stimulus": 1624, "trial": 49, "rt": 2382, "response": "Alpha"}, "66": {"stimulus": 2499, "trial": 66, "rt": 770, "response": "Beta"}, "67": {"stimulus": 2280, "trial": 67, "rt": 468, "response": "Beta"}, "68": {"stimulus": 1937, "trial": 68, "rt": 845, "response": "Beta"}, "69": {"stimulus": 1843, "trial": 69, "rt": 492, "response": "Beta"}, "80": {"stimulus": 0, "trial": 80, "rt": 484, "response": "Gamma"}, "52": {"stimulus": 1374, "trial": 52, "rt": 980, "response": "Alpha"}, "53": {"stimulus": 905, "trial": 53, "rt": 536, "response": "Alpha"}, "24": {"stimulus": 2437, "trial": 24, "rt": 678, "response": "Beta"}, "25": {"stimulus": 968, "trial": 25, "rt": 779, "response": "Alpha"}, "26": {"stimulus": 1812, "trial": 26, "rt": 1063, "response": "Beta"}, "27": {"stimulus": 2218, "trial": 27, "rt": 773, "response": "Beta"}, "20": {"stimulus": 1093, "trial": 20, "rt": 638, "response": "Alpha"}, "21": {"stimulus": 155, "trial": 21, "rt": 777, "response": "Gamma"}, "22": {"stimulus": 2187, "trial": 22, "rt": 677, "response": "Beta"}, "23": {"stimulus": 1218, "trial": 23, "rt": 872, "response": "Alpha"}, "46": {"stimulus": 1749, "trial": 46, "rt": 831, "response": "Alpha"}, "47": {"stimulus": 593, "trial": 47, "rt": 712, "response": "Gamma"}, "44": {"stimulus": 468, "trial": 44, "rt": 492, "response": "Alpha"}, "45": {"stimulus": 1780, "trial": 45, "rt": 1685, "response": "Alpha"}, "28": {"stimulus": 1437, "trial": 28, "rt": 807, "response": "Alpha"}, "29": {"stimulus": 437, "trial": 29, "rt": 1274, "response": "Gamma"}, "40": {"stimulus": 718, "trial": 40, "rt": 2234, "response": "Gamma"}, "41": {"stimulus": 343, "trial": 41, "rt": 536, "response": "Gamma"}, "1": {"stimulus": 2468, "trial": 1, "rt": 1685, "response": "Beta"}, "0": {"stimulus": 874, "trial": 0, "rt": 1714, "response": "Alpha"}, "3": {"stimulus": 624, "trial": 3, "rt": 1694, "response": "Gamma"}, "2": {"stimulus": 1593, "trial": 2, "rt": 2288, "response": "Alpha"}, "5": {"stimulus": 562, "trial": 5, "rt": 1242, "response": "Gamma"}, "4": {"stimulus": 30, "trial": 4, "rt": 1081, "response": "Gamma"}, "7": {"stimulus": 187, "trial": 7, "rt": 954, "response": "Gamma"}, "6": {"stimulus": 1062, "trial": 6, "rt": 1096, "response": "Alpha"}, "9": {"stimulus": 2155, "trial": 9, "rt": 503, "response": "Beta"}, "8": {"stimulus": 2249, "trial": 8, "rt": 804, "response": "Beta"}, "78": {"stimulus": 312, "trial": 78, "rt": 625, "response": "Gamma"}, "51": {"stimulus": 124, "trial": 51, "rt": 927, "response": "Gamma"}, "39": {"stimulus": 1280, "trial": 39, "rt": 680, "response": "Alpha"}, "65": {"stimulus": 999, "trial": 65, "rt": 1280, "response": "Alpha"}, "76": {"stimulus": 1687, "trial": 76, "rt": 455, "response": "Alpha"}, "75": {"stimulus": 1468, "trial": 75, "rt": 491, "response": "Alpha"}, "38": {"stimulus": 1124, "trial": 38, "rt": 468, "response": "Alpha"}, "73": {"stimulus": 1655, "trial": 73, "rt": 1080, "response": "Alpha"}, "72": {"stimulus": 749, "trial": 72, "rt": 425, "response": "Gamma"}, "71": {"stimulus": 93, "trial": 71, "rt": 748, "response": "Gamma"}, "70": {"stimulus": 1905, "trial": 70, "rt": 481, "response": "Beta"}, "59": {"stimulus": 2093, "trial": 59, "rt": 681, "response": "Beta"}, "79": {"stimulus": 218, "trial": 79, "rt": 430, "response": "Gamma"}, "58": {"stimulus": 1187, "trial": 58, "rt": 886, "response": "Alpha"}, "11": {"stimulus": 62, "trial": 11, "rt": 855, "response": "Gamma"}, "10": {"stimulus": 1155, "trial": 10, "rt": 1601, "response": "Alpha"}, "13": {"stimulus": 1999, "trial": 13, "rt": 941, "response": "Beta"}, "12": {"stimulus": 1499, "trial": 12, "rt": 1933, "response": "Alpha"}, "15": {"stimulus": 530, "trial": 15, "rt": 1450, "response": "Gamma"}, "14": {"stimulus": 249, "trial": 14, "rt": 818, "response": "Gamma"}, "17": {"stimulus": 280, "trial": 17, "rt": 882, "response": "Gamma"}, "16": {"stimulus": 1718, "trial": 16, "rt": 1256, "response": "Alpha"}, "19": {"stimulus": 1343, "trial": 19, "rt": 849, "response": "Alpha"}, "18": {"stimulus": 2062, "trial": 18, "rt": 1250, "response": "Beta"}, "31": {"stimulus": 843, "trial": 31, "rt": 1358, "response": "Alpha"}, "30": {"stimulus": 2374, "trial": 30, "rt": 828, "response": "Beta"}, "37": {"stimulus": 812, "trial": 37, "rt": 1126, "response": "Alpha"}, "36": {"stimulus": 2030, "trial": 36, "rt": 755, "response": "Beta"}, "35": {"stimulus": 2405, "trial": 35, "rt": 506, "response": "Beta"}, "34": {"stimulus": 1874, "trial": 34, "rt": 1081, "response": "Alpha"}, "33": {"stimulus": 374, "trial": 33, "rt": 673, "response": "Gamma"}, "55": {"stimulus": 1405, "trial": 55, "rt": 559, "response": "Alpha"}, "74": {"stimulus": 1030, "trial": 74, "rt": 432, "response": "Alpha"}, "32": {"stimulus": 2312, "trial": 32, "rt": 1195, "response": "Beta"}, "57": {"stimulus": 405, "trial": 57, "rt": 818, "response": "Gamma"}, "50": {"stimulus": 1249, "trial": 50, "rt": 670, "response": "Alpha"}}, "experiment": {"Paradigm": "TACL", "Stimuli": "Size-Color Squares", "Experiment": "Generating-Multiple-Categories"}, "submit": {"timeTotal": 338867, "age": "32", "comments": "I thought it was unique and fun.", "sex": "female"}}