{"info": {"finish": 1548139194768, "participant": 300, "exposed": true, "lab": false, "start": 1548138858826, "counterbalance": 0, "gentype": 0, "condition": "Row", "browser": {"platform": "Win32", "userAgent": "Mozilla/5.0 (Windows NT 10.0; Win64; x64) AppleWebKit/537.36 (KHTML, like Gecko) Chrome/71.0.3578.98 Safari/537.36"}}, "observation": {"11": {"stimulus": 421, "trial": 11, "rt": 2605}, "10": {"stimulus": 493, "trial": 10, "rt": 2475}, "1": {"stimulus": 612, "trial": 1, "rt": 3557}, "0": {"stimulus": 582, "trial": 0, "rt": 10083}, "3": {"stimulus": 421, "trial": 3, "rt": 4580}, "2": {"stimulus": 493, "trial": 2, "rt": 3376}, "5": {"stimulus": 421, "trial": 5, "rt": 17791}, "4": {"stimulus": 493, "trial": 4, "rt": 3109}, "7": {"stimulus": 612, "trial": 7, "rt": 2564}, "6": {"stimulus": 582, "trial": 6, "rt": 2770}, "9": {"stimulus": 582, "trial": 9, "rt": 2263}, "8": {"stimulus": 612, "trial": 8, "rt": 2881}}, "generation": {"1": {"category": "Not-Alpha", "trial": 1, "stimulus": 2199, "rt": 9466}, "0": {"category": "Not-Alpha", "trial": 0, "stimulus": 2250, "rt": 15910}, "3": {"category": "Not-Alpha", "trial": 3, "stimulus": 1250, "rt": 6079}, "2": {"category": "Not-Alpha", "trial": 2, "stimulus": 2125, "rt": 5154}, "5": {"category": "Not-Alpha", "trial": 5, "stimulus": 1326, "rt": 5339}, "4": {"category": "Not-Alpha", "trial": 4, "stimulus": 1299, "rt": 4575}, "7": {"category": "Not-Alpha", "trial": 7, "stimulus": 2488, "rt": 4757}, "6": {"category": "Not-Alpha", "trial": 6, "stimulus": 2463, "rt": 14327}}, "generalization": {"56": {"stimulus": 1937, "trial": 56, "rt": 732, "response": "Beta"}, "77": {"stimulus": 562, "trial": 77, "rt": 853, "response": "Alpha"}, "54": {"stimulus": 1062, "trial": 54, "rt": 790, "response": "Beta"}, "42": {"stimulus": 468, "trial": 42, "rt": 887, "response": "Alpha"}, "48": {"stimulus": 1437, "trial": 48, "rt": 516, "response": "Beta"}, "43": {"stimulus": 2437, "trial": 43, "rt": 428, "response": "Beta"}, "60": {"stimulus": 30, "trial": 60, "rt": 1415, "response": "Beta"}, "61": {"stimulus": 343, "trial": 61, "rt": 758, "response": "Alpha"}, "62": {"stimulus": 874, "trial": 62, "rt": 918, "response": "Beta"}, "63": {"stimulus": 437, "trial": 63, "rt": 669, "response": "Alpha"}, "64": {"stimulus": 1124, "trial": 64, "rt": 693, "response": "Beta"}, "49": {"stimulus": 1374, "trial": 49, "rt": 485, "response": "Beta"}, "66": {"stimulus": 2343, "trial": 66, "rt": 487, "response": "Beta"}, "67": {"stimulus": 1780, "trial": 67, "rt": 471, "response": "Beta"}, "68": {"stimulus": 1405, "trial": 68, "rt": 500, "response": "Beta"}, "69": {"stimulus": 1749, "trial": 69, "rt": 509, "response": "Beta"}, "80": {"stimulus": 124, "trial": 80, "rt": 742, "response": "Alpha"}, "52": {"stimulus": 218, "trial": 52, "rt": 846, "response": "Beta"}, "53": {"stimulus": 2280, "trial": 53, "rt": 510, "response": "Beta"}, "24": {"stimulus": 1593, "trial": 24, "rt": 898, "response": "Beta"}, "25": {"stimulus": 374, "trial": 25, "rt": 945, "response": "Alpha"}, "26": {"stimulus": 1624, "trial": 26, "rt": 662, "response": "Beta"}, "27": {"stimulus": 1187, "trial": 27, "rt": 592, "response": "Beta"}, "20": {"stimulus": 62, "trial": 20, "rt": 1031, "response": "Beta"}, "21": {"stimulus": 2155, "trial": 21, "rt": 597, "response": "Beta"}, "22": {"stimulus": 1468, "trial": 22, "rt": 936, "response": "Beta"}, "23": {"stimulus": 2218, "trial": 23, "rt": 504, "response": "Beta"}, "46": {"stimulus": 2499, "trial": 46, "rt": 500, "response": "Beta"}, "47": {"stimulus": 1968, "trial": 47, "rt": 638, "response": "Beta"}, "44": {"stimulus": 1312, "trial": 44, "rt": 453, "response": "Beta"}, "45": {"stimulus": 1155, "trial": 45, "rt": 655, "response": "Beta"}, "28": {"stimulus": 187, "trial": 28, "rt": 2509, "response": "Beta"}, "29": {"stimulus": 1562, "trial": 29, "rt": 527, "response": "Beta"}, "40": {"stimulus": 2312, "trial": 40, "rt": 424, "response": "Beta"}, "41": {"stimulus": 1687, "trial": 41, "rt": 486, "response": "Beta"}, "1": {"stimulus": 1218, "trial": 1, "rt": 659, "response": "Beta"}, "0": {"stimulus": 2249, "trial": 0, "rt": 1221, "response": "Beta"}, "3": {"stimulus": 2124, "trial": 3, "rt": 798, "response": "Beta"}, "2": {"stimulus": 593, "trial": 2, "rt": 875, "response": "Alpha"}, "5": {"stimulus": 999, "trial": 5, "rt": 1032, "response": "Beta"}, "4": {"stimulus": 624, "trial": 4, "rt": 902, "response": "Alpha"}, "7": {"stimulus": 1874, "trial": 7, "rt": 511, "response": "Beta"}, "6": {"stimulus": 1905, "trial": 6, "rt": 830, "response": "Beta"}, "9": {"stimulus": 1718, "trial": 9, "rt": 515, "response": "Beta"}, "8": {"stimulus": 2062, "trial": 8, "rt": 517, "response": "Beta"}, "78": {"stimulus": 249, "trial": 78, "rt": 1158, "response": "Beta"}, "51": {"stimulus": 718, "trial": 51, "rt": 1718, "response": "Alpha"}, "39": {"stimulus": 2187, "trial": 39, "rt": 422, "response": "Beta"}, "65": {"stimulus": 2468, "trial": 65, "rt": 478, "response": "Beta"}, "76": {"stimulus": 780, "trial": 76, "rt": 757, "response": "Beta"}, "75": {"stimulus": 1530, "trial": 75, "rt": 409, "response": "Beta"}, "38": {"stimulus": 655, "trial": 38, "rt": 1070, "response": "Alpha"}, "73": {"stimulus": 1343, "trial": 73, "rt": 509, "response": "Beta"}, "72": {"stimulus": 749, "trial": 72, "rt": 3361, "response": "Alpha"}, "71": {"stimulus": 1093, "trial": 71, "rt": 568, "response": "Beta"}, "70": {"stimulus": 937, "trial": 70, "rt": 1024, "response": "Beta"}, "59": {"stimulus": 2030, "trial": 59, "rt": 727, "response": "Beta"}, "79": {"stimulus": 905, "trial": 79, "rt": 612, "response": "Beta"}, "58": {"stimulus": 155, "trial": 58, "rt": 1270, "response": "Alpha"}, "11": {"stimulus": 405, "trial": 11, "rt": 863, "response": "Alpha"}, "10": {"stimulus": 1812, "trial": 10, "rt": 424, "response": "Beta"}, "13": {"stimulus": 1249, "trial": 13, "rt": 983, "response": "Beta"}, "12": {"stimulus": 93, "trial": 12, "rt": 933, "response": "Beta"}, "15": {"stimulus": 530, "trial": 15, "rt": 875, "response": "Alpha"}, "14": {"stimulus": 280, "trial": 14, "rt": 3022, "response": "Beta"}, "17": {"stimulus": 2405, "trial": 17, "rt": 926, "response": "Beta"}, "16": {"stimulus": 2374, "trial": 16, "rt": 558, "response": "Beta"}, "19": {"stimulus": 968, "trial": 19, "rt": 1398, "response": "Beta"}, "18": {"stimulus": 1843, "trial": 18, "rt": 527, "response": "Beta"}, "31": {"stimulus": 1655, "trial": 31, "rt": 487, "response": "Beta"}, "30": {"stimulus": 687, "trial": 30, "rt": 1223, "response": "Alpha"}, "37": {"stimulus": 1280, "trial": 37, "rt": 532, "response": "Beta"}, "36": {"stimulus": 1499, "trial": 36, "rt": 497, "response": "Beta"}, "35": {"stimulus": 2093, "trial": 35, "rt": 711, "response": "Beta"}, "34": {"stimulus": 0, "trial": 34, "rt": 886, "response": "Beta"}, "33": {"stimulus": 499, "trial": 33, "rt": 936, "response": "Alpha"}, "55": {"stimulus": 312, "trial": 55, "rt": 1151, "response": "Alpha"}, "74": {"stimulus": 1030, "trial": 74, "rt": 407, "response": "Beta"}, "32": {"stimulus": 1999, "trial": 32, "rt": 430, "response": "Beta"}, "57": {"stimulus": 812, "trial": 57, "rt": 2880, "response": "Beta"}, "50": {"stimulus": 843, "trial": 50, "rt": 1253, "response": "Beta"}}, "experiment": {"Paradigm": "TACL", "Stimuli": "Size-Color Squares", "Experiment": "Generating-Multiple-Categories"}, "submit": {"timeTotal": 336255, "age": "49", "comments": "", "sex": "Female"}}