{"info": {"finish": 1548139827773, "participant": 305, "exposed": true, "lab": false, "start": 1548139464196, "counterbalance": 0, "gentype": 1, "condition": "Cluster", "browser": {"platform": "Win32", "userAgent": "Mozilla/5.0 (Windows NT 10.0; WOW64) AppleWebKit/537.36 (KHTML, like Gecko) Chrome/67.0.3396.99 Safari/537.36"}}, "observation": {"11": {"stimulus": 1083, "trial": 11, "rt": 1559}, "10": {"stimulus": 583, "trial": 10, "rt": 2271}, "1": {"stimulus": 1093, "trial": 1, "rt": 3580}, "0": {"stimulus": 583, "trial": 0, "rt": 9186}, "3": {"stimulus": 1083, "trial": 3, "rt": 2791}, "2": {"stimulus": 392, "trial": 2, "rt": 3526}, "5": {"stimulus": 392, "trial": 5, "rt": 1670}, "4": {"stimulus": 583, "trial": 4, "rt": 1831}, "7": {"stimulus": 1083, "trial": 7, "rt": 4848}, "6": {"stimulus": 1093, "trial": 6, "rt": 1832}, "9": {"stimulus": 392, "trial": 9, "rt": 1583}, "8": {"stimulus": 1093, "trial": 8, "rt": 1525}}, "generation": {"1": {"category": "Beta", "trial": 1, "stimulus": 1580, "rt": 8557}, "0": {"category": "Beta", "trial": 0, "stimulus": 1578, "rt": 8363}, "3": {"category": "Beta", "trial": 3, "stimulus": 1938, "rt": 17084}, "2": {"category": "Beta", "trial": 2, "stimulus": 1326, "rt": 4813}, "5": {"category": "Beta", "trial": 5, "stimulus": 1122, "rt": 4013}, "4": {"category": "Beta", "trial": 4, "stimulus": 1019, "rt": 6936}, "7": {"category": "Beta", "trial": 7, "stimulus": 1886, "rt": 15758}, "6": {"category": "Beta", "trial": 6, "stimulus": 917, "rt": 7750}}, "generalization": {"56": {"stimulus": 1874, "trial": 56, "rt": 1143, "response": "Alpha"}, "77": {"stimulus": 374, "trial": 77, "rt": 615, "response": "Alpha"}, "54": {"stimulus": 0, "trial": 54, "rt": 598, "response": "Beta"}, "42": {"stimulus": 30, "trial": 42, "rt": 1014, "response": "Alpha"}, "48": {"stimulus": 1124, "trial": 48, "rt": 501, "response": "Alpha"}, "43": {"stimulus": 1843, "trial": 43, "rt": 676, "response": "Beta"}, "60": {"stimulus": 530, "trial": 60, "rt": 829, "response": "Alpha"}, "61": {"stimulus": 62, "trial": 61, "rt": 893, "response": "Alpha"}, "62": {"stimulus": 843, "trial": 62, "rt": 734, "response": "Alpha"}, "63": {"stimulus": 124, "trial": 63, "rt": 599, "response": "Alpha"}, "64": {"stimulus": 1280, "trial": 64, "rt": 566, "response": "Alpha"}, "49": {"stimulus": 1780, "trial": 49, "rt": 998, "response": "Beta"}, "66": {"stimulus": 2124, "trial": 66, "rt": 1118, "response": "Beta"}, "67": {"stimulus": 2499, "trial": 67, "rt": 1566, "response": "Beta"}, "68": {"stimulus": 1562, "trial": 68, "rt": 1020, "response": "Beta"}, "69": {"stimulus": 405, "trial": 69, "rt": 767, "response": "Alpha"}, "80": {"stimulus": 312, "trial": 80, "rt": 669, "response": "Alpha"}, "52": {"stimulus": 749, "trial": 52, "rt": 873, "response": "Alpha"}, "53": {"stimulus": 999, "trial": 53, "rt": 1030, "response": "Beta"}, "24": {"stimulus": 687, "trial": 24, "rt": 1160, "response": "Alpha"}, "25": {"stimulus": 1624, "trial": 25, "rt": 1588, "response": "Beta"}, "26": {"stimulus": 2343, "trial": 26, "rt": 1293, "response": "Beta"}, "27": {"stimulus": 1062, "trial": 27, "rt": 1293, "response": "Beta"}, "20": {"stimulus": 218, "trial": 20, "rt": 886, "response": "Alpha"}, "21": {"stimulus": 155, "trial": 21, "rt": 1027, "response": "Alpha"}, "22": {"stimulus": 1749, "trial": 22, "rt": 455, "response": "Alpha"}, "23": {"stimulus": 1687, "trial": 23, "rt": 1189, "response": "Beta"}, "46": {"stimulus": 812, "trial": 46, "rt": 1093, "response": "Alpha"}, "47": {"stimulus": 624, "trial": 47, "rt": 535, "response": "Alpha"}, "44": {"stimulus": 1187, "trial": 44, "rt": 909, "response": "Beta"}, "45": {"stimulus": 1437, "trial": 45, "rt": 678, "response": "Beta"}, "28": {"stimulus": 937, "trial": 28, "rt": 1228, "response": "Beta"}, "29": {"stimulus": 2312, "trial": 29, "rt": 829, "response": "Beta"}, "40": {"stimulus": 1968, "trial": 40, "rt": 1071, "response": "Beta"}, "41": {"stimulus": 1312, "trial": 41, "rt": 1068, "response": "Alpha"}, "1": {"stimulus": 1374, "trial": 1, "rt": 1574, "response": "Beta"}, "0": {"stimulus": 437, "trial": 0, "rt": 3251, "response": "Alpha"}, "3": {"stimulus": 1812, "trial": 3, "rt": 1087, "response": "Beta"}, "2": {"stimulus": 562, "trial": 2, "rt": 2223, "response": "Alpha"}, "5": {"stimulus": 593, "trial": 5, "rt": 1151, "response": "Alpha"}, "4": {"stimulus": 1468, "trial": 4, "rt": 1911, "response": "Beta"}, "7": {"stimulus": 468, "trial": 7, "rt": 1405, "response": "Alpha"}, "6": {"stimulus": 2093, "trial": 6, "rt": 1326, "response": "Beta"}, "9": {"stimulus": 2405, "trial": 9, "rt": 2071, "response": "Beta"}, "8": {"stimulus": 1343, "trial": 8, "rt": 2293, "response": "Beta"}, "78": {"stimulus": 905, "trial": 78, "rt": 604, "response": "Alpha"}, "51": {"stimulus": 874, "trial": 51, "rt": 922, "response": "Beta"}, "39": {"stimulus": 1249, "trial": 39, "rt": 827, "response": "Alpha"}, "65": {"stimulus": 1155, "trial": 65, "rt": 567, "response": "Alpha"}, "76": {"stimulus": 187, "trial": 76, "rt": 844, "response": "Alpha"}, "75": {"stimulus": 2030, "trial": 75, "rt": 994, "response": "Beta"}, "38": {"stimulus": 1405, "trial": 38, "rt": 1084, "response": "Alpha"}, "73": {"stimulus": 780, "trial": 73, "rt": 982, "response": "Alpha"}, "72": {"stimulus": 1093, "trial": 72, "rt": 1423, "response": "Beta"}, "71": {"stimulus": 2249, "trial": 71, "rt": 1067, "response": "Beta"}, "70": {"stimulus": 249, "trial": 70, "rt": 695, "response": "Alpha"}, "59": {"stimulus": 2437, "trial": 59, "rt": 995, "response": "Beta"}, "79": {"stimulus": 93, "trial": 79, "rt": 701, "response": "Alpha"}, "58": {"stimulus": 343, "trial": 58, "rt": 809, "response": "Alpha"}, "11": {"stimulus": 2280, "trial": 11, "rt": 660, "response": "Beta"}, "10": {"stimulus": 1593, "trial": 10, "rt": 1367, "response": "Beta"}, "13": {"stimulus": 1999, "trial": 13, "rt": 1388, "response": "Beta"}, "12": {"stimulus": 2374, "trial": 12, "rt": 2129, "response": "Beta"}, "15": {"stimulus": 2187, "trial": 15, "rt": 1397, "response": "Beta"}, "14": {"stimulus": 280, "trial": 14, "rt": 1132, "response": "Alpha"}, "17": {"stimulus": 1030, "trial": 17, "rt": 797, "response": "Beta"}, "16": {"stimulus": 1218, "trial": 16, "rt": 1102, "response": "Beta"}, "19": {"stimulus": 2062, "trial": 19, "rt": 1094, "response": "Beta"}, "18": {"stimulus": 655, "trial": 18, "rt": 951, "response": "Alpha"}, "31": {"stimulus": 1499, "trial": 31, "rt": 606, "response": "Beta"}, "30": {"stimulus": 1905, "trial": 30, "rt": 651, "response": "Beta"}, "37": {"stimulus": 499, "trial": 37, "rt": 1375, "response": "Alpha"}, "36": {"stimulus": 2155, "trial": 36, "rt": 531, "response": "Beta"}, "35": {"stimulus": 1655, "trial": 35, "rt": 969, "response": "Alpha"}, "34": {"stimulus": 2468, "trial": 34, "rt": 520, "response": "Beta"}, "33": {"stimulus": 1530, "trial": 33, "rt": 711, "response": "Alpha"}, "55": {"stimulus": 1937, "trial": 55, "rt": 780, "response": "Beta"}, "74": {"stimulus": 2218, "trial": 74, "rt": 1078, "response": "Beta"}, "32": {"stimulus": 1718, "trial": 32, "rt": 727, "response": "Beta"}, "57": {"stimulus": 718, "trial": 57, "rt": 906, "response": "Alpha"}, "50": {"stimulus": 968, "trial": 50, "rt": 2286, "response": "Alpha"}}, "experiment": {"Paradigm": "TACL", "Stimuli": "Size-Color Squares", "Experiment": "Generating-Multiple-Categories"}, "submit": {"timeTotal": 364737, "age": "40", "comments": "VERY NICE SURVEY", "sex": "female"}}