{"info": {"finish": 1548140749380, "participant": 306, "exposed": true, "lab": false, "start": 1548139730288, "counterbalance": 3, "gentype": 2, "condition": "Cluster", "browser": {"platform": "Win32", "userAgent": "Mozilla/5.0 (Windows NT 6.1; Win64; x64) AppleWebKit/537.36 (KHTML, like Gecko) Chrome/71.0.3578.98 Safari/537.36"}}, "observation": {"11": {"stimulus": 1083, "trial": 11, "rt": 7455}, "10": {"stimulus": 583, "trial": 10, "rt": 4779}, "1": {"stimulus": 583, "trial": 1, "rt": 15303}, "0": {"stimulus": 392, "trial": 0, "rt": 19137}, "3": {"stimulus": 1093, "trial": 3, "rt": 6647}, "2": {"stimulus": 1083, "trial": 2, "rt": 10374}, "5": {"stimulus": 1083, "trial": 5, "rt": 4661}, "4": {"stimulus": 583, "trial": 4, "rt": 35773}, "7": {"stimulus": 392, "trial": 7, "rt": 2429}, "6": {"stimulus": 1093, "trial": 6, "rt": 14224}, "9": {"stimulus": 392, "trial": 9, "rt": 1875}, "8": {"stimulus": 1093, "trial": 8, "rt": 1866}}, "generation": {"1": {"category": "Beta", "trial": 1, "stimulus": 2400, "rt": 9693}, "0": {"category": "Beta", "trial": 0, "stimulus": 2450, "rt": 31007}, "3": {"category": "Beta", "trial": 3, "stimulus": 2300, "rt": 16943}, "2": {"category": "Beta", "trial": 2, "stimulus": 2351, "rt": 28512}, "5": {"category": "Gamma", "trial": 5, "stimulus": 2498, "rt": 5827}, "4": {"category": "Gamma", "trial": 4, "stimulus": 2499, "rt": 8442}, "7": {"category": "Gamma", "trial": 7, "stimulus": 2449, "rt": 9045}, "6": {"category": "Gamma", "trial": 6, "stimulus": 2448, "rt": 5836}}, "generalization": {"56": {"stimulus": 30, "trial": 56, "rt": 804, "response": "Alpha"}, "77": {"stimulus": 1937, "trial": 77, "rt": 758, "response": "Beta"}, "54": {"stimulus": 1062, "trial": 54, "rt": 922, "response": "Alpha"}, "42": {"stimulus": 1812, "trial": 42, "rt": 1186, "response": "Beta"}, "48": {"stimulus": 1374, "trial": 48, "rt": 1037, "response": "Alpha"}, "43": {"stimulus": 1874, "trial": 43, "rt": 905, "response": "Gamma"}, "60": {"stimulus": 1155, "trial": 60, "rt": 1094, "response": "Alpha"}, "61": {"stimulus": 62, "trial": 61, "rt": 832, "response": "Alpha"}, "62": {"stimulus": 2030, "trial": 62, "rt": 1084, "response": "Gamma"}, "63": {"stimulus": 2249, "trial": 63, "rt": 883, "response": "Gamma"}, "64": {"stimulus": 2187, "trial": 64, "rt": 975, "response": "Gamma"}, "49": {"stimulus": 499, "trial": 49, "rt": 631, "response": "Alpha"}, "66": {"stimulus": 1843, "trial": 66, "rt": 958, "response": "Gamma"}, "67": {"stimulus": 2468, "trial": 67, "rt": 858, "response": "Beta"}, "68": {"stimulus": 1468, "trial": 68, "rt": 958, "response": "Beta"}, "69": {"stimulus": 0, "trial": 69, "rt": 835, "response": "Alpha"}, "80": {"stimulus": 1437, "trial": 80, "rt": 2553, "response": "Alpha"}, "52": {"stimulus": 1249, "trial": 52, "rt": 1004, "response": "Alpha"}, "53": {"stimulus": 718, "trial": 53, "rt": 1140, "response": "Alpha"}, "24": {"stimulus": 1562, "trial": 24, "rt": 2304, "response": "Beta"}, "25": {"stimulus": 1718, "trial": 25, "rt": 874, "response": "Beta"}, "26": {"stimulus": 1280, "trial": 26, "rt": 1055, "response": "Alpha"}, "27": {"stimulus": 405, "trial": 27, "rt": 1327, "response": "Alpha"}, "20": {"stimulus": 343, "trial": 20, "rt": 709, "response": "Alpha"}, "21": {"stimulus": 593, "trial": 21, "rt": 1249, "response": "Alpha"}, "22": {"stimulus": 999, "trial": 22, "rt": 836, "response": "Alpha"}, "23": {"stimulus": 937, "trial": 23, "rt": 704, "response": "Alpha"}, "46": {"stimulus": 655, "trial": 46, "rt": 663, "response": "Alpha"}, "47": {"stimulus": 530, "trial": 47, "rt": 828, "response": "Alpha"}, "44": {"stimulus": 562, "trial": 44, "rt": 1445, "response": "Alpha"}, "45": {"stimulus": 249, "trial": 45, "rt": 1023, "response": "Alpha"}, "28": {"stimulus": 1905, "trial": 28, "rt": 2208, "response": "Beta"}, "29": {"stimulus": 1749, "trial": 29, "rt": 701, "response": "Beta"}, "40": {"stimulus": 155, "trial": 40, "rt": 961, "response": "Alpha"}, "41": {"stimulus": 1780, "trial": 41, "rt": 2413, "response": "Gamma"}, "1": {"stimulus": 280, "trial": 1, "rt": 5633, "response": "Alpha"}, "0": {"stimulus": 2280, "trial": 0, "rt": 4466, "response": "Gamma"}, "3": {"stimulus": 1530, "trial": 3, "rt": 2668, "response": "Alpha"}, "2": {"stimulus": 374, "trial": 2, "rt": 1648, "response": "Alpha"}, "5": {"stimulus": 2155, "trial": 5, "rt": 4875, "response": "Beta"}, "4": {"stimulus": 1093, "trial": 4, "rt": 1258, "response": "Alpha"}, "7": {"stimulus": 312, "trial": 7, "rt": 1304, "response": "Alpha"}, "6": {"stimulus": 1624, "trial": 6, "rt": 15037, "response": "Gamma"}, "9": {"stimulus": 687, "trial": 9, "rt": 1061, "response": "Alpha"}, "8": {"stimulus": 468, "trial": 8, "rt": 1326, "response": "Alpha"}, "78": {"stimulus": 812, "trial": 78, "rt": 1662, "response": "Alpha"}, "51": {"stimulus": 1343, "trial": 51, "rt": 1118, "response": "Alpha"}, "39": {"stimulus": 1499, "trial": 39, "rt": 2562, "response": "Alpha"}, "65": {"stimulus": 843, "trial": 65, "rt": 1101, "response": "Alpha"}, "76": {"stimulus": 218, "trial": 76, "rt": 859, "response": "Alpha"}, "75": {"stimulus": 2405, "trial": 75, "rt": 937, "response": "Beta"}, "38": {"stimulus": 1999, "trial": 38, "rt": 1030, "response": "Gamma"}, "73": {"stimulus": 1187, "trial": 73, "rt": 1101, "response": "Beta"}, "72": {"stimulus": 1312, "trial": 72, "rt": 1176, "response": "Beta"}, "71": {"stimulus": 2437, "trial": 71, "rt": 1093, "response": "Gamma"}, "70": {"stimulus": 2093, "trial": 70, "rt": 1422, "response": "Gamma"}, "59": {"stimulus": 437, "trial": 59, "rt": 867, "response": "Alpha"}, "79": {"stimulus": 1124, "trial": 79, "rt": 797, "response": "Alpha"}, "58": {"stimulus": 2062, "trial": 58, "rt": 1701, "response": "Beta"}, "11": {"stimulus": 187, "trial": 11, "rt": 2103, "response": "Alpha"}, "10": {"stimulus": 1655, "trial": 10, "rt": 6890, "response": "Beta"}, "13": {"stimulus": 2374, "trial": 13, "rt": 881, "response": "Beta"}, "12": {"stimulus": 2312, "trial": 12, "rt": 3733, "response": "Beta"}, "15": {"stimulus": 2343, "trial": 15, "rt": 1217, "response": "Gamma"}, "14": {"stimulus": 2218, "trial": 14, "rt": 748, "response": "Beta"}, "17": {"stimulus": 968, "trial": 17, "rt": 1193, "response": "Alpha"}, "16": {"stimulus": 1405, "trial": 16, "rt": 2031, "response": "Beta"}, "19": {"stimulus": 749, "trial": 19, "rt": 867, "response": "Alpha"}, "18": {"stimulus": 874, "trial": 18, "rt": 672, "response": "Alpha"}, "31": {"stimulus": 2499, "trial": 31, "rt": 663, "response": "Gamma"}, "30": {"stimulus": 1218, "trial": 30, "rt": 998, "response": "Alpha"}, "37": {"stimulus": 124, "trial": 37, "rt": 1069, "response": "Alpha"}, "36": {"stimulus": 1593, "trial": 36, "rt": 1773, "response": "Gamma"}, "35": {"stimulus": 1030, "trial": 35, "rt": 1075, "response": "Alpha"}, "34": {"stimulus": 905, "trial": 34, "rt": 1570, "response": "Alpha"}, "33": {"stimulus": 2124, "trial": 33, "rt": 1360, "response": "Beta"}, "55": {"stimulus": 93, "trial": 55, "rt": 1015, "response": "Alpha"}, "74": {"stimulus": 1687, "trial": 74, "rt": 811, "response": "Gamma"}, "32": {"stimulus": 1968, "trial": 32, "rt": 1085, "response": "Beta"}, "57": {"stimulus": 624, "trial": 57, "rt": 1274, "response": "Alpha"}, "50": {"stimulus": 780, "trial": 50, "rt": 718, "response": "Alpha"}}, "experiment": {"Paradigm": "TACL", "Stimuli": "Size-Color Squares", "Experiment": "Generating-Multiple-Categories"}, "submit": {"timeTotal": 1019351, "age": "32", "comments": "", "sex": "Female"}}