{"info": {"finish": 1548144004611, "participant": 313, "exposed": true, "lab": false, "start": 1548143641878, "counterbalance": 4, "gentype": 1, "condition": "Row", "browser": {"platform": "Win32", "userAgent": "Mozilla/5.0 (Windows NT 10.0; Win64; x64) AppleWebKit/537.36 (KHTML, like Gecko) Chrome/71.0.3578.98 Safari/537.36"}}, "observation": {"11": {"stimulus": 612, "trial": 11, "rt": 1620}, "10": {"stimulus": 421, "trial": 10, "rt": 1487}, "1": {"stimulus": 493, "trial": 1, "rt": 2932}, "0": {"stimulus": 582, "trial": 0, "rt": 3239}, "3": {"stimulus": 612, "trial": 3, "rt": 2360}, "2": {"stimulus": 421, "trial": 2, "rt": 2520}, "5": {"stimulus": 582, "trial": 5, "rt": 1549}, "4": {"stimulus": 493, "trial": 4, "rt": 1618}, "7": {"stimulus": 421, "trial": 7, "rt": 1491}, "6": {"stimulus": 612, "trial": 6, "rt": 2833}, "9": {"stimulus": 493, "trial": 9, "rt": 1240}, "8": {"stimulus": 582, "trial": 8, "rt": 1577}}, "generation": {"1": {"category": "Beta", "trial": 1, "stimulus": 950, "rt": 6563}, "0": {"category": "Beta", "trial": 0, "stimulus": 0, "rt": 10637}, "3": {"category": "Beta", "trial": 3, "stimulus": 201, "rt": 8005}, "2": {"category": "Beta", "trial": 2, "stimulus": 50, "rt": 8325}, "5": {"category": "Beta", "trial": 5, "stimulus": 55, "rt": 7350}, "4": {"category": "Beta", "trial": 4, "stimulus": 1050, "rt": 8604}, "7": {"category": "Beta", "trial": 7, "stimulus": 52, "rt": 11266}, "6": {"category": "Beta", "trial": 6, "stimulus": 106, "rt": 4827}}, "generalization": {"56": {"stimulus": 999, "trial": 56, "rt": 1096, "response": "Alpha"}, "77": {"stimulus": 718, "trial": 77, "rt": 1101, "response": "Alpha"}, "54": {"stimulus": 2030, "trial": 54, "rt": 806, "response": "Beta"}, "42": {"stimulus": 218, "trial": 42, "rt": 1908, "response": "Alpha"}, "48": {"stimulus": 1468, "trial": 48, "rt": 2031, "response": "Alpha"}, "43": {"stimulus": 0, "trial": 43, "rt": 1136, "response": "Beta"}, "60": {"stimulus": 780, "trial": 60, "rt": 1240, "response": "Alpha"}, "61": {"stimulus": 1405, "trial": 61, "rt": 1029, "response": "Beta"}, "62": {"stimulus": 468, "trial": 62, "rt": 2864, "response": "Alpha"}, "63": {"stimulus": 1562, "trial": 63, "rt": 1210, "response": "Beta"}, "64": {"stimulus": 405, "trial": 64, "rt": 1196, "response": "Beta"}, "49": {"stimulus": 93, "trial": 49, "rt": 857, "response": "Alpha"}, "66": {"stimulus": 1968, "trial": 66, "rt": 1591, "response": "Beta"}, "67": {"stimulus": 1593, "trial": 67, "rt": 921, "response": "Alpha"}, "68": {"stimulus": 687, "trial": 68, "rt": 630, "response": "Alpha"}, "69": {"stimulus": 312, "trial": 69, "rt": 2530, "response": "Beta"}, "80": {"stimulus": 968, "trial": 80, "rt": 2733, "response": "Alpha"}, "52": {"stimulus": 1687, "trial": 52, "rt": 1228, "response": "Alpha"}, "53": {"stimulus": 2374, "trial": 53, "rt": 2082, "response": "Beta"}, "24": {"stimulus": 155, "trial": 24, "rt": 3835, "response": "Beta"}, "25": {"stimulus": 2062, "trial": 25, "rt": 2821, "response": "Beta"}, "26": {"stimulus": 843, "trial": 26, "rt": 900, "response": "Alpha"}, "27": {"stimulus": 624, "trial": 27, "rt": 687, "response": "Alpha"}, "20": {"stimulus": 530, "trial": 20, "rt": 1201, "response": "Alpha"}, "21": {"stimulus": 2437, "trial": 21, "rt": 1610, "response": "Beta"}, "22": {"stimulus": 2280, "trial": 22, "rt": 1766, "response": "Beta"}, "23": {"stimulus": 1187, "trial": 23, "rt": 1059, "response": "Alpha"}, "46": {"stimulus": 2218, "trial": 46, "rt": 1290, "response": "Beta"}, "47": {"stimulus": 874, "trial": 47, "rt": 1837, "response": "Alpha"}, "44": {"stimulus": 374, "trial": 44, "rt": 1961, "response": "Alpha"}, "45": {"stimulus": 62, "trial": 45, "rt": 1715, "response": "Beta"}, "28": {"stimulus": 1374, "trial": 28, "rt": 1479, "response": "Alpha"}, "29": {"stimulus": 1905, "trial": 29, "rt": 1007, "response": "Beta"}, "40": {"stimulus": 343, "trial": 40, "rt": 954, "response": "Alpha"}, "41": {"stimulus": 2312, "trial": 41, "rt": 953, "response": "Beta"}, "1": {"stimulus": 499, "trial": 1, "rt": 1353, "response": "Alpha"}, "0": {"stimulus": 1530, "trial": 0, "rt": 1569, "response": "Alpha"}, "3": {"stimulus": 1624, "trial": 3, "rt": 1553, "response": "Alpha"}, "2": {"stimulus": 1030, "trial": 2, "rt": 1365, "response": "Alpha"}, "5": {"stimulus": 1999, "trial": 5, "rt": 1792, "response": "Alpha"}, "4": {"stimulus": 280, "trial": 4, "rt": 1186, "response": "Alpha"}, "7": {"stimulus": 1437, "trial": 7, "rt": 2352, "response": "Alpha"}, "6": {"stimulus": 2155, "trial": 6, "rt": 1185, "response": "Beta"}, "9": {"stimulus": 2468, "trial": 9, "rt": 1056, "response": "Beta"}, "8": {"stimulus": 437, "trial": 8, "rt": 1215, "response": "Alpha"}, "78": {"stimulus": 1780, "trial": 78, "rt": 671, "response": "Alpha"}, "51": {"stimulus": 249, "trial": 51, "rt": 718, "response": "Alpha"}, "39": {"stimulus": 1843, "trial": 39, "rt": 1158, "response": "Alpha"}, "65": {"stimulus": 905, "trial": 65, "rt": 657, "response": "Beta"}, "76": {"stimulus": 187, "trial": 76, "rt": 859, "response": "Alpha"}, "75": {"stimulus": 2499, "trial": 75, "rt": 861, "response": "Alpha"}, "38": {"stimulus": 1655, "trial": 38, "rt": 1321, "response": "Beta"}, "73": {"stimulus": 2187, "trial": 73, "rt": 1698, "response": "Beta"}, "72": {"stimulus": 124, "trial": 72, "rt": 689, "response": "Alpha"}, "71": {"stimulus": 1280, "trial": 71, "rt": 623, "response": "Alpha"}, "70": {"stimulus": 30, "trial": 70, "rt": 1181, "response": "Alpha"}, "59": {"stimulus": 1062, "trial": 59, "rt": 1122, "response": "Beta"}, "79": {"stimulus": 2124, "trial": 79, "rt": 1446, "response": "Beta"}, "58": {"stimulus": 593, "trial": 58, "rt": 1561, "response": "Alpha"}, "11": {"stimulus": 1124, "trial": 11, "rt": 2322, "response": "Beta"}, "10": {"stimulus": 1749, "trial": 10, "rt": 1259, "response": "Alpha"}, "13": {"stimulus": 1343, "trial": 13, "rt": 3313, "response": "Alpha"}, "12": {"stimulus": 2343, "trial": 12, "rt": 3594, "response": "Beta"}, "15": {"stimulus": 1093, "trial": 15, "rt": 725, "response": "Alpha"}, "14": {"stimulus": 1249, "trial": 14, "rt": 1513, "response": "Alpha"}, "17": {"stimulus": 937, "trial": 17, "rt": 1111, "response": "Alpha"}, "16": {"stimulus": 1312, "trial": 16, "rt": 1261, "response": "Beta"}, "19": {"stimulus": 655, "trial": 19, "rt": 665, "response": "Beta"}, "18": {"stimulus": 1155, "trial": 18, "rt": 1562, "response": "Beta"}, "31": {"stimulus": 812, "trial": 31, "rt": 1214, "response": "Alpha"}, "30": {"stimulus": 1937, "trial": 30, "rt": 1393, "response": "Beta"}, "37": {"stimulus": 1874, "trial": 37, "rt": 2108, "response": "Alpha"}, "36": {"stimulus": 2249, "trial": 36, "rt": 1341, "response": "Beta"}, "35": {"stimulus": 562, "trial": 35, "rt": 1658, "response": "Beta"}, "34": {"stimulus": 2093, "trial": 34, "rt": 1407, "response": "Beta"}, "33": {"stimulus": 1718, "trial": 33, "rt": 708, "response": "Alpha"}, "55": {"stimulus": 1812, "trial": 55, "rt": 784, "response": "Beta"}, "74": {"stimulus": 1499, "trial": 74, "rt": 2452, "response": "Alpha"}, "32": {"stimulus": 1218, "trial": 32, "rt": 1484, "response": "Alpha"}, "57": {"stimulus": 2405, "trial": 57, "rt": 1658, "response": "Beta"}, "50": {"stimulus": 749, "trial": 50, "rt": 860, "response": "Alpha"}}, "experiment": {"Paradigm": "TACL", "Stimuli": "Size-Color Squares", "Experiment": "Generating-Multiple-Categories"}, "submit": {"timeTotal": 362893, "age": "44", "comments": "It would be nice to know the rule now that its over.", "sex": "Male"}}