{"info": {"finish": 1548151710005, "participant": 316, "exposed": true, "lab": false, "start": 1548151303825, "counterbalance": 6, "gentype": 2, "condition": "Row", "browser": {"platform": "Win32", "userAgent": "Mozilla/5.0 (Windows NT 6.1; Win64; x64) AppleWebKit/537.36 (KHTML, like Gecko) Chrome/71.0.3578.98 Safari/537.36"}}, "observation": {"11": {"stimulus": 493, "trial": 11, "rt": 1697}, "10": {"stimulus": 612, "trial": 10, "rt": 2399}, "1": {"stimulus": 421, "trial": 1, "rt": 2710}, "0": {"stimulus": 582, "trial": 0, "rt": 5210}, "3": {"stimulus": 493, "trial": 3, "rt": 2207}, "2": {"stimulus": 612, "trial": 2, "rt": 11846}, "5": {"stimulus": 421, "trial": 5, "rt": 1879}, "4": {"stimulus": 582, "trial": 4, "rt": 9895}, "7": {"stimulus": 493, "trial": 7, "rt": 2996}, "6": {"stimulus": 612, "trial": 6, "rt": 1783}, "9": {"stimulus": 421, "trial": 9, "rt": 2446}, "8": {"stimulus": 582, "trial": 8, "rt": 2807}}, "generation": {"1": {"category": "Beta", "trial": 1, "stimulus": 341, "rt": 4926}, "0": {"category": "Beta", "trial": 0, "stimulus": 392, "rt": 9524}, "3": {"category": "Beta", "trial": 3, "stimulus": 92, "rt": 3438}, "2": {"category": "Beta", "trial": 2, "stimulus": 546, "rt": 3205}, "5": {"category": "Gamma", "trial": 5, "stimulus": 347, "rt": 2543}, "4": {"category": "Gamma", "trial": 4, "stimulus": 447, "rt": 4156}, "7": {"category": "Gamma", "trial": 7, "stimulus": 346, "rt": 3246}, "6": {"category": "Gamma", "trial": 6, "stimulus": 396, "rt": 3734}}, "generalization": {"56": {"stimulus": 2499, "trial": 56, "rt": 975, "response": "Alpha"}, "77": {"stimulus": 93, "trial": 77, "rt": 1087, "response": "Alpha"}, "54": {"stimulus": 2062, "trial": 54, "rt": 861, "response": "Beta"}, "42": {"stimulus": 780, "trial": 42, "rt": 974, "response": "Beta"}, "48": {"stimulus": 905, "trial": 48, "rt": 528, "response": "Gamma"}, "43": {"stimulus": 1624, "trial": 43, "rt": 2821, "response": "Alpha"}, "60": {"stimulus": 1843, "trial": 60, "rt": 919, "response": "Alpha"}, "61": {"stimulus": 1280, "trial": 61, "rt": 702, "response": "Beta"}, "62": {"stimulus": 1343, "trial": 62, "rt": 775, "response": "Alpha"}, "63": {"stimulus": 1187, "trial": 63, "rt": 861, "response": "Alpha"}, "64": {"stimulus": 2405, "trial": 64, "rt": 958, "response": "Gamma"}, "49": {"stimulus": 1405, "trial": 49, "rt": 1054, "response": "Gamma"}, "66": {"stimulus": 530, "trial": 66, "rt": 798, "response": "Alpha"}, "67": {"stimulus": 499, "trial": 67, "rt": 1007, "response": "Alpha"}, "68": {"stimulus": 1562, "trial": 68, "rt": 1214, "response": "Gamma"}, "69": {"stimulus": 1749, "trial": 69, "rt": 927, "response": "Alpha"}, "80": {"stimulus": 1093, "trial": 80, "rt": 798, "response": "Alpha"}, "52": {"stimulus": 1812, "trial": 52, "rt": 645, "response": "Gamma"}, "53": {"stimulus": 1593, "trial": 53, "rt": 734, "response": "Alpha"}, "24": {"stimulus": 718, "trial": 24, "rt": 1234, "response": "Beta"}, "25": {"stimulus": 62, "trial": 25, "rt": 1280, "response": "Beta"}, "26": {"stimulus": 2249, "trial": 26, "rt": 1206, "response": "Alpha"}, "27": {"stimulus": 1905, "trial": 27, "rt": 974, "response": "Gamma"}, "20": {"stimulus": 562, "trial": 20, "rt": 836, "response": "Beta"}, "21": {"stimulus": 312, "trial": 21, "rt": 781, "response": "Gamma"}, "22": {"stimulus": 1874, "trial": 22, "rt": 3134, "response": "Beta"}, "23": {"stimulus": 30, "trial": 23, "rt": 1809, "response": "Alpha"}, "46": {"stimulus": 1687, "trial": 46, "rt": 1014, "response": "Alpha"}, "47": {"stimulus": 1218, "trial": 47, "rt": 622, "response": "Beta"}, "44": {"stimulus": 1312, "trial": 44, "rt": 1015, "response": "Beta"}, "45": {"stimulus": 1499, "trial": 45, "rt": 1183, "response": "Alpha"}, "28": {"stimulus": 468, "trial": 28, "rt": 1006, "response": "Gamma"}, "29": {"stimulus": 999, "trial": 29, "rt": 735, "response": "Alpha"}, "40": {"stimulus": 1437, "trial": 40, "rt": 1126, "response": "Alpha"}, "41": {"stimulus": 1374, "trial": 41, "rt": 1006, "response": "Beta"}, "1": {"stimulus": 187, "trial": 1, "rt": 1286, "response": "Alpha"}, "0": {"stimulus": 2030, "trial": 0, "rt": 2548, "response": "Alpha"}, "3": {"stimulus": 655, "trial": 3, "rt": 1279, "response": "Beta"}, "2": {"stimulus": 1968, "trial": 2, "rt": 2758, "response": "Beta"}, "5": {"stimulus": 2187, "trial": 5, "rt": 1414, "response": "Alpha"}, "4": {"stimulus": 1780, "trial": 4, "rt": 830, "response": "Alpha"}, "7": {"stimulus": 1937, "trial": 7, "rt": 951, "response": "Alpha"}, "6": {"stimulus": 2218, "trial": 6, "rt": 1615, "response": "Beta"}, "9": {"stimulus": 405, "trial": 9, "rt": 911, "response": "Beta"}, "8": {"stimulus": 2468, "trial": 8, "rt": 1882, "response": "Gamma"}, "78": {"stimulus": 343, "trial": 78, "rt": 1406, "response": "Beta"}, "51": {"stimulus": 2093, "trial": 51, "rt": 542, "response": "Beta"}, "39": {"stimulus": 2437, "trial": 39, "rt": 1053, "response": "Alpha"}, "65": {"stimulus": 1718, "trial": 65, "rt": 1119, "response": "Beta"}, "76": {"stimulus": 1655, "trial": 76, "rt": 887, "response": "Gamma"}, "75": {"stimulus": 1530, "trial": 75, "rt": 799, "response": "Alpha"}, "38": {"stimulus": 1124, "trial": 38, "rt": 1278, "response": "Alpha"}, "73": {"stimulus": 687, "trial": 73, "rt": 782, "response": "Alpha"}, "72": {"stimulus": 2155, "trial": 72, "rt": 974, "response": "Gamma"}, "71": {"stimulus": 874, "trial": 71, "rt": 878, "response": "Gamma"}, "70": {"stimulus": 624, "trial": 70, "rt": 789, "response": "Beta"}, "59": {"stimulus": 1155, "trial": 59, "rt": 806, "response": "Gamma"}, "79": {"stimulus": 280, "trial": 79, "rt": 990, "response": "Beta"}, "58": {"stimulus": 1062, "trial": 58, "rt": 1126, "response": "Gamma"}, "11": {"stimulus": 749, "trial": 11, "rt": 1317, "response": "Alpha"}, "10": {"stimulus": 155, "trial": 10, "rt": 574, "response": "Alpha"}, "13": {"stimulus": 843, "trial": 13, "rt": 758, "response": "Alpha"}, "12": {"stimulus": 124, "trial": 12, "rt": 678, "response": "Beta"}, "15": {"stimulus": 812, "trial": 15, "rt": 1511, "response": "Beta"}, "14": {"stimulus": 593, "trial": 14, "rt": 1895, "response": "Gamma"}, "17": {"stimulus": 2280, "trial": 17, "rt": 837, "response": "Alpha"}, "16": {"stimulus": 968, "trial": 16, "rt": 1294, "response": "Gamma"}, "19": {"stimulus": 1030, "trial": 19, "rt": 774, "response": "Alpha"}, "18": {"stimulus": 218, "trial": 18, "rt": 1319, "response": "Beta"}, "31": {"stimulus": 1468, "trial": 31, "rt": 886, "response": "Beta"}, "30": {"stimulus": 2124, "trial": 30, "rt": 790, "response": "Beta"}, "37": {"stimulus": 0, "trial": 37, "rt": 575, "response": "Gamma"}, "36": {"stimulus": 374, "trial": 36, "rt": 821, "response": "Beta"}, "35": {"stimulus": 1999, "trial": 35, "rt": 807, "response": "Alpha"}, "34": {"stimulus": 1249, "trial": 34, "rt": 806, "response": "Alpha"}, "33": {"stimulus": 2312, "trial": 33, "rt": 1117, "response": "Beta"}, "55": {"stimulus": 249, "trial": 55, "rt": 871, "response": "Alpha"}, "74": {"stimulus": 937, "trial": 74, "rt": 702, "response": "Beta"}, "32": {"stimulus": 2374, "trial": 32, "rt": 1302, "response": "Beta"}, "57": {"stimulus": 437, "trial": 57, "rt": 1196, "response": "Alpha"}, "50": {"stimulus": 2343, "trial": 50, "rt": 806, "response": "Alpha"}}, "experiment": {"Paradigm": "TACL", "Stimuli": "Size-Color Squares", "Experiment": "Generating-Multiple-Categories"}, "submit": {"timeTotal": 407377, "age": "40", "comments": "nice to good", "sex": "Male"}}