{"info": {"finish": 1548151915080, "participant": 318, "exposed": true, "lab": false, "start": 1548151389581, "counterbalance": 0, "gentype": 2, "condition": "XOR", "browser": {"platform": "Win32", "userAgent": "Mozilla/5.0 (Windows NT 6.1; Win64; x64) AppleWebKit/537.36 (KHTML, like Gecko) Chrome/71.0.3578.98 Safari/537.36"}}, "observation": {"11": {"stimulus": 403, "trial": 11, "rt": 1590}, "10": {"stimulus": 1479, "trial": 10, "rt": 2199}, "1": {"stimulus": 403, "trial": 1, "rt": 2854}, "0": {"stimulus": 818, "trial": 0, "rt": 5539}, "3": {"stimulus": 1890, "trial": 3, "rt": 2870}, "2": {"stimulus": 1479, "trial": 2, "rt": 2862}, "5": {"stimulus": 403, "trial": 5, "rt": 2142}, "4": {"stimulus": 818, "trial": 4, "rt": 2336}, "7": {"stimulus": 1479, "trial": 7, "rt": 1910}, "6": {"stimulus": 1890, "trial": 6, "rt": 1973}, "9": {"stimulus": 818, "trial": 9, "rt": 2070}, "8": {"stimulus": 1890, "trial": 8, "rt": 2215}}, "generation": {"1": {"category": "Beta", "trial": 1, "stimulus": 1336, "rt": 10253}, "0": {"category": "Beta", "trial": 0, "stimulus": 982, "rt": 21933}, "3": {"category": "Beta", "trial": 3, "stimulus": 1078, "rt": 3582}, "2": {"category": "Beta", "trial": 2, "stimulus": 1130, "rt": 4454}, "5": {"category": "Gamma", "trial": 5, "stimulus": 178, "rt": 4350}, "4": {"category": "Gamma", "trial": 4, "stimulus": 1377, "rt": 8326}, "7": {"category": "Gamma", "trial": 7, "stimulus": 997, "rt": 5967}, "6": {"category": "Gamma", "trial": 6, "stimulus": 16, "rt": 4766}}, "generalization": {"56": {"stimulus": 93, "trial": 56, "rt": 1391, "response": "Gamma"}, "77": {"stimulus": 343, "trial": 77, "rt": 896, "response": "Gamma"}, "54": {"stimulus": 593, "trial": 54, "rt": 1759, "response": "Gamma"}, "42": {"stimulus": 749, "trial": 42, "rt": 992, "response": "Beta"}, "48": {"stimulus": 2218, "trial": 48, "rt": 489, "response": "Alpha"}, "43": {"stimulus": 374, "trial": 43, "rt": 1334, "response": "Beta"}, "60": {"stimulus": 499, "trial": 60, "rt": 850, "response": "Alpha"}, "61": {"stimulus": 312, "trial": 61, "rt": 669, "response": "Beta"}, "62": {"stimulus": 1593, "trial": 62, "rt": 1221, "response": "Alpha"}, "63": {"stimulus": 2155, "trial": 63, "rt": 896, "response": "Beta"}, "64": {"stimulus": 1093, "trial": 64, "rt": 1458, "response": "Gamma"}, "49": {"stimulus": 249, "trial": 49, "rt": 2078, "response": "Gamma"}, "66": {"stimulus": 1218, "trial": 66, "rt": 845, "response": "Alpha"}, "67": {"stimulus": 1530, "trial": 67, "rt": 1103, "response": "Beta"}, "68": {"stimulus": 2499, "trial": 68, "rt": 1365, "response": "Gamma"}, "69": {"stimulus": 1405, "trial": 69, "rt": 605, "response": "Alpha"}, "80": {"stimulus": 1718, "trial": 80, "rt": 2676, "response": "Alpha"}, "52": {"stimulus": 1280, "trial": 52, "rt": 2195, "response": "Alpha"}, "53": {"stimulus": 468, "trial": 53, "rt": 855, "response": "Beta"}, "24": {"stimulus": 1905, "trial": 24, "rt": 1223, "response": "Beta"}, "25": {"stimulus": 2374, "trial": 25, "rt": 903, "response": "Gamma"}, "26": {"stimulus": 624, "trial": 26, "rt": 663, "response": "Alpha"}, "27": {"stimulus": 1312, "trial": 27, "rt": 916, "response": "Alpha"}, "20": {"stimulus": 1937, "trial": 20, "rt": 719, "response": "Beta"}, "21": {"stimulus": 1343, "trial": 21, "rt": 759, "response": "Gamma"}, "22": {"stimulus": 1155, "trial": 22, "rt": 830, "response": "Alpha"}, "23": {"stimulus": 2030, "trial": 23, "rt": 798, "response": "Alpha"}, "46": {"stimulus": 1374, "trial": 46, "rt": 593, "response": "Alpha"}, "47": {"stimulus": 280, "trial": 47, "rt": 1498, "response": "Gamma"}, "44": {"stimulus": 1124, "trial": 44, "rt": 942, "response": "Alpha"}, "45": {"stimulus": 1812, "trial": 45, "rt": 1135, "response": "Beta"}, "28": {"stimulus": 1468, "trial": 28, "rt": 926, "response": "Beta"}, "29": {"stimulus": 1874, "trial": 29, "rt": 655, "response": "Alpha"}, "40": {"stimulus": 1749, "trial": 40, "rt": 565, "response": "Alpha"}, "41": {"stimulus": 2124, "trial": 41, "rt": 1047, "response": "Alpha"}, "1": {"stimulus": 2437, "trial": 1, "rt": 1438, "response": "Beta"}, "0": {"stimulus": 187, "trial": 0, "rt": 5531, "response": "Gamma"}, "3": {"stimulus": 1968, "trial": 3, "rt": 973, "response": "Alpha"}, "2": {"stimulus": 2280, "trial": 2, "rt": 934, "response": "Alpha"}, "5": {"stimulus": 2062, "trial": 5, "rt": 1199, "response": "Alpha"}, "4": {"stimulus": 2468, "trial": 4, "rt": 1471, "response": "Beta"}, "7": {"stimulus": 2249, "trial": 7, "rt": 2918, "response": "Gamma"}, "6": {"stimulus": 1624, "trial": 6, "rt": 790, "response": "Alpha"}, "9": {"stimulus": 937, "trial": 9, "rt": 981, "response": "Beta"}, "8": {"stimulus": 1562, "trial": 8, "rt": 822, "response": "Alpha"}, "78": {"stimulus": 0, "trial": 78, "rt": 1003, "response": "Alpha"}, "51": {"stimulus": 405, "trial": 51, "rt": 1887, "response": "Alpha"}, "39": {"stimulus": 2093, "trial": 39, "rt": 1094, "response": "Gamma"}, "65": {"stimulus": 1780, "trial": 65, "rt": 1392, "response": "Alpha"}, "76": {"stimulus": 1687, "trial": 76, "rt": 760, "response": "Beta"}, "75": {"stimulus": 1499, "trial": 75, "rt": 1118, "response": "Gamma"}, "38": {"stimulus": 218, "trial": 38, "rt": 959, "response": "Beta"}, "73": {"stimulus": 1062, "trial": 73, "rt": 1015, "response": "Alpha"}, "72": {"stimulus": 30, "trial": 72, "rt": 1808, "response": "Beta"}, "71": {"stimulus": 655, "trial": 71, "rt": 1589, "response": "Alpha"}, "70": {"stimulus": 1187, "trial": 70, "rt": 1172, "response": "Alpha"}, "59": {"stimulus": 2343, "trial": 59, "rt": 1074, "response": "Beta"}, "79": {"stimulus": 718, "trial": 79, "rt": 984, "response": "Beta"}, "58": {"stimulus": 812, "trial": 58, "rt": 1419, "response": "Alpha"}, "11": {"stimulus": 124, "trial": 11, "rt": 2061, "response": "Beta"}, "10": {"stimulus": 530, "trial": 10, "rt": 1088, "response": "Alpha"}, "13": {"stimulus": 562, "trial": 13, "rt": 1606, "response": "Beta"}, "12": {"stimulus": 999, "trial": 12, "rt": 1302, "response": "Gamma"}, "15": {"stimulus": 780, "trial": 15, "rt": 846, "response": "Alpha"}, "14": {"stimulus": 2312, "trial": 14, "rt": 855, "response": "Alpha"}, "17": {"stimulus": 968, "trial": 17, "rt": 881, "response": "Alpha"}, "16": {"stimulus": 874, "trial": 16, "rt": 839, "response": "Alpha"}, "19": {"stimulus": 1030, "trial": 19, "rt": 774, "response": "Alpha"}, "18": {"stimulus": 1843, "trial": 18, "rt": 1110, "response": "Gamma"}, "31": {"stimulus": 2187, "trial": 31, "rt": 695, "response": "Alpha"}, "30": {"stimulus": 62, "trial": 30, "rt": 1824, "response": "Gamma"}, "37": {"stimulus": 905, "trial": 37, "rt": 1101, "response": "Alpha"}, "36": {"stimulus": 687, "trial": 36, "rt": 670, "response": "Alpha"}, "35": {"stimulus": 1437, "trial": 35, "rt": 759, "response": "Beta"}, "34": {"stimulus": 437, "trial": 34, "rt": 950, "response": "Alpha"}, "33": {"stimulus": 1249, "trial": 33, "rt": 718, "response": "Alpha"}, "55": {"stimulus": 155, "trial": 55, "rt": 708, "response": "Alpha"}, "74": {"stimulus": 1655, "trial": 74, "rt": 724, "response": "Alpha"}, "32": {"stimulus": 843, "trial": 32, "rt": 1468, "response": "Gamma"}, "57": {"stimulus": 1999, "trial": 57, "rt": 1098, "response": "Beta"}, "50": {"stimulus": 2405, "trial": 50, "rt": 1598, "response": "Beta"}}, "experiment": {"Paradigm": "TACL", "Stimuli": "Size-Color Squares", "Experiment": "Generating-Multiple-Categories"}, "submit": {"timeTotal": 526905, "age": "35", "comments": "Interesting study", "sex": "male"}}