{"info": {"finish": 1548152164869, "participant": 320, "exposed": true, "lab": false, "start": 1548151752920, "counterbalance": 7, "gentype": 1, "condition": "Cluster", "browser": {"platform": "Win32", "userAgent": "Mozilla/5.0 (Windows NT 10.0; Win64; x64) AppleWebKit/537.36 (KHTML, like Gecko) Chrome/71.0.3578.98 Safari/537.36"}}, "observation": {"11": {"stimulus": 583, "trial": 11, "rt": 2307}, "10": {"stimulus": 1083, "trial": 10, "rt": 3048}, "1": {"stimulus": 1093, "trial": 1, "rt": 3769}, "0": {"stimulus": 583, "trial": 0, "rt": 4361}, "3": {"stimulus": 1083, "trial": 3, "rt": 2239}, "2": {"stimulus": 392, "trial": 2, "rt": 3556}, "5": {"stimulus": 1083, "trial": 5, "rt": 2430}, "4": {"stimulus": 1093, "trial": 4, "rt": 3194}, "7": {"stimulus": 583, "trial": 7, "rt": 2600}, "6": {"stimulus": 392, "trial": 6, "rt": 5120}, "9": {"stimulus": 1093, "trial": 9, "rt": 2328}, "8": {"stimulus": 392, "trial": 8, "rt": 2430}}, "generation": {"1": {"category": "Beta", "trial": 1, "stimulus": 2353, "rt": 9777}, "0": {"category": "Beta", "trial": 0, "stimulus": 2450, "rt": 18404}, "3": {"category": "Beta", "trial": 3, "stimulus": 2462, "rt": 7886}, "2": {"category": "Beta", "trial": 2, "stimulus": 2458, "rt": 5479}, "5": {"category": "Beta", "trial": 5, "stimulus": 2405, "rt": 6942}, "4": {"category": "Beta", "trial": 4, "stimulus": 2400, "rt": 7874}, "7": {"category": "Beta", "trial": 7, "stimulus": 2303, "rt": 9561}, "6": {"category": "Beta", "trial": 6, "stimulus": 2454, "rt": 7751}}, "generalization": {"56": {"stimulus": 280, "trial": 56, "rt": 494, "response": "Alpha"}, "77": {"stimulus": 1874, "trial": 77, "rt": 763, "response": "Alpha"}, "54": {"stimulus": 1093, "trial": 54, "rt": 506, "response": "Alpha"}, "42": {"stimulus": 2062, "trial": 42, "rt": 754, "response": "Alpha"}, "48": {"stimulus": 749, "trial": 48, "rt": 833, "response": "Alpha"}, "43": {"stimulus": 874, "trial": 43, "rt": 551, "response": "Alpha"}, "60": {"stimulus": 2374, "trial": 60, "rt": 821, "response": "Alpha"}, "61": {"stimulus": 1749, "trial": 61, "rt": 630, "response": "Alpha"}, "62": {"stimulus": 249, "trial": 62, "rt": 496, "response": "Alpha"}, "63": {"stimulus": 2312, "trial": 63, "rt": 990, "response": "Beta"}, "64": {"stimulus": 1312, "trial": 64, "rt": 866, "response": "Alpha"}, "49": {"stimulus": 1343, "trial": 49, "rt": 515, "response": "Alpha"}, "66": {"stimulus": 1968, "trial": 66, "rt": 1755, "response": "Alpha"}, "67": {"stimulus": 968, "trial": 67, "rt": 630, "response": "Alpha"}, "68": {"stimulus": 1655, "trial": 68, "rt": 901, "response": "Alpha"}, "69": {"stimulus": 1499, "trial": 69, "rt": 675, "response": "Alpha"}, "80": {"stimulus": 2437, "trial": 80, "rt": 1080, "response": "Alpha"}, "52": {"stimulus": 218, "trial": 52, "rt": 697, "response": "Alpha"}, "53": {"stimulus": 1280, "trial": 53, "rt": 641, "response": "Alpha"}, "24": {"stimulus": 2343, "trial": 24, "rt": 518, "response": "Alpha"}, "25": {"stimulus": 687, "trial": 25, "rt": 1643, "response": "Alpha"}, "26": {"stimulus": 1030, "trial": 26, "rt": 662, "response": "Alpha"}, "27": {"stimulus": 2405, "trial": 27, "rt": 1002, "response": "Beta"}, "20": {"stimulus": 812, "trial": 20, "rt": 766, "response": "Alpha"}, "21": {"stimulus": 1187, "trial": 21, "rt": 551, "response": "Alpha"}, "22": {"stimulus": 1687, "trial": 22, "rt": 766, "response": "Alpha"}, "23": {"stimulus": 2499, "trial": 23, "rt": 1699, "response": "Alpha"}, "46": {"stimulus": 499, "trial": 46, "rt": 517, "response": "Alpha"}, "47": {"stimulus": 2218, "trial": 47, "rt": 2048, "response": "Alpha"}, "44": {"stimulus": 1937, "trial": 44, "rt": 819, "response": "Alpha"}, "45": {"stimulus": 374, "trial": 45, "rt": 551, "response": "Alpha"}, "28": {"stimulus": 655, "trial": 28, "rt": 765, "response": "Alpha"}, "29": {"stimulus": 562, "trial": 29, "rt": 563, "response": "Alpha"}, "40": {"stimulus": 1562, "trial": 40, "rt": 3228, "response": "Alpha"}, "41": {"stimulus": 1624, "trial": 41, "rt": 708, "response": "Alpha"}, "1": {"stimulus": 1405, "trial": 1, "rt": 1215, "response": "Beta"}, "0": {"stimulus": 155, "trial": 0, "rt": 5646, "response": "Alpha"}, "3": {"stimulus": 937, "trial": 3, "rt": 1124, "response": "Alpha"}, "2": {"stimulus": 2093, "trial": 2, "rt": 1249, "response": "Alpha"}, "5": {"stimulus": 780, "trial": 5, "rt": 890, "response": "Alpha"}, "4": {"stimulus": 624, "trial": 4, "rt": 2575, "response": "Alpha"}, "7": {"stimulus": 343, "trial": 7, "rt": 450, "response": "Alpha"}, "6": {"stimulus": 437, "trial": 6, "rt": 990, "response": "Alpha"}, "9": {"stimulus": 1374, "trial": 9, "rt": 1124, "response": "Alpha"}, "8": {"stimulus": 1843, "trial": 8, "rt": 1305, "response": "Alpha"}, "78": {"stimulus": 1999, "trial": 78, "rt": 1531, "response": "Alpha"}, "51": {"stimulus": 1437, "trial": 51, "rt": 506, "response": "Alpha"}, "39": {"stimulus": 2249, "trial": 39, "rt": 977, "response": "Alpha"}, "65": {"stimulus": 718, "trial": 65, "rt": 563, "response": "Alpha"}, "76": {"stimulus": 999, "trial": 76, "rt": 472, "response": "Alpha"}, "75": {"stimulus": 30, "trial": 75, "rt": 505, "response": "Alpha"}, "38": {"stimulus": 62, "trial": 38, "rt": 607, "response": "Alpha"}, "73": {"stimulus": 1812, "trial": 73, "rt": 1574, "response": "Alpha"}, "72": {"stimulus": 124, "trial": 72, "rt": 787, "response": "Alpha"}, "71": {"stimulus": 187, "trial": 71, "rt": 596, "response": "Alpha"}, "70": {"stimulus": 1905, "trial": 70, "rt": 3781, "response": "Alpha"}, "59": {"stimulus": 1124, "trial": 59, "rt": 755, "response": "Alpha"}, "79": {"stimulus": 530, "trial": 79, "rt": 631, "response": "Alpha"}, "58": {"stimulus": 2155, "trial": 58, "rt": 1124, "response": "Beta"}, "11": {"stimulus": 312, "trial": 11, "rt": 450, "response": "Alpha"}, "10": {"stimulus": 1155, "trial": 10, "rt": 968, "response": "Alpha"}, "13": {"stimulus": 2468, "trial": 13, "rt": 1035, "response": "Beta"}, "12": {"stimulus": 1718, "trial": 12, "rt": 945, "response": "Alpha"}, "15": {"stimulus": 593, "trial": 15, "rt": 631, "response": "Alpha"}, "14": {"stimulus": 2280, "trial": 14, "rt": 2396, "response": "Alpha"}, "17": {"stimulus": 2187, "trial": 17, "rt": 4241, "response": "Alpha"}, "16": {"stimulus": 1249, "trial": 16, "rt": 528, "response": "Alpha"}, "19": {"stimulus": 1780, "trial": 19, "rt": 1180, "response": "Alpha"}, "18": {"stimulus": 405, "trial": 18, "rt": 1034, "response": "Alpha"}, "31": {"stimulus": 843, "trial": 31, "rt": 766, "response": "Alpha"}, "30": {"stimulus": 2030, "trial": 30, "rt": 764, "response": "Alpha"}, "37": {"stimulus": 1062, "trial": 37, "rt": 1022, "response": "Alpha"}, "36": {"stimulus": 468, "trial": 36, "rt": 698, "response": "Alpha"}, "35": {"stimulus": 93, "trial": 35, "rt": 597, "response": "Alpha"}, "34": {"stimulus": 1593, "trial": 34, "rt": 718, "response": "Alpha"}, "33": {"stimulus": 2124, "trial": 33, "rt": 821, "response": "Alpha"}, "55": {"stimulus": 905, "trial": 55, "rt": 766, "response": "Alpha"}, "74": {"stimulus": 1218, "trial": 74, "rt": 486, "response": "Alpha"}, "32": {"stimulus": 0, "trial": 32, "rt": 766, "response": "Alpha"}, "57": {"stimulus": 1530, "trial": 57, "rt": 665, "response": "Alpha"}, "50": {"stimulus": 1468, "trial": 50, "rt": 552, "response": "Alpha"}}, "experiment": {"Paradigm": "TACL", "Stimuli": "Size-Color Squares", "Experiment": "Generating-Multiple-Categories"}, "submit": {"timeTotal": 412220, "age": "29", "comments": "n/a", "sex": "male"}}