{"info": {"finish": 1548152092111, "participant": 321, "exposed": true, "lab": false, "start": 1548151779143, "counterbalance": 0, "gentype": 2, "condition": "Row", "browser": {"platform": "Win32", "userAgent": "Mozilla/5.0 (Windows NT 10.0; Win64; x64; rv:64.0) Gecko/20100101 Firefox/64.0"}}, "observation": {"11": {"stimulus": 493, "trial": 11, "rt": 1339}, "10": {"stimulus": 421, "trial": 10, "rt": 1505}, "1": {"stimulus": 421, "trial": 1, "rt": 2018}, "0": {"stimulus": 582, "trial": 0, "rt": 8712}, "3": {"stimulus": 493, "trial": 3, "rt": 1382}, "2": {"stimulus": 612, "trial": 2, "rt": 1331}, "5": {"stimulus": 582, "trial": 5, "rt": 1363}, "4": {"stimulus": 612, "trial": 4, "rt": 1354}, "7": {"stimulus": 421, "trial": 7, "rt": 1308}, "6": {"stimulus": 493, "trial": 6, "rt": 1335}, "9": {"stimulus": 612, "trial": 9, "rt": 2759}, "8": {"stimulus": 582, "trial": 8, "rt": 1609}}, "generation": {"1": {"category": "Beta", "trial": 1, "stimulus": 2450, "rt": 4933}, "0": {"category": "Beta", "trial": 0, "stimulus": 2474, "rt": 7540}, "3": {"category": "Beta", "trial": 3, "stimulus": 2449, "rt": 6891}, "2": {"category": "Beta", "trial": 2, "stimulus": 2219, "rt": 4730}, "5": {"category": "Gamma", "trial": 5, "stimulus": 1250, "rt": 4303}, "4": {"category": "Gamma", "trial": 4, "stimulus": 1377, "rt": 7351}, "7": {"category": "Gamma", "trial": 7, "stimulus": 1399, "rt": 4014}, "6": {"category": "Gamma", "trial": 6, "stimulus": 1135, "rt": 3940}}, "generalization": {"56": {"stimulus": 2280, "trial": 56, "rt": 965, "response": "Beta"}, "77": {"stimulus": 624, "trial": 77, "rt": 882, "response": "Alpha"}, "54": {"stimulus": 968, "trial": 54, "rt": 792, "response": "Alpha"}, "42": {"stimulus": 1812, "trial": 42, "rt": 1397, "response": "Gamma"}, "48": {"stimulus": 1687, "trial": 48, "rt": 1138, "response": "Gamma"}, "43": {"stimulus": 93, "trial": 43, "rt": 845, "response": "Alpha"}, "60": {"stimulus": 1312, "trial": 60, "rt": 1028, "response": "Gamma"}, "61": {"stimulus": 1780, "trial": 61, "rt": 1717, "response": "Gamma"}, "62": {"stimulus": 812, "trial": 62, "rt": 1061, "response": "Alpha"}, "63": {"stimulus": 405, "trial": 63, "rt": 740, "response": "Alpha"}, "64": {"stimulus": 1405, "trial": 64, "rt": 824, "response": "Gamma"}, "49": {"stimulus": 2374, "trial": 49, "rt": 630, "response": "Beta"}, "66": {"stimulus": 2437, "trial": 66, "rt": 758, "response": "Beta"}, "67": {"stimulus": 1218, "trial": 67, "rt": 1361, "response": "Gamma"}, "68": {"stimulus": 749, "trial": 68, "rt": 1044, "response": "Alpha"}, "69": {"stimulus": 1030, "trial": 69, "rt": 1968, "response": "Alpha"}, "80": {"stimulus": 312, "trial": 80, "rt": 666, "response": "Alpha"}, "52": {"stimulus": 1999, "trial": 52, "rt": 1440, "response": "Gamma"}, "53": {"stimulus": 499, "trial": 53, "rt": 759, "response": "Alpha"}, "24": {"stimulus": 1093, "trial": 24, "rt": 2246, "response": "Gamma"}, "25": {"stimulus": 1905, "trial": 25, "rt": 1572, "response": "Beta"}, "26": {"stimulus": 1437, "trial": 26, "rt": 2435, "response": "Gamma"}, "27": {"stimulus": 468, "trial": 27, "rt": 974, "response": "Alpha"}, "20": {"stimulus": 2343, "trial": 20, "rt": 3158, "response": "Beta"}, "21": {"stimulus": 2499, "trial": 21, "rt": 849, "response": "Beta"}, "22": {"stimulus": 2218, "trial": 22, "rt": 493, "response": "Beta"}, "23": {"stimulus": 437, "trial": 23, "rt": 838, "response": "Alpha"}, "46": {"stimulus": 2405, "trial": 46, "rt": 726, "response": "Beta"}, "47": {"stimulus": 2249, "trial": 47, "rt": 710, "response": "Beta"}, "44": {"stimulus": 1249, "trial": 44, "rt": 1259, "response": "Gamma"}, "45": {"stimulus": 1062, "trial": 45, "rt": 1046, "response": "Gamma"}, "28": {"stimulus": 1374, "trial": 28, "rt": 1197, "response": "Gamma"}, "29": {"stimulus": 1468, "trial": 29, "rt": 1078, "response": "Gamma"}, "40": {"stimulus": 374, "trial": 40, "rt": 804, "response": "Alpha"}, "41": {"stimulus": 718, "trial": 41, "rt": 1676, "response": "Alpha"}, "1": {"stimulus": 1749, "trial": 1, "rt": 3282, "response": "Gamma"}, "0": {"stimulus": 1968, "trial": 0, "rt": 3441, "response": "Gamma"}, "3": {"stimulus": 1843, "trial": 3, "rt": 1189, "response": "Gamma"}, "2": {"stimulus": 155, "trial": 2, "rt": 1084, "response": "Alpha"}, "5": {"stimulus": 530, "trial": 5, "rt": 744, "response": "Alpha"}, "4": {"stimulus": 593, "trial": 4, "rt": 1216, "response": "Alpha"}, "7": {"stimulus": 2093, "trial": 7, "rt": 2032, "response": "Gamma"}, "6": {"stimulus": 562, "trial": 6, "rt": 515, "response": "Alpha"}, "9": {"stimulus": 1655, "trial": 9, "rt": 1884, "response": "Gamma"}, "8": {"stimulus": 62, "trial": 8, "rt": 1024, "response": "Alpha"}, "78": {"stimulus": 1874, "trial": 78, "rt": 1007, "response": "Beta"}, "51": {"stimulus": 905, "trial": 51, "rt": 2834, "response": "Alpha"}, "39": {"stimulus": 1530, "trial": 39, "rt": 933, "response": "Gamma"}, "65": {"stimulus": 843, "trial": 65, "rt": 1256, "response": "Gamma"}, "76": {"stimulus": 2062, "trial": 76, "rt": 854, "response": "Beta"}, "75": {"stimulus": 124, "trial": 75, "rt": 632, "response": "Alpha"}, "38": {"stimulus": 1155, "trial": 38, "rt": 1418, "response": "Gamma"}, "73": {"stimulus": 874, "trial": 73, "rt": 1200, "response": "Gamma"}, "72": {"stimulus": 937, "trial": 72, "rt": 1971, "response": "Gamma"}, "71": {"stimulus": 655, "trial": 71, "rt": 563, "response": "Alpha"}, "70": {"stimulus": 687, "trial": 70, "rt": 838, "response": "Alpha"}, "59": {"stimulus": 249, "trial": 59, "rt": 807, "response": "Alpha"}, "79": {"stimulus": 187, "trial": 79, "rt": 890, "response": "Alpha"}, "58": {"stimulus": 2312, "trial": 58, "rt": 681, "response": "Beta"}, "11": {"stimulus": 218, "trial": 11, "rt": 888, "response": "Alpha"}, "10": {"stimulus": 1937, "trial": 10, "rt": 877, "response": "Gamma"}, "13": {"stimulus": 1343, "trial": 13, "rt": 2582, "response": "Gamma"}, "12": {"stimulus": 2030, "trial": 12, "rt": 2084, "response": "Gamma"}, "15": {"stimulus": 999, "trial": 15, "rt": 920, "response": "Alpha"}, "14": {"stimulus": 1593, "trial": 14, "rt": 2522, "response": "Alpha"}, "17": {"stimulus": 2155, "trial": 17, "rt": 1320, "response": "Beta"}, "16": {"stimulus": 1624, "trial": 16, "rt": 1102, "response": "Gamma"}, "19": {"stimulus": 780, "trial": 19, "rt": 1649, "response": "Alpha"}, "18": {"stimulus": 0, "trial": 18, "rt": 923, "response": "Alpha"}, "31": {"stimulus": 1187, "trial": 31, "rt": 928, "response": "Gamma"}, "30": {"stimulus": 2187, "trial": 30, "rt": 890, "response": "Beta"}, "37": {"stimulus": 1124, "trial": 37, "rt": 1382, "response": "Gamma"}, "36": {"stimulus": 1562, "trial": 36, "rt": 891, "response": "Gamma"}, "35": {"stimulus": 1718, "trial": 35, "rt": 1673, "response": "Gamma"}, "34": {"stimulus": 2124, "trial": 34, "rt": 818, "response": "Beta"}, "33": {"stimulus": 343, "trial": 33, "rt": 840, "response": "Alpha"}, "55": {"stimulus": 30, "trial": 55, "rt": 533, "response": "Alpha"}, "74": {"stimulus": 280, "trial": 74, "rt": 830, "response": "Alpha"}, "32": {"stimulus": 1280, "trial": 32, "rt": 625, "response": "Gamma"}, "57": {"stimulus": 1499, "trial": 57, "rt": 1718, "response": "Gamma"}, "50": {"stimulus": 2468, "trial": 50, "rt": 511, "response": "Beta"}}, "experiment": {"Paradigm": "TACL", "Stimuli": "Size-Color Squares", "Experiment": "Generating-Multiple-Categories"}, "submit": {"timeTotal": 313245, "age": "25", "comments": "It was fun. I wonder if my hypotheses were correct!", "sex": "Male"}}