{"info": {"finish": 1548153775766, "participant": 323, "exposed": true, "lab": false, "start": 1548153471327, "counterbalance": 1, "gentype": 1, "condition": "Cluster", "browser": {"platform": "Win32", "userAgent": "Mozilla/5.0 (Windows NT 6.1) AppleWebKit/537.36 (KHTML, like Gecko) Chrome/71.0.3578.98 Safari/537.36"}}, "observation": {"11": {"stimulus": 1083, "trial": 11, "rt": 1926}, "10": {"stimulus": 392, "trial": 10, "rt": 1854}, "1": {"stimulus": 392, "trial": 1, "rt": 1997}, "0": {"stimulus": 1083, "trial": 0, "rt": 3196}, "3": {"stimulus": 583, "trial": 3, "rt": 2062}, "2": {"stimulus": 1093, "trial": 2, "rt": 1883}, "5": {"stimulus": 1083, "trial": 5, "rt": 1924}, "4": {"stimulus": 1093, "trial": 4, "rt": 1740}, "7": {"stimulus": 392, "trial": 7, "rt": 2246}, "6": {"stimulus": 583, "trial": 6, "rt": 2024}, "9": {"stimulus": 1093, "trial": 9, "rt": 1932}, "8": {"stimulus": 583, "trial": 8, "rt": 2092}}, "generation": {"1": {"category": "Beta", "trial": 1, "stimulus": 2306, "rt": 9040}, "0": {"category": "Beta", "trial": 0, "stimulus": 2459, "rt": 29330}, "3": {"category": "Beta", "trial": 3, "stimulus": 2305, "rt": 5375}, "2": {"category": "Beta", "trial": 2, "stimulus": 2156, "rt": 6070}, "5": {"category": "Beta", "trial": 5, "stimulus": 2405, "rt": 5116}, "4": {"category": "Beta", "trial": 4, "stimulus": 2105, "rt": 5884}, "7": {"category": "Beta", "trial": 7, "stimulus": 2254, "rt": 3616}, "6": {"category": "Beta", "trial": 6, "stimulus": 2304, "rt": 5214}}, "generalization": {"56": {"stimulus": 2280, "trial": 56, "rt": 605, "response": "Beta"}, "77": {"stimulus": 2468, "trial": 77, "rt": 812, "response": "Beta"}, "54": {"stimulus": 655, "trial": 54, "rt": 560, "response": "Alpha"}, "42": {"stimulus": 2030, "trial": 42, "rt": 545, "response": "Beta"}, "48": {"stimulus": 2093, "trial": 48, "rt": 721, "response": "Beta"}, "43": {"stimulus": 1749, "trial": 43, "rt": 664, "response": "Beta"}, "60": {"stimulus": 1343, "trial": 60, "rt": 552, "response": "Alpha"}, "61": {"stimulus": 1874, "trial": 61, "rt": 700, "response": "Beta"}, "62": {"stimulus": 2437, "trial": 62, "rt": 579, "response": "Beta"}, "63": {"stimulus": 812, "trial": 63, "rt": 739, "response": "Alpha"}, "64": {"stimulus": 843, "trial": 64, "rt": 579, "response": "Alpha"}, "49": {"stimulus": 968, "trial": 49, "rt": 948, "response": "Alpha"}, "66": {"stimulus": 530, "trial": 66, "rt": 515, "response": "Alpha"}, "67": {"stimulus": 1593, "trial": 67, "rt": 869, "response": "Alpha"}, "68": {"stimulus": 312, "trial": 68, "rt": 594, "response": "Alpha"}, "69": {"stimulus": 1437, "trial": 69, "rt": 835, "response": "Alpha"}, "80": {"stimulus": 1655, "trial": 80, "rt": 1448, "response": "Beta"}, "52": {"stimulus": 2499, "trial": 52, "rt": 458, "response": "Beta"}, "53": {"stimulus": 249, "trial": 53, "rt": 908, "response": "Alpha"}, "24": {"stimulus": 1062, "trial": 24, "rt": 691, "response": "Alpha"}, "25": {"stimulus": 2374, "trial": 25, "rt": 785, "response": "Beta"}, "26": {"stimulus": 124, "trial": 26, "rt": 717, "response": "Alpha"}, "27": {"stimulus": 187, "trial": 27, "rt": 559, "response": "Alpha"}, "20": {"stimulus": 1905, "trial": 20, "rt": 672, "response": "Beta"}, "21": {"stimulus": 1530, "trial": 21, "rt": 721, "response": "Beta"}, "22": {"stimulus": 2124, "trial": 22, "rt": 609, "response": "Beta"}, "23": {"stimulus": 562, "trial": 23, "rt": 784, "response": "Alpha"}, "46": {"stimulus": 2249, "trial": 46, "rt": 730, "response": "Beta"}, "47": {"stimulus": 405, "trial": 47, "rt": 658, "response": "Alpha"}, "44": {"stimulus": 62, "trial": 44, "rt": 689, "response": "Alpha"}, "45": {"stimulus": 1187, "trial": 45, "rt": 1368, "response": "Alpha"}, "28": {"stimulus": 499, "trial": 28, "rt": 470, "response": "Alpha"}, "29": {"stimulus": 2187, "trial": 29, "rt": 763, "response": "Beta"}, "40": {"stimulus": 905, "trial": 40, "rt": 1017, "response": "Alpha"}, "41": {"stimulus": 1812, "trial": 41, "rt": 950, "response": "Beta"}, "1": {"stimulus": 1374, "trial": 1, "rt": 1356, "response": "Alpha"}, "0": {"stimulus": 218, "trial": 0, "rt": 1758, "response": "Alpha"}, "3": {"stimulus": 343, "trial": 3, "rt": 461, "response": "Alpha"}, "2": {"stimulus": 687, "trial": 2, "rt": 831, "response": "Alpha"}, "5": {"stimulus": 1218, "trial": 5, "rt": 685, "response": "Alpha"}, "4": {"stimulus": 624, "trial": 4, "rt": 470, "response": "Alpha"}, "7": {"stimulus": 468, "trial": 7, "rt": 569, "response": "Alpha"}, "6": {"stimulus": 1249, "trial": 6, "rt": 971, "response": "Alpha"}, "9": {"stimulus": 2312, "trial": 9, "rt": 1284, "response": "Beta"}, "8": {"stimulus": 280, "trial": 8, "rt": 467, "response": "Alpha"}, "78": {"stimulus": 780, "trial": 78, "rt": 950, "response": "Alpha"}, "51": {"stimulus": 2218, "trial": 51, "rt": 464, "response": "Beta"}, "39": {"stimulus": 718, "trial": 39, "rt": 776, "response": "Alpha"}, "65": {"stimulus": 749, "trial": 65, "rt": 568, "response": "Alpha"}, "76": {"stimulus": 937, "trial": 76, "rt": 1042, "response": "Alpha"}, "75": {"stimulus": 1124, "trial": 75, "rt": 790, "response": "Alpha"}, "38": {"stimulus": 1687, "trial": 38, "rt": 2160, "response": "Beta"}, "73": {"stimulus": 2405, "trial": 73, "rt": 566, "response": "Beta"}, "72": {"stimulus": 1718, "trial": 72, "rt": 751, "response": "Beta"}, "71": {"stimulus": 1937, "trial": 71, "rt": 718, "response": "Beta"}, "70": {"stimulus": 1499, "trial": 70, "rt": 852, "response": "Alpha"}, "59": {"stimulus": 1030, "trial": 59, "rt": 733, "response": "Alpha"}, "79": {"stimulus": 374, "trial": 79, "rt": 514, "response": "Alpha"}, "58": {"stimulus": 1093, "trial": 58, "rt": 779, "response": "Alpha"}, "11": {"stimulus": 437, "trial": 11, "rt": 648, "response": "Alpha"}, "10": {"stimulus": 1405, "trial": 10, "rt": 1268, "response": "Alpha"}, "13": {"stimulus": 2155, "trial": 13, "rt": 778, "response": "Beta"}, "12": {"stimulus": 0, "trial": 12, "rt": 510, "response": "Alpha"}, "15": {"stimulus": 593, "trial": 15, "rt": 1046, "response": "Alpha"}, "14": {"stimulus": 874, "trial": 14, "rt": 1148, "response": "Alpha"}, "17": {"stimulus": 1280, "trial": 17, "rt": 820, "response": "Alpha"}, "16": {"stimulus": 1468, "trial": 16, "rt": 2678, "response": "Alpha"}, "19": {"stimulus": 1624, "trial": 19, "rt": 638, "response": "Beta"}, "18": {"stimulus": 1968, "trial": 18, "rt": 611, "response": "Beta"}, "31": {"stimulus": 1843, "trial": 31, "rt": 1153, "response": "Beta"}, "30": {"stimulus": 2062, "trial": 30, "rt": 691, "response": "Beta"}, "37": {"stimulus": 2343, "trial": 37, "rt": 766, "response": "Beta"}, "36": {"stimulus": 155, "trial": 36, "rt": 826, "response": "Alpha"}, "35": {"stimulus": 999, "trial": 35, "rt": 968, "response": "Alpha"}, "34": {"stimulus": 93, "trial": 34, "rt": 665, "response": "Alpha"}, "33": {"stimulus": 1312, "trial": 33, "rt": 1026, "response": "Alpha"}, "55": {"stimulus": 1780, "trial": 55, "rt": 797, "response": "Beta"}, "74": {"stimulus": 30, "trial": 74, "rt": 976, "response": "Alpha"}, "32": {"stimulus": 1155, "trial": 32, "rt": 1344, "response": "Alpha"}, "57": {"stimulus": 1562, "trial": 57, "rt": 2110, "response": "Beta"}, "50": {"stimulus": 1999, "trial": 50, "rt": 697, "response": "Beta"}}, "experiment": {"Paradigm": "TACL", "Stimuli": "Size-Color Squares", "Experiment": "Generating-Multiple-Categories"}, "submit": {"timeTotal": 305244, "age": "32", "comments": "none", "sex": "Female"}}