{"info": {"finish": 1548155347802, "participant": 324, "exposed": true, "lab": false, "start": 1548154952665, "counterbalance": 4, "gentype": 1, "condition": "XOR", "browser": {"platform": "Win32", "userAgent": "Mozilla/5.0 (Windows NT 6.3; Win64; x64) AppleWebKit/537.36 (KHTML, like Gecko) Chrome/71.0.3578.98 Safari/537.36"}}, "observation": {"11": {"stimulus": 1479, "trial": 11, "rt": 2288}, "10": {"stimulus": 818, "trial": 10, "rt": 2335}, "1": {"stimulus": 1479, "trial": 1, "rt": 3939}, "0": {"stimulus": 403, "trial": 0, "rt": 4872}, "3": {"stimulus": 818, "trial": 3, "rt": 2220}, "2": {"stimulus": 1890, "trial": 2, "rt": 2416}, "5": {"stimulus": 818, "trial": 5, "rt": 3400}, "4": {"stimulus": 1479, "trial": 4, "rt": 2140}, "7": {"stimulus": 403, "trial": 7, "rt": 3255}, "6": {"stimulus": 1890, "trial": 6, "rt": 6919}, "9": {"stimulus": 1890, "trial": 9, "rt": 9620}, "8": {"stimulus": 403, "trial": 8, "rt": 19687}}, "generation": {"1": {"category": "Beta", "trial": 1, "stimulus": 778, "rt": 5327}, "0": {"category": "Beta", "trial": 0, "stimulus": 1334, "rt": 6903}, "3": {"category": "Beta", "trial": 3, "stimulus": 1183, "rt": 8170}, "2": {"category": "Beta", "trial": 2, "stimulus": 969, "rt": 7440}, "5": {"category": "Beta", "trial": 5, "stimulus": 1028, "rt": 7026}, "4": {"category": "Beta", "trial": 4, "stimulus": 463, "rt": 7015}, "7": {"category": "Beta", "trial": 7, "stimulus": 1173, "rt": 9001}, "6": {"category": "Beta", "trial": 6, "stimulus": 1280, "rt": 9604}}, "generalization": {"56": {"stimulus": 1999, "trial": 56, "rt": 909, "response": "Alpha"}, "77": {"stimulus": 468, "trial": 77, "rt": 6678, "response": "Beta"}, "54": {"stimulus": 374, "trial": 54, "rt": 1410, "response": "Alpha"}, "42": {"stimulus": 1624, "trial": 42, "rt": 1385, "response": "Alpha"}, "48": {"stimulus": 1249, "trial": 48, "rt": 2980, "response": "Alpha"}, "43": {"stimulus": 687, "trial": 43, "rt": 1084, "response": "Alpha"}, "60": {"stimulus": 62, "trial": 60, "rt": 1759, "response": "Beta"}, "61": {"stimulus": 1874, "trial": 61, "rt": 2313, "response": "Beta"}, "62": {"stimulus": 343, "trial": 62, "rt": 1705, "response": "Alpha"}, "63": {"stimulus": 1843, "trial": 63, "rt": 1271, "response": "Alpha"}, "64": {"stimulus": 1343, "trial": 64, "rt": 1741, "response": "Alpha"}, "49": {"stimulus": 30, "trial": 49, "rt": 2239, "response": "Alpha"}, "66": {"stimulus": 1655, "trial": 66, "rt": 1470, "response": "Beta"}, "67": {"stimulus": 1968, "trial": 67, "rt": 3275, "response": "Beta"}, "68": {"stimulus": 530, "trial": 68, "rt": 1300, "response": "Alpha"}, "69": {"stimulus": 2468, "trial": 69, "rt": 3000, "response": "Alpha"}, "80": {"stimulus": 2280, "trial": 80, "rt": 1180, "response": "Alpha"}, "52": {"stimulus": 1468, "trial": 52, "rt": 1824, "response": "Alpha"}, "53": {"stimulus": 780, "trial": 53, "rt": 1011, "response": "Alpha"}, "24": {"stimulus": 718, "trial": 24, "rt": 1759, "response": "Alpha"}, "25": {"stimulus": 437, "trial": 25, "rt": 1111, "response": "Alpha"}, "26": {"stimulus": 1562, "trial": 26, "rt": 1999, "response": "Beta"}, "27": {"stimulus": 1405, "trial": 27, "rt": 1841, "response": "Beta"}, "20": {"stimulus": 874, "trial": 20, "rt": 1168, "response": "Alpha"}, "21": {"stimulus": 1812, "trial": 21, "rt": 1951, "response": "Beta"}, "22": {"stimulus": 93, "trial": 22, "rt": 965, "response": "Alpha"}, "23": {"stimulus": 812, "trial": 23, "rt": 2170, "response": "Beta"}, "46": {"stimulus": 905, "trial": 46, "rt": 1352, "response": "Beta"}, "47": {"stimulus": 655, "trial": 47, "rt": 1539, "response": "Beta"}, "44": {"stimulus": 1905, "trial": 44, "rt": 1398, "response": "Beta"}, "45": {"stimulus": 1937, "trial": 45, "rt": 1499, "response": "Alpha"}, "28": {"stimulus": 218, "trial": 28, "rt": 1868, "response": "Beta"}, "29": {"stimulus": 2437, "trial": 29, "rt": 971, "response": "Alpha"}, "40": {"stimulus": 1062, "trial": 40, "rt": 1698, "response": "Beta"}, "41": {"stimulus": 2062, "trial": 41, "rt": 1469, "response": "Beta"}, "1": {"stimulus": 499, "trial": 1, "rt": 2196, "response": "Alpha"}, "0": {"stimulus": 562, "trial": 0, "rt": 3924, "response": "Alpha"}, "3": {"stimulus": 249, "trial": 3, "rt": 2879, "response": "Alpha"}, "2": {"stimulus": 843, "trial": 2, "rt": 1732, "response": "Alpha"}, "5": {"stimulus": 1187, "trial": 5, "rt": 2007, "response": "Alpha"}, "4": {"stimulus": 2218, "trial": 4, "rt": 1398, "response": "Alpha"}, "7": {"stimulus": 2405, "trial": 7, "rt": 1067, "response": "Alpha"}, "6": {"stimulus": 0, "trial": 6, "rt": 1576, "response": "Alpha"}, "9": {"stimulus": 187, "trial": 9, "rt": 658, "response": "Alpha"}, "8": {"stimulus": 2187, "trial": 8, "rt": 832, "response": "Beta"}, "78": {"stimulus": 1780, "trial": 78, "rt": 6830, "response": "Alpha"}, "51": {"stimulus": 2374, "trial": 51, "rt": 2846, "response": "Alpha"}, "39": {"stimulus": 1593, "trial": 39, "rt": 1164, "response": "Alpha"}, "65": {"stimulus": 624, "trial": 65, "rt": 1907, "response": "Alpha"}, "76": {"stimulus": 593, "trial": 76, "rt": 3489, "response": "Alpha"}, "75": {"stimulus": 1749, "trial": 75, "rt": 3047, "response": "Alpha"}, "38": {"stimulus": 1374, "trial": 38, "rt": 1324, "response": "Alpha"}, "73": {"stimulus": 968, "trial": 73, "rt": 4304, "response": "Beta"}, "72": {"stimulus": 999, "trial": 72, "rt": 7674, "response": "Alpha"}, "71": {"stimulus": 1437, "trial": 71, "rt": 2342, "response": "Alpha"}, "70": {"stimulus": 1030, "trial": 70, "rt": 1919, "response": "Alpha"}, "59": {"stimulus": 124, "trial": 59, "rt": 4391, "response": "Alpha"}, "79": {"stimulus": 2093, "trial": 79, "rt": 1064, "response": "Alpha"}, "58": {"stimulus": 1687, "trial": 58, "rt": 1361, "response": "Alpha"}, "11": {"stimulus": 2343, "trial": 11, "rt": 971, "response": "Alpha"}, "10": {"stimulus": 2124, "trial": 10, "rt": 1050, "response": "Alpha"}, "13": {"stimulus": 2312, "trial": 13, "rt": 658, "response": "Alpha"}, "12": {"stimulus": 1155, "trial": 12, "rt": 1129, "response": "Beta"}, "15": {"stimulus": 1124, "trial": 15, "rt": 734, "response": "Beta"}, "14": {"stimulus": 405, "trial": 14, "rt": 960, "response": "Alpha"}, "17": {"stimulus": 1312, "trial": 17, "rt": 1676, "response": "Beta"}, "16": {"stimulus": 1499, "trial": 16, "rt": 351, "response": "Alpha"}, "19": {"stimulus": 312, "trial": 19, "rt": 2117, "response": "Beta"}, "18": {"stimulus": 1530, "trial": 18, "rt": 1011, "response": "Alpha"}, "31": {"stimulus": 2155, "trial": 31, "rt": 1839, "response": "Beta"}, "30": {"stimulus": 155, "trial": 30, "rt": 1325, "response": "Beta"}, "37": {"stimulus": 749, "trial": 37, "rt": 1678, "response": "Alpha"}, "36": {"stimulus": 1718, "trial": 36, "rt": 1740, "response": "Beta"}, "35": {"stimulus": 2030, "trial": 35, "rt": 1547, "response": "Alpha"}, "34": {"stimulus": 1280, "trial": 34, "rt": 1946, "response": "Alpha"}, "33": {"stimulus": 280, "trial": 33, "rt": 1240, "response": "Alpha"}, "55": {"stimulus": 2499, "trial": 55, "rt": 1407, "response": "Alpha"}, "74": {"stimulus": 1093, "trial": 74, "rt": 2780, "response": "Alpha"}, "32": {"stimulus": 937, "trial": 32, "rt": 1070, "response": "Alpha"}, "57": {"stimulus": 1218, "trial": 57, "rt": 1348, "response": "Alpha"}, "50": {"stimulus": 2249, "trial": 50, "rt": 2647, "response": "Alpha"}}, "experiment": {"Paradigm": "TACL", "Stimuli": "Size-Color Squares", "Experiment": "Generating-Multiple-Categories"}, "submit": {"timeTotal": 395284, "age": "30", "comments": "GOOD", "sex": "MALE"}}