{"info": {"finish": 1548155818458, "participant": 325, "exposed": true, "lab": false, "start": 1548155040594, "counterbalance": 7, "gentype": 0, "condition": "Row", "browser": {"platform": "Win32", "userAgent": "Mozilla/5.0 (Windows NT 6.1; Win64; x64) AppleWebKit/537.36 (KHTML, like Gecko) Chrome/71.0.3578.98 Safari/537.36"}}, "observation": {"11": {"stimulus": 582, "trial": 11, "rt": 1479}, "10": {"stimulus": 612, "trial": 10, "rt": 1386}, "1": {"stimulus": 421, "trial": 1, "rt": 2007}, "0": {"stimulus": 612, "trial": 0, "rt": 2351}, "3": {"stimulus": 582, "trial": 3, "rt": 1487}, "2": {"stimulus": 493, "trial": 2, "rt": 2050}, "5": {"stimulus": 582, "trial": 5, "rt": 1447}, "4": {"stimulus": 493, "trial": 4, "rt": 1450}, "7": {"stimulus": 612, "trial": 7, "rt": 1519}, "6": {"stimulus": 421, "trial": 6, "rt": 1430}, "9": {"stimulus": 421, "trial": 9, "rt": 1649}, "8": {"stimulus": 493, "trial": 8, "rt": 1456}}, "generation": {"1": {"category": "Not-Alpha", "trial": 1, "stimulus": 0, "rt": 5813}, "0": {"category": "Not-Alpha", "trial": 0, "stimulus": 2400, "rt": 9176}, "3": {"category": "Not-Alpha", "trial": 3, "stimulus": 2483, "rt": 4822}, "2": {"category": "Not-Alpha", "trial": 2, "stimulus": 1450, "rt": 4853}, "5": {"category": "Not-Alpha", "trial": 5, "stimulus": 2486, "rt": 7445}, "4": {"category": "Not-Alpha", "trial": 4, "stimulus": 7, "rt": 6423}, "7": {"category": "Not-Alpha", "trial": 7, "stimulus": 2499, "rt": 5479}, "6": {"category": "Not-Alpha", "trial": 6, "stimulus": 34, "rt": 5655}}, "generalization": {"56": {"stimulus": 1312, "trial": 56, "rt": 2253, "response": "Beta"}, "77": {"stimulus": 1593, "trial": 77, "rt": 3242, "response": "Alpha"}, "54": {"stimulus": 405, "trial": 54, "rt": 2147, "response": "Beta"}, "42": {"stimulus": 937, "trial": 42, "rt": 1234, "response": "Beta"}, "48": {"stimulus": 1562, "trial": 48, "rt": 1612, "response": "Alpha"}, "43": {"stimulus": 1124, "trial": 43, "rt": 1281, "response": "Beta"}, "60": {"stimulus": 593, "trial": 60, "rt": 1466, "response": "Alpha"}, "61": {"stimulus": 2155, "trial": 61, "rt": 754, "response": "Beta"}, "62": {"stimulus": 1843, "trial": 62, "rt": 3470, "response": "Alpha"}, "63": {"stimulus": 1499, "trial": 63, "rt": 1203, "response": "Alpha"}, "64": {"stimulus": 2468, "trial": 64, "rt": 1113, "response": "Beta"}, "49": {"stimulus": 2499, "trial": 49, "rt": 1014, "response": "Beta"}, "66": {"stimulus": 968, "trial": 66, "rt": 1592, "response": "Alpha"}, "67": {"stimulus": 1655, "trial": 67, "rt": 690, "response": "Beta"}, "68": {"stimulus": 562, "trial": 68, "rt": 2103, "response": "Alpha"}, "69": {"stimulus": 1812, "trial": 69, "rt": 6901, "response": "Beta"}, "80": {"stimulus": 1280, "trial": 80, "rt": 959, "response": "Alpha"}, "52": {"stimulus": 218, "trial": 52, "rt": 2697, "response": "Alpha"}, "53": {"stimulus": 1687, "trial": 53, "rt": 1777, "response": "Beta"}, "24": {"stimulus": 343, "trial": 24, "rt": 881, "response": "Alpha"}, "25": {"stimulus": 374, "trial": 25, "rt": 2774, "response": "Beta"}, "26": {"stimulus": 1093, "trial": 26, "rt": 6041, "response": "Alpha"}, "27": {"stimulus": 93, "trial": 27, "rt": 610, "response": "Alpha"}, "20": {"stimulus": 530, "trial": 20, "rt": 1338, "response": "Beta"}, "21": {"stimulus": 437, "trial": 21, "rt": 1269, "response": "Beta"}, "22": {"stimulus": 1968, "trial": 22, "rt": 4482, "response": "Beta"}, "23": {"stimulus": 1530, "trial": 23, "rt": 1566, "response": "Beta"}, "46": {"stimulus": 468, "trial": 46, "rt": 2782, "response": "Alpha"}, "47": {"stimulus": 1218, "trial": 47, "rt": 1078, "response": "Alpha"}, "44": {"stimulus": 2312, "trial": 44, "rt": 669, "response": "Beta"}, "45": {"stimulus": 655, "trial": 45, "rt": 1531, "response": "Beta"}, "28": {"stimulus": 843, "trial": 28, "rt": 804, "response": "Alpha"}, "29": {"stimulus": 2124, "trial": 29, "rt": 1092, "response": "Beta"}, "40": {"stimulus": 687, "trial": 40, "rt": 1427, "response": "Beta"}, "41": {"stimulus": 1437, "trial": 41, "rt": 2214, "response": "Beta"}, "1": {"stimulus": 1187, "trial": 1, "rt": 1668, "response": "Beta"}, "0": {"stimulus": 2062, "trial": 0, "rt": 1708, "response": "Beta"}, "3": {"stimulus": 2343, "trial": 3, "rt": 933, "response": "Beta"}, "2": {"stimulus": 187, "trial": 2, "rt": 2859, "response": "Beta"}, "5": {"stimulus": 624, "trial": 5, "rt": 1294, "response": "Alpha"}, "4": {"stimulus": 2030, "trial": 4, "rt": 825, "response": "Beta"}, "7": {"stimulus": 1405, "trial": 7, "rt": 1795, "response": "Beta"}, "6": {"stimulus": 1468, "trial": 6, "rt": 995, "response": "Alpha"}, "9": {"stimulus": 312, "trial": 9, "rt": 2457, "response": "Alpha"}, "8": {"stimulus": 1155, "trial": 8, "rt": 1598, "response": "Alpha"}, "78": {"stimulus": 1624, "trial": 78, "rt": 2159, "response": "Alpha"}, "51": {"stimulus": 718, "trial": 51, "rt": 1660, "response": "Alpha"}, "39": {"stimulus": 1999, "trial": 39, "rt": 2257, "response": "Beta"}, "65": {"stimulus": 249, "trial": 65, "rt": 1166, "response": "Alpha"}, "76": {"stimulus": 280, "trial": 76, "rt": 2460, "response": "Alpha"}, "75": {"stimulus": 2187, "trial": 75, "rt": 1159, "response": "Beta"}, "38": {"stimulus": 0, "trial": 38, "rt": 1040, "response": "Beta"}, "73": {"stimulus": 1749, "trial": 73, "rt": 1256, "response": "Beta"}, "72": {"stimulus": 1062, "trial": 72, "rt": 797, "response": "Alpha"}, "71": {"stimulus": 30, "trial": 71, "rt": 1552, "response": "Alpha"}, "70": {"stimulus": 2093, "trial": 70, "rt": 1147, "response": "Beta"}, "59": {"stimulus": 2437, "trial": 59, "rt": 803, "response": "Beta"}, "79": {"stimulus": 749, "trial": 79, "rt": 712, "response": "Alpha"}, "58": {"stimulus": 499, "trial": 58, "rt": 2013, "response": "Alpha"}, "11": {"stimulus": 1374, "trial": 11, "rt": 1092, "response": "Beta"}, "10": {"stimulus": 2280, "trial": 10, "rt": 1529, "response": "Beta"}, "13": {"stimulus": 905, "trial": 13, "rt": 3476, "response": "Beta"}, "12": {"stimulus": 2374, "trial": 12, "rt": 1224, "response": "Beta"}, "15": {"stimulus": 1249, "trial": 15, "rt": 797, "response": "Alpha"}, "14": {"stimulus": 2405, "trial": 14, "rt": 960, "response": "Beta"}, "17": {"stimulus": 780, "trial": 17, "rt": 1171, "response": "Alpha"}, "16": {"stimulus": 1718, "trial": 16, "rt": 1507, "response": "Alpha"}, "19": {"stimulus": 62, "trial": 19, "rt": 1432, "response": "Beta"}, "18": {"stimulus": 812, "trial": 18, "rt": 814, "response": "Alpha"}, "31": {"stimulus": 2249, "trial": 31, "rt": 1291, "response": "Beta"}, "30": {"stimulus": 874, "trial": 30, "rt": 1505, "response": "Alpha"}, "37": {"stimulus": 1905, "trial": 37, "rt": 766, "response": "Beta"}, "36": {"stimulus": 124, "trial": 36, "rt": 830, "response": "Alpha"}, "35": {"stimulus": 1874, "trial": 35, "rt": 2633, "response": "Beta"}, "34": {"stimulus": 155, "trial": 34, "rt": 818, "response": "Beta"}, "33": {"stimulus": 1780, "trial": 33, "rt": 2810, "response": "Alpha"}, "55": {"stimulus": 1030, "trial": 55, "rt": 2113, "response": "Alpha"}, "74": {"stimulus": 1937, "trial": 74, "rt": 1129, "response": "Beta"}, "32": {"stimulus": 1343, "trial": 32, "rt": 831, "response": "Alpha"}, "57": {"stimulus": 2218, "trial": 57, "rt": 761, "response": "Beta"}, "50": {"stimulus": 999, "trial": 50, "rt": 1017, "response": "Alpha"}}, "experiment": {"Paradigm": "TACL", "Stimuli": "Size-Color Squares", "Experiment": "Generating-Multiple-Categories"}, "submit": {"timeTotal": 778058, "age": "27", "comments": "", "sex": "Male"}}