{"info": {"finish": 1548156516646, "participant": 326, "exposed": true, "lab": false, "start": 1548156098255, "counterbalance": 6, "gentype": 0, "condition": "XOR", "browser": {"platform": "Win32", "userAgent": "Mozilla/5.0 (Windows NT 6.3; Win64; x64) AppleWebKit/537.36 (KHTML, like Gecko) Chrome/71.0.3578.98 Safari/537.36"}}, "observation": {"11": {"stimulus": 1890, "trial": 11, "rt": 2351}, "10": {"stimulus": 818, "trial": 10, "rt": 2255}, "1": {"stimulus": 1890, "trial": 1, "rt": 2380}, "0": {"stimulus": 1479, "trial": 0, "rt": 3113}, "3": {"stimulus": 403, "trial": 3, "rt": 3012}, "2": {"stimulus": 818, "trial": 2, "rt": 4521}, "5": {"stimulus": 403, "trial": 5, "rt": 2250}, "4": {"stimulus": 1479, "trial": 4, "rt": 2844}, "7": {"stimulus": 1890, "trial": 7, "rt": 1913}, "6": {"stimulus": 818, "trial": 6, "rt": 2261}, "9": {"stimulus": 403, "trial": 9, "rt": 3652}, "8": {"stimulus": 1479, "trial": 8, "rt": 1838}}, "generation": {"1": {"category": "Not-Alpha", "trial": 1, "stimulus": 977, "rt": 11324}, "0": {"category": "Not-Alpha", "trial": 0, "stimulus": 984, "rt": 16267}, "3": {"category": "Not-Alpha", "trial": 3, "stimulus": 634, "rt": 7696}, "2": {"category": "Not-Alpha", "trial": 2, "stimulus": 885, "rt": 4123}, "5": {"category": "Not-Alpha", "trial": 5, "stimulus": 495, "rt": 15022}, "4": {"category": "Not-Alpha", "trial": 4, "stimulus": 582, "rt": 5379}, "7": {"category": "Not-Alpha", "trial": 7, "stimulus": 686, "rt": 8160}, "6": {"category": "Not-Alpha", "trial": 6, "stimulus": 640, "rt": 7054}}, "generalization": {"56": {"stimulus": 2437, "trial": 56, "rt": 822, "response": "Alpha"}, "77": {"stimulus": 124, "trial": 77, "rt": 1805, "response": "Alpha"}, "54": {"stimulus": 343, "trial": 54, "rt": 1364, "response": "Alpha"}, "42": {"stimulus": 687, "trial": 42, "rt": 2169, "response": "Alpha"}, "48": {"stimulus": 1780, "trial": 48, "rt": 9299, "response": "Alpha"}, "43": {"stimulus": 249, "trial": 43, "rt": 751, "response": "Alpha"}, "60": {"stimulus": 1062, "trial": 60, "rt": 494, "response": "Alpha"}, "61": {"stimulus": 1593, "trial": 61, "rt": 511, "response": "Alpha"}, "62": {"stimulus": 2218, "trial": 62, "rt": 192, "response": "Alpha"}, "63": {"stimulus": 218, "trial": 63, "rt": 1300, "response": "Alpha"}, "64": {"stimulus": 1312, "trial": 64, "rt": 922, "response": "Alpha"}, "49": {"stimulus": 1749, "trial": 49, "rt": 872, "response": "Alpha"}, "66": {"stimulus": 1905, "trial": 66, "rt": 726, "response": "Alpha"}, "67": {"stimulus": 1343, "trial": 67, "rt": 753, "response": "Alpha"}, "68": {"stimulus": 2280, "trial": 68, "rt": 482, "response": "Alpha"}, "69": {"stimulus": 1374, "trial": 69, "rt": 2872, "response": "Alpha"}, "80": {"stimulus": 1530, "trial": 80, "rt": 917, "response": "Alpha"}, "52": {"stimulus": 2499, "trial": 52, "rt": 1295, "response": "Alpha"}, "53": {"stimulus": 843, "trial": 53, "rt": 1192, "response": "Alpha"}, "24": {"stimulus": 1999, "trial": 24, "rt": 682, "response": "Alpha"}, "25": {"stimulus": 2312, "trial": 25, "rt": 5414, "response": "Alpha"}, "26": {"stimulus": 0, "trial": 26, "rt": 1281, "response": "Alpha"}, "27": {"stimulus": 2155, "trial": 27, "rt": 4718, "response": "Alpha"}, "20": {"stimulus": 1655, "trial": 20, "rt": 725, "response": "Alpha"}, "21": {"stimulus": 280, "trial": 21, "rt": 670, "response": "Alpha"}, "22": {"stimulus": 1187, "trial": 22, "rt": 686, "response": "Alpha"}, "23": {"stimulus": 1968, "trial": 23, "rt": 681, "response": "Alpha"}, "46": {"stimulus": 1280, "trial": 46, "rt": 398, "response": "Alpha"}, "47": {"stimulus": 1249, "trial": 47, "rt": 301, "response": "Alpha"}, "44": {"stimulus": 155, "trial": 44, "rt": 1430, "response": "Alpha"}, "45": {"stimulus": 374, "trial": 45, "rt": 785, "response": "Alpha"}, "28": {"stimulus": 718, "trial": 28, "rt": 1132, "response": "Alpha"}, "29": {"stimulus": 2405, "trial": 29, "rt": 5000, "response": "Alpha"}, "40": {"stimulus": 1937, "trial": 40, "rt": 1198, "response": "Alpha"}, "41": {"stimulus": 1124, "trial": 41, "rt": 6336, "response": "Alpha"}, "1": {"stimulus": 1499, "trial": 1, "rt": 4509, "response": "Alpha"}, "0": {"stimulus": 655, "trial": 0, "rt": 3091, "response": "Alpha"}, "3": {"stimulus": 1468, "trial": 3, "rt": 935, "response": "Alpha"}, "2": {"stimulus": 499, "trial": 2, "rt": 1276, "response": "Alpha"}, "5": {"stimulus": 1218, "trial": 5, "rt": 1863, "response": "Alpha"}, "4": {"stimulus": 2093, "trial": 4, "rt": 16851, "response": "Alpha"}, "7": {"stimulus": 780, "trial": 7, "rt": 12445, "response": "Alpha"}, "6": {"stimulus": 2062, "trial": 6, "rt": 1086, "response": "Alpha"}, "9": {"stimulus": 1562, "trial": 9, "rt": 340, "response": "Alpha"}, "8": {"stimulus": 1687, "trial": 8, "rt": 791, "response": "Alpha"}, "78": {"stimulus": 1030, "trial": 78, "rt": 1376, "response": "Alpha"}, "51": {"stimulus": 1812, "trial": 51, "rt": 216, "response": "Alpha"}, "39": {"stimulus": 874, "trial": 39, "rt": 915, "response": "Alpha"}, "65": {"stimulus": 1718, "trial": 65, "rt": 1188, "response": "Alpha"}, "76": {"stimulus": 1624, "trial": 76, "rt": 816, "response": "Alpha"}, "75": {"stimulus": 1874, "trial": 75, "rt": 1000, "response": "Alpha"}, "38": {"stimulus": 312, "trial": 38, "rt": 265, "response": "Alpha"}, "73": {"stimulus": 93, "trial": 73, "rt": 1168, "response": "Alpha"}, "72": {"stimulus": 30, "trial": 72, "rt": 1194, "response": "Alpha"}, "71": {"stimulus": 999, "trial": 71, "rt": 5896, "response": "Alpha"}, "70": {"stimulus": 2124, "trial": 70, "rt": 1506, "response": "Alpha"}, "59": {"stimulus": 937, "trial": 59, "rt": 690, "response": "Alpha"}, "79": {"stimulus": 749, "trial": 79, "rt": 6821, "response": "Alpha"}, "58": {"stimulus": 1437, "trial": 58, "rt": 1587, "response": "Beta"}, "11": {"stimulus": 812, "trial": 11, "rt": 4502, "response": "Alpha"}, "10": {"stimulus": 1843, "trial": 10, "rt": 12382, "response": "Alpha"}, "13": {"stimulus": 437, "trial": 13, "rt": 5952, "response": "Alpha"}, "12": {"stimulus": 593, "trial": 12, "rt": 1150, "response": "Alpha"}, "15": {"stimulus": 187, "trial": 15, "rt": 1159, "response": "Alpha"}, "14": {"stimulus": 1405, "trial": 14, "rt": 3836, "response": "Alpha"}, "17": {"stimulus": 1155, "trial": 17, "rt": 1747, "response": "Alpha"}, "16": {"stimulus": 905, "trial": 16, "rt": 3658, "response": "Alpha"}, "19": {"stimulus": 624, "trial": 19, "rt": 9873, "response": "Alpha"}, "18": {"stimulus": 2187, "trial": 18, "rt": 4388, "response": "Alpha"}, "31": {"stimulus": 2468, "trial": 31, "rt": 5638, "response": "Alpha"}, "30": {"stimulus": 2030, "trial": 30, "rt": 1175, "response": "Alpha"}, "37": {"stimulus": 405, "trial": 37, "rt": 668, "response": "Alpha"}, "36": {"stimulus": 62, "trial": 36, "rt": 3036, "response": "Alpha"}, "35": {"stimulus": 468, "trial": 35, "rt": 1084, "response": "Alpha"}, "34": {"stimulus": 2249, "trial": 34, "rt": 504, "response": "Alpha"}, "33": {"stimulus": 2343, "trial": 33, "rt": 696, "response": "Alpha"}, "55": {"stimulus": 530, "trial": 55, "rt": 1609, "response": "Beta"}, "74": {"stimulus": 2374, "trial": 74, "rt": 791, "response": "Alpha"}, "32": {"stimulus": 968, "trial": 32, "rt": 806, "response": "Alpha"}, "57": {"stimulus": 1093, "trial": 57, "rt": 1319, "response": "Alpha"}, "50": {"stimulus": 562, "trial": 50, "rt": 271, "response": "Alpha"}}, "experiment": {"Paradigm": "TACL", "Stimuli": "Size-Color Squares", "Experiment": "Generating-Multiple-Categories"}, "submit": {"timeTotal": 418589, "age": "35", "comments": "Very well survey.", "sex": "Female"}}