{"info": {"finish": 1548156626902, "participant": 327, "exposed": true, "lab": false, "start": 1548156176519, "counterbalance": 5, "gentype": 1, "condition": "Row", "browser": {"platform": "Win32", "userAgent": "Mozilla/5.0 (Windows NT 6.1) AppleWebKit/537.36 (KHTML, like Gecko) Chrome/71.0.3578.98 Safari/537.36"}}, "observation": {"11": {"stimulus": 612, "trial": 11, "rt": 2724}, "10": {"stimulus": 493, "trial": 10, "rt": 2032}, "1": {"stimulus": 421, "trial": 1, "rt": 3933}, "0": {"stimulus": 493, "trial": 0, "rt": 7682}, "3": {"stimulus": 612, "trial": 3, "rt": 5800}, "2": {"stimulus": 582, "trial": 2, "rt": 3271}, "5": {"stimulus": 582, "trial": 5, "rt": 1936}, "4": {"stimulus": 612, "trial": 4, "rt": 2009}, "7": {"stimulus": 421, "trial": 7, "rt": 3080}, "6": {"stimulus": 493, "trial": 6, "rt": 2022}, "9": {"stimulus": 421, "trial": 9, "rt": 1856}, "8": {"stimulus": 582, "trial": 8, "rt": 1991}}, "generation": {"1": {"category": "Beta", "trial": 1, "stimulus": 922, "rt": 14205}, "0": {"category": "Beta", "trial": 0, "stimulus": 1180, "rt": 125342}, "3": {"category": "Beta", "trial": 3, "stimulus": 944, "rt": 7637}, "2": {"category": "Beta", "trial": 2, "stimulus": 968, "rt": 6591}, "5": {"category": "Beta", "trial": 5, "stimulus": 723, "rt": 7110}, "4": {"category": "Beta", "trial": 4, "stimulus": 593, "rt": 4018}, "7": {"category": "Beta", "trial": 7, "stimulus": 626, "rt": 4080}, "6": {"category": "Beta", "trial": 6, "stimulus": 827, "rt": 5812}}, "generalization": {"56": {"stimulus": 562, "trial": 56, "rt": 871, "response": "Alpha"}, "77": {"stimulus": 499, "trial": 77, "rt": 632, "response": "Beta"}, "54": {"stimulus": 1437, "trial": 54, "rt": 655, "response": "Beta"}, "42": {"stimulus": 1562, "trial": 42, "rt": 12614, "response": "Alpha"}, "48": {"stimulus": 1937, "trial": 48, "rt": 761, "response": "Beta"}, "43": {"stimulus": 1405, "trial": 43, "rt": 789, "response": "Alpha"}, "60": {"stimulus": 1468, "trial": 60, "rt": 1439, "response": "Alpha"}, "61": {"stimulus": 218, "trial": 61, "rt": 2384, "response": "Alpha"}, "62": {"stimulus": 249, "trial": 62, "rt": 1200, "response": "Beta"}, "63": {"stimulus": 1718, "trial": 63, "rt": 726, "response": "Alpha"}, "64": {"stimulus": 1687, "trial": 64, "rt": 817, "response": "Beta"}, "49": {"stimulus": 468, "trial": 49, "rt": 1382, "response": "Alpha"}, "66": {"stimulus": 1905, "trial": 66, "rt": 15879, "response": "Alpha"}, "67": {"stimulus": 2374, "trial": 67, "rt": 1375, "response": "Alpha"}, "68": {"stimulus": 718, "trial": 68, "rt": 567, "response": "Alpha"}, "69": {"stimulus": 843, "trial": 69, "rt": 768, "response": "Beta"}, "80": {"stimulus": 2312, "trial": 80, "rt": 872, "response": "Alpha"}, "52": {"stimulus": 1655, "trial": 52, "rt": 768, "response": "Alpha"}, "53": {"stimulus": 2218, "trial": 53, "rt": 1239, "response": "Alpha"}, "24": {"stimulus": 280, "trial": 24, "rt": 1080, "response": "Beta"}, "25": {"stimulus": 2280, "trial": 25, "rt": 959, "response": "Beta"}, "26": {"stimulus": 937, "trial": 26, "rt": 951, "response": "Beta"}, "27": {"stimulus": 968, "trial": 27, "rt": 1319, "response": "Alpha"}, "20": {"stimulus": 1812, "trial": 20, "rt": 1312, "response": "Alpha"}, "21": {"stimulus": 93, "trial": 21, "rt": 885, "response": "Beta"}, "22": {"stimulus": 1124, "trial": 22, "rt": 1038, "response": "Alpha"}, "23": {"stimulus": 374, "trial": 23, "rt": 2671, "response": "Beta"}, "46": {"stimulus": 30, "trial": 46, "rt": 628, "response": "Beta"}, "47": {"stimulus": 2468, "trial": 47, "rt": 824, "response": "Alpha"}, "44": {"stimulus": 0, "trial": 44, "rt": 488, "response": "Alpha"}, "45": {"stimulus": 593, "trial": 45, "rt": 841, "response": "Beta"}, "28": {"stimulus": 687, "trial": 28, "rt": 780, "response": "Beta"}, "29": {"stimulus": 2499, "trial": 29, "rt": 743, "response": "Beta"}, "40": {"stimulus": 2405, "trial": 40, "rt": 888, "response": "Alpha"}, "41": {"stimulus": 874, "trial": 41, "rt": 1409, "response": "Beta"}, "1": {"stimulus": 2437, "trial": 1, "rt": 1895, "response": "Beta"}, "0": {"stimulus": 405, "trial": 0, "rt": 13220, "response": "Alpha"}, "3": {"stimulus": 1624, "trial": 3, "rt": 1487, "response": "Alpha"}, "2": {"stimulus": 1530, "trial": 2, "rt": 1637, "response": "Beta"}, "5": {"stimulus": 1749, "trial": 5, "rt": 1586, "response": "Beta"}, "4": {"stimulus": 655, "trial": 4, "rt": 1150, "response": "Alpha"}, "7": {"stimulus": 1280, "trial": 7, "rt": 769, "response": "Beta"}, "6": {"stimulus": 2155, "trial": 6, "rt": 2149, "response": "Alpha"}, "9": {"stimulus": 343, "trial": 9, "rt": 829, "response": "Beta"}, "8": {"stimulus": 1062, "trial": 8, "rt": 950, "response": "Alpha"}, "78": {"stimulus": 999, "trial": 78, "rt": 608, "response": "Beta"}, "51": {"stimulus": 1374, "trial": 51, "rt": 871, "response": "Alpha"}, "39": {"stimulus": 1343, "trial": 39, "rt": 877, "response": "Beta"}, "65": {"stimulus": 124, "trial": 65, "rt": 1415, "response": "Alpha"}, "76": {"stimulus": 2124, "trial": 76, "rt": 1416, "response": "Alpha"}, "75": {"stimulus": 1843, "trial": 75, "rt": 552, "response": "Beta"}, "38": {"stimulus": 530, "trial": 38, "rt": 655, "response": "Beta"}, "73": {"stimulus": 812, "trial": 73, "rt": 1007, "response": "Alpha"}, "72": {"stimulus": 905, "trial": 72, "rt": 992, "response": "Alpha"}, "71": {"stimulus": 155, "trial": 71, "rt": 630, "response": "Alpha"}, "70": {"stimulus": 312, "trial": 70, "rt": 744, "response": "Alpha"}, "59": {"stimulus": 1249, "trial": 59, "rt": 831, "response": "Beta"}, "79": {"stimulus": 1187, "trial": 79, "rt": 638, "response": "Beta"}, "58": {"stimulus": 2062, "trial": 58, "rt": 655, "response": "Alpha"}, "11": {"stimulus": 62, "trial": 11, "rt": 1009, "response": "Alpha"}, "10": {"stimulus": 2249, "trial": 10, "rt": 871, "response": "Beta"}, "13": {"stimulus": 1030, "trial": 13, "rt": 1735, "response": "Beta"}, "12": {"stimulus": 1312, "trial": 12, "rt": 565, "response": "Alpha"}, "15": {"stimulus": 1499, "trial": 15, "rt": 1007, "response": "Beta"}, "14": {"stimulus": 1968, "trial": 14, "rt": 894, "response": "Alpha"}, "17": {"stimulus": 1999, "trial": 17, "rt": 578, "response": "Beta"}, "16": {"stimulus": 1093, "trial": 16, "rt": 629, "response": "Beta"}, "19": {"stimulus": 624, "trial": 19, "rt": 863, "response": "Alpha"}, "18": {"stimulus": 2093, "trial": 18, "rt": 703, "response": "Beta"}, "31": {"stimulus": 2343, "trial": 31, "rt": 710, "response": "Beta"}, "30": {"stimulus": 1218, "trial": 30, "rt": 825, "response": "Alpha"}, "37": {"stimulus": 2030, "trial": 37, "rt": 684, "response": "Beta"}, "36": {"stimulus": 1780, "trial": 36, "rt": 1020, "response": "Alpha"}, "35": {"stimulus": 749, "trial": 35, "rt": 816, "response": "Beta"}, "34": {"stimulus": 437, "trial": 34, "rt": 1438, "response": "Beta"}, "33": {"stimulus": 1874, "trial": 33, "rt": 888, "response": "Alpha"}, "55": {"stimulus": 2187, "trial": 55, "rt": 424, "response": "Beta"}, "74": {"stimulus": 780, "trial": 74, "rt": 777, "response": "Beta"}, "32": {"stimulus": 187, "trial": 32, "rt": 1152, "response": "Beta"}, "57": {"stimulus": 1155, "trial": 57, "rt": 1103, "response": "Alpha"}, "50": {"stimulus": 1593, "trial": 50, "rt": 607, "response": "Beta"}}, "experiment": {"Paradigm": "TACL", "Stimuli": "Size-Color Squares", "Experiment": "Generating-Multiple-Categories"}, "submit": {"timeTotal": 451838, "age": "40", "comments": "NICE THIS EXPERIMENT.", "sex": "MALE"}}