{"info": {"finish": 1548156746327, "participant": 329, "exposed": true, "lab": false, "start": 1548156384002, "counterbalance": 7, "gentype": 0, "condition": "Row", "browser": {"platform": "Win32", "userAgent": "Mozilla/5.0 (Windows NT 6.1) AppleWebKit/537.36 (KHTML, like Gecko) Chrome/71.0.3578.98 Safari/537.36"}}, "observation": {"11": {"stimulus": 493, "trial": 11, "rt": 3433}, "10": {"stimulus": 612, "trial": 10, "rt": 8587}, "1": {"stimulus": 582, "trial": 1, "rt": 7014}, "0": {"stimulus": 493, "trial": 0, "rt": 4298}, "3": {"stimulus": 612, "trial": 3, "rt": 4127}, "2": {"stimulus": 421, "trial": 2, "rt": 5814}, "5": {"stimulus": 421, "trial": 5, "rt": 1743}, "4": {"stimulus": 582, "trial": 4, "rt": 4645}, "7": {"stimulus": 493, "trial": 7, "rt": 5808}, "6": {"stimulus": 612, "trial": 6, "rt": 2018}, "9": {"stimulus": 582, "trial": 9, "rt": 4563}, "8": {"stimulus": 421, "trial": 8, "rt": 5105}}, "generation": {"1": {"category": "Not-Alpha", "trial": 1, "stimulus": 1004, "rt": 10368}, "0": {"category": "Not-Alpha", "trial": 0, "stimulus": 1471, "rt": 8740}, "3": {"category": "Not-Alpha", "trial": 3, "stimulus": 1105, "rt": 4078}, "2": {"category": "Not-Alpha", "trial": 2, "stimulus": 1113, "rt": 5535}, "5": {"category": "Not-Alpha", "trial": 5, "stimulus": 908, "rt": 5361}, "4": {"category": "Not-Alpha", "trial": 4, "stimulus": 1265, "rt": 3975}, "7": {"category": "Not-Alpha", "trial": 7, "stimulus": 1363, "rt": 5355}, "6": {"category": "Not-Alpha", "trial": 6, "stimulus": 1670, "rt": 4345}}, "generalization": {"56": {"stimulus": 1374, "trial": 56, "rt": 1534, "response": "Alpha"}, "77": {"stimulus": 780, "trial": 77, "rt": 625, "response": "Alpha"}, "54": {"stimulus": 1062, "trial": 54, "rt": 879, "response": "Alpha"}, "42": {"stimulus": 1999, "trial": 42, "rt": 1431, "response": "Alpha"}, "48": {"stimulus": 905, "trial": 48, "rt": 766, "response": "Alpha"}, "43": {"stimulus": 1593, "trial": 43, "rt": 1591, "response": "Alpha"}, "60": {"stimulus": 2405, "trial": 60, "rt": 942, "response": "Beta"}, "61": {"stimulus": 2499, "trial": 61, "rt": 656, "response": "Alpha"}, "62": {"stimulus": 1843, "trial": 62, "rt": 1179, "response": "Beta"}, "63": {"stimulus": 1624, "trial": 63, "rt": 469, "response": "Alpha"}, "64": {"stimulus": 1405, "trial": 64, "rt": 1420, "response": "Alpha"}, "49": {"stimulus": 1093, "trial": 49, "rt": 1217, "response": "Alpha"}, "66": {"stimulus": 499, "trial": 66, "rt": 1037, "response": "Alpha"}, "67": {"stimulus": 1937, "trial": 67, "rt": 610, "response": "Alpha"}, "68": {"stimulus": 562, "trial": 68, "rt": 751, "response": "Alpha"}, "69": {"stimulus": 1437, "trial": 69, "rt": 685, "response": "Alpha"}, "80": {"stimulus": 2187, "trial": 80, "rt": 1455, "response": "Beta"}, "52": {"stimulus": 405, "trial": 52, "rt": 663, "response": "Alpha"}, "53": {"stimulus": 1530, "trial": 53, "rt": 715, "response": "Alpha"}, "24": {"stimulus": 1687, "trial": 24, "rt": 1448, "response": "Alpha"}, "25": {"stimulus": 2249, "trial": 25, "rt": 710, "response": "Beta"}, "26": {"stimulus": 874, "trial": 26, "rt": 589, "response": "Alpha"}, "27": {"stimulus": 1155, "trial": 27, "rt": 478, "response": "Beta"}, "20": {"stimulus": 2030, "trial": 20, "rt": 1013, "response": "Beta"}, "21": {"stimulus": 30, "trial": 21, "rt": 639, "response": "Alpha"}, "22": {"stimulus": 2468, "trial": 22, "rt": 1928, "response": "Beta"}, "23": {"stimulus": 999, "trial": 23, "rt": 1520, "response": "Alpha"}, "46": {"stimulus": 624, "trial": 46, "rt": 680, "response": "Alpha"}, "47": {"stimulus": 1968, "trial": 47, "rt": 695, "response": "Alpha"}, "44": {"stimulus": 2343, "trial": 44, "rt": 631, "response": "Alpha"}, "45": {"stimulus": 343, "trial": 45, "rt": 544, "response": "Alpha"}, "28": {"stimulus": 1874, "trial": 28, "rt": 1454, "response": "Alpha"}, "29": {"stimulus": 937, "trial": 29, "rt": 30430, "response": "Alpha"}, "40": {"stimulus": 2437, "trial": 40, "rt": 1120, "response": "Beta"}, "41": {"stimulus": 468, "trial": 41, "rt": 812, "response": "Alpha"}, "1": {"stimulus": 1124, "trial": 1, "rt": 1030, "response": "Alpha"}, "0": {"stimulus": 2124, "trial": 0, "rt": 2620, "response": "Alpha"}, "3": {"stimulus": 280, "trial": 3, "rt": 710, "response": "Alpha"}, "2": {"stimulus": 374, "trial": 2, "rt": 682, "response": "Alpha"}, "5": {"stimulus": 218, "trial": 5, "rt": 517, "response": "Alpha"}, "4": {"stimulus": 812, "trial": 4, "rt": 571, "response": "Alpha"}, "7": {"stimulus": 1468, "trial": 7, "rt": 1556, "response": "Alpha"}, "6": {"stimulus": 718, "trial": 6, "rt": 561, "response": "Alpha"}, "9": {"stimulus": 62, "trial": 9, "rt": 583, "response": "Alpha"}, "8": {"stimulus": 655, "trial": 8, "rt": 759, "response": "Alpha"}, "78": {"stimulus": 530, "trial": 78, "rt": 602, "response": "Alpha"}, "51": {"stimulus": 1718, "trial": 51, "rt": 3110, "response": "Alpha"}, "39": {"stimulus": 1187, "trial": 39, "rt": 519, "response": "Alpha"}, "65": {"stimulus": 1562, "trial": 65, "rt": 543, "response": "Alpha"}, "76": {"stimulus": 843, "trial": 76, "rt": 755, "response": "Alpha"}, "75": {"stimulus": 2218, "trial": 75, "rt": 699, "response": "Alpha"}, "38": {"stimulus": 1343, "trial": 38, "rt": 1721, "response": "Alpha"}, "73": {"stimulus": 93, "trial": 73, "rt": 621, "response": "Alpha"}, "72": {"stimulus": 1218, "trial": 72, "rt": 724, "response": "Alpha"}, "71": {"stimulus": 2374, "trial": 71, "rt": 647, "response": "Alpha"}, "70": {"stimulus": 155, "trial": 70, "rt": 1185, "response": "Alpha"}, "59": {"stimulus": 2280, "trial": 59, "rt": 766, "response": "Alpha"}, "79": {"stimulus": 312, "trial": 79, "rt": 623, "response": "Alpha"}, "58": {"stimulus": 687, "trial": 58, "rt": 813, "response": "Alpha"}, "11": {"stimulus": 1780, "trial": 11, "rt": 627, "response": "Alpha"}, "10": {"stimulus": 187, "trial": 10, "rt": 823, "response": "Alpha"}, "13": {"stimulus": 249, "trial": 13, "rt": 551, "response": "Alpha"}, "12": {"stimulus": 593, "trial": 12, "rt": 539, "response": "Alpha"}, "15": {"stimulus": 2062, "trial": 15, "rt": 683, "response": "Alpha"}, "14": {"stimulus": 2093, "trial": 14, "rt": 509, "response": "Alpha"}, "17": {"stimulus": 1280, "trial": 17, "rt": 679, "response": "Alpha"}, "16": {"stimulus": 0, "trial": 16, "rt": 928, "response": "Alpha"}, "19": {"stimulus": 1030, "trial": 19, "rt": 953, "response": "Alpha"}, "18": {"stimulus": 1749, "trial": 18, "rt": 693, "response": "Alpha"}, "31": {"stimulus": 124, "trial": 31, "rt": 810, "response": "Alpha"}, "30": {"stimulus": 2155, "trial": 30, "rt": 4783, "response": "Alpha"}, "37": {"stimulus": 968, "trial": 37, "rt": 1186, "response": "Alpha"}, "36": {"stimulus": 1499, "trial": 36, "rt": 1232, "response": "Alpha"}, "35": {"stimulus": 749, "trial": 35, "rt": 662, "response": "Beta"}, "34": {"stimulus": 1249, "trial": 34, "rt": 1595, "response": "Alpha"}, "33": {"stimulus": 1312, "trial": 33, "rt": 590, "response": "Alpha"}, "55": {"stimulus": 437, "trial": 55, "rt": 662, "response": "Alpha"}, "74": {"stimulus": 1655, "trial": 74, "rt": 559, "response": "Alpha"}, "32": {"stimulus": 2312, "trial": 32, "rt": 898, "response": "Beta"}, "57": {"stimulus": 1905, "trial": 57, "rt": 911, "response": "Alpha"}, "50": {"stimulus": 1812, "trial": 50, "rt": 24280, "response": "Alpha"}}, "experiment": {"Paradigm": "TACL", "Stimuli": "Size-Color Squares", "Experiment": "Generating-Multiple-Categories"}, "submit": {"timeTotal": 363342, "age": "27", "comments": "good", "sex": "female"}}