{"info": {"finish": 1548158101010, "participant": 330, "exposed": true, "lab": false, "start": 1548156411687, "counterbalance": 3, "gentype": 2, "condition": "XOR", "browser": {"platform": "Win32", "userAgent": "Mozilla/5.0 (Windows NT 10.0; Win64; x64; rv:64.0) Gecko/20100101 Firefox/64.0"}}, "observation": {"11": {"stimulus": 818, "trial": 11, "rt": 1167}, "10": {"stimulus": 403, "trial": 10, "rt": 1332}, "1": {"stimulus": 818, "trial": 1, "rt": 1842}, "0": {"stimulus": 1479, "trial": 0, "rt": 2995}, "3": {"stimulus": 1890, "trial": 3, "rt": 1511}, "2": {"stimulus": 403, "trial": 2, "rt": 1372}, "5": {"stimulus": 818, "trial": 5, "rt": 1343}, "4": {"stimulus": 1479, "trial": 4, "rt": 1373}, "7": {"stimulus": 1890, "trial": 7, "rt": 1883}, "6": {"stimulus": 403, "trial": 6, "rt": 1230}, "9": {"stimulus": 1890, "trial": 9, "rt": 1381}, "8": {"stimulus": 1479, "trial": 8, "rt": 1307}}, "generation": {"1": {"category": "Beta", "trial": 1, "stimulus": 49, "rt": 7840}, "0": {"category": "Beta", "trial": 0, "stimulus": 2349, "rt": 23849}, "3": {"category": "Beta", "trial": 3, "stimulus": 249, "rt": 7444}, "2": {"category": "Beta", "trial": 2, "stimulus": 2299, "rt": 7229}, "5": {"category": "Gamma", "trial": 5, "stimulus": 651, "rt": 3875}, "4": {"category": "Gamma", "trial": 4, "stimulus": 1300, "rt": 6574}, "7": {"category": "Gamma", "trial": 7, "stimulus": 251, "rt": 6417}, "6": {"category": "Gamma", "trial": 6, "stimulus": 2351, "rt": 5393}}, "generalization": {"56": {"stimulus": 155, "trial": 56, "rt": 926, "response": "Gamma"}, "77": {"stimulus": 1312, "trial": 77, "rt": 704, "response": "Gamma"}, "54": {"stimulus": 312, "trial": 54, "rt": 1233, "response": "Beta"}, "42": {"stimulus": 437, "trial": 42, "rt": 822, "response": "Alpha"}, "48": {"stimulus": 2405, "trial": 48, "rt": 728, "response": "Gamma"}, "43": {"stimulus": 1374, "trial": 43, "rt": 864, "response": "Beta"}, "60": {"stimulus": 2499, "trial": 60, "rt": 942, "response": "Alpha"}, "61": {"stimulus": 1499, "trial": 61, "rt": 1302, "response": "Alpha"}, "62": {"stimulus": 624, "trial": 62, "rt": 819, "response": "Beta"}, "63": {"stimulus": 2218, "trial": 63, "rt": 978, "response": "Beta"}, "64": {"stimulus": 1280, "trial": 64, "rt": 1143, "response": "Beta"}, "49": {"stimulus": 2374, "trial": 49, "rt": 801, "response": "Gamma"}, "66": {"stimulus": 2124, "trial": 66, "rt": 780, "response": "Beta"}, "67": {"stimulus": 999, "trial": 67, "rt": 754, "response": "Alpha"}, "68": {"stimulus": 1562, "trial": 68, "rt": 842, "response": "Gamma"}, "69": {"stimulus": 1124, "trial": 69, "rt": 846, "response": "Beta"}, "80": {"stimulus": 655, "trial": 80, "rt": 829, "response": "Gamma"}, "52": {"stimulus": 1468, "trial": 52, "rt": 790, "response": "Beta"}, "53": {"stimulus": 843, "trial": 53, "rt": 981, "response": "Alpha"}, "24": {"stimulus": 62, "trial": 24, "rt": 1290, "response": "Gamma"}, "25": {"stimulus": 1874, "trial": 25, "rt": 1050, "response": "Beta"}, "26": {"stimulus": 1530, "trial": 26, "rt": 991, "response": "Beta"}, "27": {"stimulus": 1937, "trial": 27, "rt": 887, "response": "Alpha"}, "20": {"stimulus": 749, "trial": 20, "rt": 855, "response": "Alpha"}, "21": {"stimulus": 718, "trial": 21, "rt": 1023, "response": "Gamma"}, "22": {"stimulus": 1843, "trial": 22, "rt": 1045, "response": "Alpha"}, "23": {"stimulus": 1749, "trial": 23, "rt": 913, "response": "Alpha"}, "46": {"stimulus": 2187, "trial": 46, "rt": 1036, "response": "Alpha"}, "47": {"stimulus": 1187, "trial": 47, "rt": 980, "response": "Beta"}, "44": {"stimulus": 1062, "trial": 44, "rt": 853, "response": "Gamma"}, "45": {"stimulus": 2437, "trial": 45, "rt": 889, "response": "Alpha"}, "28": {"stimulus": 2062, "trial": 28, "rt": 768, "response": "Gamma"}, "29": {"stimulus": 937, "trial": 29, "rt": 1106, "response": "Alpha"}, "40": {"stimulus": 2093, "trial": 40, "rt": 766, "response": "Alpha"}, "41": {"stimulus": 874, "trial": 41, "rt": 962, "response": "Beta"}, "1": {"stimulus": 1405, "trial": 1, "rt": 1550, "response": "Beta"}, "0": {"stimulus": 812, "trial": 0, "rt": 4239, "response": "Gamma"}, "3": {"stimulus": 1655, "trial": 3, "rt": 1321, "response": "Beta"}, "2": {"stimulus": 2312, "trial": 2, "rt": 2158, "response": "Alpha"}, "5": {"stimulus": 30, "trial": 5, "rt": 798, "response": "Alpha"}, "4": {"stimulus": 1624, "trial": 4, "rt": 3354, "response": "Beta"}, "7": {"stimulus": 280, "trial": 7, "rt": 1467, "response": "Beta"}, "6": {"stimulus": 1968, "trial": 6, "rt": 4050, "response": "Beta"}, "9": {"stimulus": 593, "trial": 9, "rt": 669, "response": "Alpha"}, "8": {"stimulus": 2280, "trial": 8, "rt": 930, "response": "Alpha"}, "78": {"stimulus": 1593, "trial": 78, "rt": 886, "response": "Alpha"}, "51": {"stimulus": 2468, "trial": 51, "rt": 3508, "response": "Gamma"}, "39": {"stimulus": 124, "trial": 39, "rt": 835, "response": "Beta"}, "65": {"stimulus": 499, "trial": 65, "rt": 664, "response": "Alpha"}, "76": {"stimulus": 968, "trial": 76, "rt": 881, "response": "Gamma"}, "75": {"stimulus": 1718, "trial": 75, "rt": 859, "response": "Gamma"}, "38": {"stimulus": 687, "trial": 38, "rt": 801, "response": "Alpha"}, "73": {"stimulus": 1437, "trial": 73, "rt": 923, "response": "Beta"}, "72": {"stimulus": 1093, "trial": 72, "rt": 1069, "response": "Alpha"}, "71": {"stimulus": 249, "trial": 71, "rt": 867, "response": "Alpha"}, "70": {"stimulus": 93, "trial": 70, "rt": 1004, "response": "Alpha"}, "59": {"stimulus": 562, "trial": 59, "rt": 2226, "response": "Gamma"}, "79": {"stimulus": 2030, "trial": 79, "rt": 1268, "response": "Alpha"}, "58": {"stimulus": 374, "trial": 58, "rt": 930, "response": "Beta"}, "11": {"stimulus": 1155, "trial": 11, "rt": 818, "response": "Gamma"}, "10": {"stimulus": 1999, "trial": 10, "rt": 537, "response": "Alpha"}, "13": {"stimulus": 530, "trial": 13, "rt": 844, "response": "Beta"}, "12": {"stimulus": 343, "trial": 12, "rt": 1696, "response": "Beta"}, "15": {"stimulus": 1812, "trial": 15, "rt": 1142, "response": "Gamma"}, "14": {"stimulus": 187, "trial": 14, "rt": 865, "response": "Alpha"}, "17": {"stimulus": 2249, "trial": 17, "rt": 1786, "response": "Alpha"}, "16": {"stimulus": 0, "trial": 16, "rt": 707, "response": "Gamma"}, "19": {"stimulus": 468, "trial": 19, "rt": 748, "response": "Beta"}, "18": {"stimulus": 405, "trial": 18, "rt": 981, "response": "Gamma"}, "31": {"stimulus": 1780, "trial": 31, "rt": 1153, "response": "Beta"}, "30": {"stimulus": 2155, "trial": 30, "rt": 1415, "response": "Gamma"}, "37": {"stimulus": 905, "trial": 37, "rt": 997, "response": "Gamma"}, "36": {"stimulus": 1218, "trial": 36, "rt": 1013, "response": "Gamma"}, "35": {"stimulus": 1687, "trial": 35, "rt": 1350, "response": "Beta"}, "34": {"stimulus": 218, "trial": 34, "rt": 1254, "response": "Gamma"}, "33": {"stimulus": 780, "trial": 33, "rt": 1282, "response": "Beta"}, "55": {"stimulus": 1905, "trial": 55, "rt": 719, "response": "Gamma"}, "74": {"stimulus": 1030, "trial": 74, "rt": 1160, "response": "Beta"}, "32": {"stimulus": 1343, "trial": 32, "rt": 690, "response": "Alpha"}, "57": {"stimulus": 1249, "trial": 57, "rt": 1073, "response": "Alpha"}, "50": {"stimulus": 2343, "trial": 50, "rt": 937, "response": "Alpha"}}, "experiment": {"Paradigm": "TACL", "Stimuli": "Size-Color Squares", "Experiment": "Generating-Multiple-Categories"}, "submit": {"timeTotal": 1689651, "age": "33", "comments": "", "sex": "genderfluid"}}