{"info": {"finish": 1548158675287, "participant": 333, "exposed": true, "lab": false, "start": 1548157778058, "counterbalance": 7, "gentype": 1, "condition": "Cluster", "browser": {"platform": "MacIntel", "userAgent": "Mozilla/5.0 (Macintosh; Intel Mac OS X 10_14_2) AppleWebKit/537.36 (KHTML, like Gecko) Chrome/71.0.3578.98 Safari/537.36"}}, "observation": {"11": {"stimulus": 1093, "trial": 11, "rt": 1812}, "10": {"stimulus": 583, "trial": 10, "rt": 1982}, "1": {"stimulus": 1083, "trial": 1, "rt": 1882}, "0": {"stimulus": 583, "trial": 0, "rt": 2198}, "3": {"stimulus": 1093, "trial": 3, "rt": 3902}, "2": {"stimulus": 392, "trial": 2, "rt": 2349}, "5": {"stimulus": 583, "trial": 5, "rt": 2256}, "4": {"stimulus": 1083, "trial": 4, "rt": 1480}, "7": {"stimulus": 392, "trial": 7, "rt": 1870}, "6": {"stimulus": 1093, "trial": 6, "rt": 1992}, "9": {"stimulus": 392, "trial": 9, "rt": 2131}, "8": {"stimulus": 1083, "trial": 8, "rt": 1500}}, "generation": {"1": {"category": "Beta", "trial": 1, "stimulus": 570, "rt": 1896}, "0": {"category": "Beta", "trial": 0, "stimulus": 1079, "rt": 22034}, "3": {"category": "Beta", "trial": 3, "stimulus": 680, "rt": 2121}, "2": {"category": "Beta", "trial": 2, "stimulus": 824, "rt": 1871}, "5": {"category": "Beta", "trial": 5, "stimulus": 772, "rt": 1780}, "4": {"category": "Beta", "trial": 4, "stimulus": 929, "rt": 1704}, "7": {"category": "Beta", "trial": 7, "stimulus": 1723, "rt": 3021}, "6": {"category": "Beta", "trial": 6, "stimulus": 832, "rt": 2591}}, "generalization": {"56": {"stimulus": 687, "trial": 56, "rt": 369, "response": "Beta"}, "77": {"stimulus": 1874, "trial": 77, "rt": 916, "response": "Beta"}, "54": {"stimulus": 843, "trial": 54, "rt": 132, "response": "Beta"}, "42": {"stimulus": 1062, "trial": 42, "rt": 219, "response": "Beta"}, "48": {"stimulus": 62, "trial": 48, "rt": 247, "response": "Beta"}, "43": {"stimulus": 2062, "trial": 43, "rt": 237, "response": "Beta"}, "60": {"stimulus": 593, "trial": 60, "rt": 240, "response": "Beta"}, "61": {"stimulus": 2155, "trial": 61, "rt": 261, "response": "Beta"}, "62": {"stimulus": 1249, "trial": 62, "rt": 198, "response": "Beta"}, "63": {"stimulus": 1343, "trial": 63, "rt": 270, "response": "Beta"}, "64": {"stimulus": 218, "trial": 64, "rt": 217, "response": "Beta"}, "49": {"stimulus": 874, "trial": 49, "rt": 295, "response": "Beta"}, "66": {"stimulus": 530, "trial": 66, "rt": 309, "response": "Beta"}, "67": {"stimulus": 1655, "trial": 67, "rt": 289, "response": "Beta"}, "68": {"stimulus": 1624, "trial": 68, "rt": 353, "response": "Beta"}, "69": {"stimulus": 1562, "trial": 69, "rt": 248, "response": "Beta"}, "80": {"stimulus": 749, "trial": 80, "rt": 421, "response": "Alpha"}, "52": {"stimulus": 2093, "trial": 52, "rt": 258, "response": "Beta"}, "53": {"stimulus": 812, "trial": 53, "rt": 227, "response": "Beta"}, "24": {"stimulus": 187, "trial": 24, "rt": 152, "response": "Beta"}, "25": {"stimulus": 2468, "trial": 25, "rt": 206, "response": "Beta"}, "26": {"stimulus": 2343, "trial": 26, "rt": 440, "response": "Beta"}, "27": {"stimulus": 968, "trial": 27, "rt": 182, "response": "Beta"}, "20": {"stimulus": 1812, "trial": 20, "rt": 236, "response": "Beta"}, "21": {"stimulus": 1687, "trial": 21, "rt": 240, "response": "Beta"}, "22": {"stimulus": 312, "trial": 22, "rt": 345, "response": "Beta"}, "23": {"stimulus": 2437, "trial": 23, "rt": 103, "response": "Beta"}, "46": {"stimulus": 1780, "trial": 46, "rt": 262, "response": "Beta"}, "47": {"stimulus": 124, "trial": 47, "rt": 262, "response": "Beta"}, "44": {"stimulus": 1280, "trial": 44, "rt": 568, "response": "Beta"}, "45": {"stimulus": 2249, "trial": 45, "rt": 266, "response": "Beta"}, "28": {"stimulus": 343, "trial": 28, "rt": 438, "response": "Beta"}, "29": {"stimulus": 2187, "trial": 29, "rt": 286, "response": "Beta"}, "40": {"stimulus": 1905, "trial": 40, "rt": 366, "response": "Beta"}, "41": {"stimulus": 2280, "trial": 41, "rt": 317, "response": "Beta"}, "1": {"stimulus": 1405, "trial": 1, "rt": 4099, "response": "Beta"}, "0": {"stimulus": 249, "trial": 0, "rt": 51838, "response": "Alpha"}, "3": {"stimulus": 1312, "trial": 3, "rt": 2540, "response": "Beta"}, "2": {"stimulus": 1437, "trial": 2, "rt": 331, "response": "Beta"}, "5": {"stimulus": 2312, "trial": 5, "rt": 5590, "response": "Beta"}, "4": {"stimulus": 999, "trial": 4, "rt": 259, "response": "Beta"}, "7": {"stimulus": 0, "trial": 7, "rt": 179, "response": "Beta"}, "6": {"stimulus": 374, "trial": 6, "rt": 7624, "response": "Beta"}, "9": {"stimulus": 780, "trial": 9, "rt": 398, "response": "Alpha"}, "8": {"stimulus": 1124, "trial": 8, "rt": 100999, "response": "Beta"}, "78": {"stimulus": 562, "trial": 78, "rt": 152, "response": "Beta"}, "51": {"stimulus": 93, "trial": 51, "rt": 223, "response": "Beta"}, "39": {"stimulus": 2218, "trial": 39, "rt": 627, "response": "Beta"}, "65": {"stimulus": 1968, "trial": 65, "rt": 171, "response": "Beta"}, "76": {"stimulus": 1030, "trial": 76, "rt": 361, "response": "Beta"}, "75": {"stimulus": 1530, "trial": 75, "rt": 371, "response": "Beta"}, "38": {"stimulus": 905, "trial": 38, "rt": 352, "response": "Beta"}, "73": {"stimulus": 718, "trial": 73, "rt": 367, "response": "Beta"}, "72": {"stimulus": 1468, "trial": 72, "rt": 393, "response": "Beta"}, "71": {"stimulus": 2499, "trial": 71, "rt": 139, "response": "Beta"}, "70": {"stimulus": 155, "trial": 70, "rt": 338, "response": "Beta"}, "59": {"stimulus": 437, "trial": 59, "rt": 496, "response": "Beta"}, "79": {"stimulus": 1937, "trial": 79, "rt": 151, "response": "Beta"}, "58": {"stimulus": 30, "trial": 58, "rt": 403, "response": "Beta"}, "11": {"stimulus": 624, "trial": 11, "rt": 580, "response": "Alpha"}, "10": {"stimulus": 2374, "trial": 10, "rt": 281, "response": "Alpha"}, "13": {"stimulus": 1999, "trial": 13, "rt": 763, "response": "Alpha"}, "12": {"stimulus": 1749, "trial": 12, "rt": 287, "response": "Alpha"}, "15": {"stimulus": 655, "trial": 15, "rt": 479, "response": "Alpha"}, "14": {"stimulus": 1218, "trial": 14, "rt": 322, "response": "Alpha"}, "17": {"stimulus": 1155, "trial": 17, "rt": 321, "response": "Alpha"}, "16": {"stimulus": 405, "trial": 16, "rt": 247, "response": "Alpha"}, "19": {"stimulus": 1187, "trial": 19, "rt": 189, "response": "Beta"}, "18": {"stimulus": 468, "trial": 18, "rt": 432, "response": "Beta"}, "31": {"stimulus": 280, "trial": 31, "rt": 207, "response": "Beta"}, "30": {"stimulus": 2030, "trial": 30, "rt": 474, "response": "Beta"}, "37": {"stimulus": 1499, "trial": 37, "rt": 408, "response": "Beta"}, "36": {"stimulus": 1093, "trial": 36, "rt": 222, "response": "Beta"}, "35": {"stimulus": 1843, "trial": 35, "rt": 287, "response": "Beta"}, "34": {"stimulus": 1374, "trial": 34, "rt": 167, "response": "Beta"}, "33": {"stimulus": 937, "trial": 33, "rt": 148, "response": "Beta"}, "55": {"stimulus": 2405, "trial": 55, "rt": 380, "response": "Beta"}, "74": {"stimulus": 1593, "trial": 74, "rt": 1054, "response": "Beta"}, "32": {"stimulus": 499, "trial": 32, "rt": 310, "response": "Beta"}, "57": {"stimulus": 1718, "trial": 57, "rt": 125, "response": "Beta"}, "50": {"stimulus": 2124, "trial": 50, "rt": 392, "response": "Beta"}}, "experiment": {"Paradigm": "TACL", "Stimuli": "Size-Color Squares", "Experiment": "Generating-Multiple-Categories"}, "submit": {"timeTotal": 898548, "age": "25", "comments": "", "sex": "Male"}}