{"info": {"finish": 1548163336347, "participant": 342, "exposed": true, "lab": false, "start": 1548162701489, "counterbalance": 7, "gentype": 0, "condition": "XOR", "browser": {"platform": "Linux x86_64", "userAgent": "Mozilla/5.0 (X11; CrOS x86_64 11307.0.0) AppleWebKit/537.36 (KHTML, like Gecko) Chrome/72.0.3623.3 Safari/537.36"}}, "observation": {"11": {"stimulus": 1479, "trial": 11, "rt": 2052}, "10": {"stimulus": 818, "trial": 10, "rt": 4695}, "1": {"stimulus": 1890, "trial": 1, "rt": 7426}, "0": {"stimulus": 403, "trial": 0, "rt": 27291}, "3": {"stimulus": 1479, "trial": 3, "rt": 5018}, "2": {"stimulus": 818, "trial": 2, "rt": 44044}, "5": {"stimulus": 1890, "trial": 5, "rt": 14659}, "4": {"stimulus": 403, "trial": 4, "rt": 42261}, "7": {"stimulus": 1479, "trial": 7, "rt": 19193}, "6": {"stimulus": 818, "trial": 6, "rt": 13084}, "9": {"stimulus": 1890, "trial": 9, "rt": 5990}, "8": {"stimulus": 403, "trial": 8, "rt": 46931}}, "generation": {"1": {"category": "Not-Alpha", "trial": 1, "stimulus": 1182, "rt": 8832}, "0": {"category": "Not-Alpha", "trial": 0, "stimulus": 930, "rt": 3002}, "3": {"category": "Not-Alpha", "trial": 3, "stimulus": 1772, "rt": 4740}, "2": {"category": "Not-Alpha", "trial": 2, "stimulus": 1293, "rt": 4098}, "5": {"category": "Not-Alpha", "trial": 5, "stimulus": 1199, "rt": 4724}, "4": {"category": "Not-Alpha", "trial": 4, "stimulus": 1622, "rt": 4039}, "7": {"category": "Not-Alpha", "trial": 7, "stimulus": 922, "rt": 2916}, "6": {"category": "Not-Alpha", "trial": 6, "stimulus": 1825, "rt": 6478}}, "generalization": {"56": {"stimulus": 124, "trial": 56, "rt": 441, "response": "Beta"}, "77": {"stimulus": 624, "trial": 77, "rt": 144, "response": "Alpha"}, "54": {"stimulus": 2124, "trial": 54, "rt": 400, "response": "Beta"}, "42": {"stimulus": 1562, "trial": 42, "rt": 1019, "response": "Alpha"}, "48": {"stimulus": 1593, "trial": 48, "rt": 3358, "response": "Beta"}, "43": {"stimulus": 1687, "trial": 43, "rt": 472, "response": "Alpha"}, "60": {"stimulus": 1655, "trial": 60, "rt": 473, "response": "Beta"}, "61": {"stimulus": 2280, "trial": 61, "rt": 512, "response": "Alpha"}, "62": {"stimulus": 937, "trial": 62, "rt": 455, "response": "Alpha"}, "63": {"stimulus": 2093, "trial": 63, "rt": 367, "response": "Beta"}, "64": {"stimulus": 655, "trial": 64, "rt": 634, "response": "Beta"}, "49": {"stimulus": 1343, "trial": 49, "rt": 558, "response": "Beta"}, "66": {"stimulus": 905, "trial": 66, "rt": 419, "response": "Beta"}, "67": {"stimulus": 374, "trial": 67, "rt": 644, "response": "Beta"}, "68": {"stimulus": 1812, "trial": 68, "rt": 953, "response": "Beta"}, "69": {"stimulus": 968, "trial": 69, "rt": 352, "response": "Beta"}, "80": {"stimulus": 1874, "trial": 80, "rt": 1840, "response": "Alpha"}, "52": {"stimulus": 1062, "trial": 52, "rt": 424, "response": "Beta"}, "53": {"stimulus": 1312, "trial": 53, "rt": 298, "response": "Beta"}, "24": {"stimulus": 1155, "trial": 24, "rt": 153, "response": "Beta"}, "25": {"stimulus": 1968, "trial": 25, "rt": 6738, "response": "Beta"}, "26": {"stimulus": 1718, "trial": 26, "rt": 678, "response": "Beta"}, "27": {"stimulus": 312, "trial": 27, "rt": 1027, "response": "Beta"}, "20": {"stimulus": 437, "trial": 20, "rt": 17927, "response": "Beta"}, "21": {"stimulus": 30, "trial": 21, "rt": 385, "response": "Beta"}, "22": {"stimulus": 843, "trial": 22, "rt": 418, "response": "Beta"}, "23": {"stimulus": 93, "trial": 23, "rt": 713, "response": "Beta"}, "46": {"stimulus": 1280, "trial": 46, "rt": 737, "response": "Alpha"}, "47": {"stimulus": 687, "trial": 47, "rt": 846, "response": "Beta"}, "44": {"stimulus": 530, "trial": 44, "rt": 564, "response": "Beta"}, "45": {"stimulus": 562, "trial": 45, "rt": 1492, "response": "Alpha"}, "28": {"stimulus": 0, "trial": 28, "rt": 115, "response": "Beta"}, "29": {"stimulus": 2312, "trial": 29, "rt": 3349, "response": "Beta"}, "40": {"stimulus": 2499, "trial": 40, "rt": 860, "response": "Beta"}, "41": {"stimulus": 1468, "trial": 41, "rt": 763, "response": "Beta"}, "1": {"stimulus": 1937, "trial": 1, "rt": 896, "response": "Alpha"}, "0": {"stimulus": 812, "trial": 0, "rt": 1705, "response": "Alpha"}, "3": {"stimulus": 2155, "trial": 3, "rt": 497, "response": "Beta"}, "2": {"stimulus": 2030, "trial": 2, "rt": 569, "response": "Beta"}, "5": {"stimulus": 874, "trial": 5, "rt": 1209, "response": "Alpha"}, "4": {"stimulus": 593, "trial": 4, "rt": 491, "response": "Beta"}, "7": {"stimulus": 2343, "trial": 7, "rt": 385, "response": "Beta"}, "6": {"stimulus": 1437, "trial": 6, "rt": 538, "response": "Beta"}, "9": {"stimulus": 499, "trial": 9, "rt": 570, "response": "Beta"}, "8": {"stimulus": 2437, "trial": 8, "rt": 699, "response": "Beta"}, "78": {"stimulus": 280, "trial": 78, "rt": 159, "response": "Alpha"}, "51": {"stimulus": 2405, "trial": 51, "rt": 489, "response": "Beta"}, "39": {"stimulus": 2468, "trial": 39, "rt": 545, "response": "Alpha"}, "65": {"stimulus": 780, "trial": 65, "rt": 433, "response": "Beta"}, "76": {"stimulus": 62, "trial": 76, "rt": 794, "response": "Alpha"}, "75": {"stimulus": 1030, "trial": 75, "rt": 860, "response": "Alpha"}, "38": {"stimulus": 1405, "trial": 38, "rt": 561, "response": "Alpha"}, "73": {"stimulus": 1780, "trial": 73, "rt": 418, "response": "Alpha"}, "72": {"stimulus": 1530, "trial": 72, "rt": 1403, "response": "Alpha"}, "71": {"stimulus": 249, "trial": 71, "rt": 1209, "response": "Beta"}, "70": {"stimulus": 1499, "trial": 70, "rt": 521, "response": "Beta"}, "59": {"stimulus": 1093, "trial": 59, "rt": 410, "response": "Beta"}, "79": {"stimulus": 1905, "trial": 79, "rt": 730, "response": "Alpha"}, "58": {"stimulus": 999, "trial": 58, "rt": 265, "response": "Beta"}, "11": {"stimulus": 2374, "trial": 11, "rt": 561, "response": "Alpha"}, "10": {"stimulus": 1624, "trial": 10, "rt": 696, "response": "Alpha"}, "13": {"stimulus": 2187, "trial": 13, "rt": 1123, "response": "Beta"}, "12": {"stimulus": 187, "trial": 12, "rt": 972, "response": "Alpha"}, "15": {"stimulus": 2249, "trial": 15, "rt": 1138, "response": "Beta"}, "14": {"stimulus": 218, "trial": 14, "rt": 979, "response": "Alpha"}, "17": {"stimulus": 468, "trial": 17, "rt": 849, "response": "Beta"}, "16": {"stimulus": 405, "trial": 16, "rt": 2062, "response": "Beta"}, "19": {"stimulus": 1249, "trial": 19, "rt": 4113, "response": "Beta"}, "18": {"stimulus": 1374, "trial": 18, "rt": 602, "response": "Beta"}, "31": {"stimulus": 2062, "trial": 31, "rt": 667, "response": "Beta"}, "30": {"stimulus": 1187, "trial": 30, "rt": 842, "response": "Beta"}, "37": {"stimulus": 2218, "trial": 37, "rt": 1268, "response": "Alpha"}, "36": {"stimulus": 1749, "trial": 36, "rt": 830, "response": "Beta"}, "35": {"stimulus": 718, "trial": 35, "rt": 6287, "response": "Alpha"}, "34": {"stimulus": 749, "trial": 34, "rt": 7099, "response": "Beta"}, "33": {"stimulus": 155, "trial": 33, "rt": 2356, "response": "Beta"}, "55": {"stimulus": 1218, "trial": 55, "rt": 321, "response": "Beta"}, "74": {"stimulus": 1124, "trial": 74, "rt": 785, "response": "Alpha"}, "32": {"stimulus": 343, "trial": 32, "rt": 7847, "response": "Beta"}, "57": {"stimulus": 1843, "trial": 57, "rt": 277, "response": "Beta"}, "50": {"stimulus": 1999, "trial": 50, "rt": 632, "response": "Beta"}}, "experiment": {"Paradigm": "TACL", "Stimuli": "Size-Color Squares", "Experiment": "Generating-Multiple-Categories"}, "submit": {"timeTotal": 635214, "age": "33", "comments": "loved it, hope to see bonus with it!", "sex": "male"}}