{"info": {"finish": 1548163436817, "participant": 347, "exposed": true, "lab": false, "start": 1548163120781, "counterbalance": 3, "gentype": 2, "condition": "Cluster", "browser": {"platform": "Win32", "userAgent": "Mozilla/5.0 (Windows NT 10.0; Win64; x64) AppleWebKit/537.36 (KHTML, like Gecko) Chrome/71.0.3578.98 Safari/537.36"}}, "observation": {"11": {"stimulus": 392, "trial": 11, "rt": 1494}, "10": {"stimulus": 1083, "trial": 10, "rt": 1486}, "1": {"stimulus": 392, "trial": 1, "rt": 1516}, "0": {"stimulus": 1083, "trial": 0, "rt": 3468}, "3": {"stimulus": 1093, "trial": 3, "rt": 1622}, "2": {"stimulus": 583, "trial": 2, "rt": 1622}, "5": {"stimulus": 583, "trial": 5, "rt": 1734}, "4": {"stimulus": 392, "trial": 4, "rt": 1391}, "7": {"stimulus": 1083, "trial": 7, "rt": 1399}, "6": {"stimulus": 1093, "trial": 6, "rt": 1566}, "9": {"stimulus": 583, "trial": 9, "rt": 1471}, "8": {"stimulus": 1093, "trial": 8, "rt": 1631}}, "generation": {"1": {"category": "Beta", "trial": 1, "stimulus": 0, "rt": 4126}, "0": {"category": "Beta", "trial": 0, "stimulus": 49, "rt": 12184}, "3": {"category": "Beta", "trial": 3, "stimulus": 25, "rt": 3862}, "2": {"category": "Beta", "trial": 2, "stimulus": 30, "rt": 4485}, "5": {"category": "Gamma", "trial": 5, "stimulus": 2474, "rt": 2895}, "4": {"category": "Gamma", "trial": 4, "stimulus": 2494, "rt": 4013}, "7": {"category": "Gamma", "trial": 7, "stimulus": 2450, "rt": 4904}, "6": {"category": "Gamma", "trial": 6, "stimulus": 2499, "rt": 2980}}, "generalization": {"56": {"stimulus": 2437, "trial": 56, "rt": 1316, "response": "Gamma"}, "77": {"stimulus": 1968, "trial": 77, "rt": 1165, "response": "Gamma"}, "54": {"stimulus": 2280, "trial": 54, "rt": 1733, "response": "Gamma"}, "42": {"stimulus": 968, "trial": 42, "rt": 1406, "response": "Alpha"}, "48": {"stimulus": 30, "trial": 48, "rt": 1199, "response": "Beta"}, "43": {"stimulus": 280, "trial": 43, "rt": 1117, "response": "Beta"}, "60": {"stimulus": 843, "trial": 60, "rt": 1559, "response": "Alpha"}, "61": {"stimulus": 405, "trial": 61, "rt": 1031, "response": "Alpha"}, "62": {"stimulus": 249, "trial": 62, "rt": 1114, "response": "Beta"}, "63": {"stimulus": 1749, "trial": 63, "rt": 1021, "response": "Gamma"}, "64": {"stimulus": 2062, "trial": 64, "rt": 742, "response": "Gamma"}, "49": {"stimulus": 2405, "trial": 49, "rt": 1286, "response": "Gamma"}, "66": {"stimulus": 2312, "trial": 66, "rt": 590, "response": "Gamma"}, "67": {"stimulus": 1374, "trial": 67, "rt": 1415, "response": "Alpha"}, "68": {"stimulus": 2374, "trial": 68, "rt": 701, "response": "Gamma"}, "69": {"stimulus": 124, "trial": 69, "rt": 909, "response": "Beta"}, "80": {"stimulus": 2030, "trial": 80, "rt": 678, "response": "Gamma"}, "52": {"stimulus": 1405, "trial": 52, "rt": 1582, "response": "Alpha"}, "53": {"stimulus": 1468, "trial": 53, "rt": 966, "response": "Alpha"}, "24": {"stimulus": 1437, "trial": 24, "rt": 1190, "response": "Alpha"}, "25": {"stimulus": 499, "trial": 25, "rt": 1040, "response": "Beta"}, "26": {"stimulus": 2218, "trial": 26, "rt": 1085, "response": "Gamma"}, "27": {"stimulus": 812, "trial": 27, "rt": 1070, "response": "Alpha"}, "20": {"stimulus": 1843, "trial": 20, "rt": 1454, "response": "Gamma"}, "21": {"stimulus": 1530, "trial": 21, "rt": 1198, "response": "Gamma"}, "22": {"stimulus": 2155, "trial": 22, "rt": 1031, "response": "Gamma"}, "23": {"stimulus": 2187, "trial": 23, "rt": 791, "response": "Gamma"}, "46": {"stimulus": 530, "trial": 46, "rt": 2199, "response": "Alpha"}, "47": {"stimulus": 2468, "trial": 47, "rt": 3126, "response": "Gamma"}, "44": {"stimulus": 468, "trial": 44, "rt": 2038, "response": "Alpha"}, "45": {"stimulus": 1593, "trial": 45, "rt": 1134, "response": "Gamma"}, "28": {"stimulus": 62, "trial": 28, "rt": 2606, "response": "Beta"}, "29": {"stimulus": 2343, "trial": 29, "rt": 1334, "response": "Gamma"}, "40": {"stimulus": 2499, "trial": 40, "rt": 1078, "response": "Gamma"}, "41": {"stimulus": 93, "trial": 41, "rt": 2077, "response": "Beta"}, "1": {"stimulus": 1062, "trial": 1, "rt": 1463, "response": "Alpha"}, "0": {"stimulus": 1280, "trial": 0, "rt": 4341, "response": "Gamma"}, "3": {"stimulus": 1155, "trial": 3, "rt": 1687, "response": "Gamma"}, "2": {"stimulus": 1624, "trial": 2, "rt": 1893, "response": "Gamma"}, "5": {"stimulus": 1343, "trial": 5, "rt": 1598, "response": "Gamma"}, "4": {"stimulus": 1218, "trial": 4, "rt": 1190, "response": "Gamma"}, "7": {"stimulus": 0, "trial": 7, "rt": 1039, "response": "Beta"}, "6": {"stimulus": 2093, "trial": 6, "rt": 1351, "response": "Gamma"}, "9": {"stimulus": 780, "trial": 9, "rt": 1573, "response": "Alpha"}, "8": {"stimulus": 1562, "trial": 8, "rt": 1150, "response": "Gamma"}, "78": {"stimulus": 874, "trial": 78, "rt": 1487, "response": "Alpha"}, "51": {"stimulus": 1999, "trial": 51, "rt": 1208, "response": "Gamma"}, "39": {"stimulus": 155, "trial": 39, "rt": 1095, "response": "Beta"}, "65": {"stimulus": 1687, "trial": 65, "rt": 663, "response": "Gamma"}, "76": {"stimulus": 1655, "trial": 76, "rt": 1287, "response": "Gamma"}, "75": {"stimulus": 749, "trial": 75, "rt": 1103, "response": "Alpha"}, "38": {"stimulus": 1249, "trial": 38, "rt": 3158, "response": "Alpha"}, "73": {"stimulus": 624, "trial": 73, "rt": 824, "response": "Alpha"}, "72": {"stimulus": 593, "trial": 72, "rt": 2226, "response": "Alpha"}, "71": {"stimulus": 1812, "trial": 71, "rt": 901, "response": "Gamma"}, "70": {"stimulus": 187, "trial": 70, "rt": 824, "response": "Beta"}, "59": {"stimulus": 2124, "trial": 59, "rt": 1125, "response": "Gamma"}, "79": {"stimulus": 1780, "trial": 79, "rt": 1701, "response": "Gamma"}, "58": {"stimulus": 905, "trial": 58, "rt": 2095, "response": "Alpha"}, "11": {"stimulus": 437, "trial": 11, "rt": 1110, "response": "Alpha"}, "10": {"stimulus": 562, "trial": 10, "rt": 1158, "response": "Alpha"}, "13": {"stimulus": 718, "trial": 13, "rt": 1303, "response": "Alpha"}, "12": {"stimulus": 1718, "trial": 12, "rt": 1029, "response": "Gamma"}, "15": {"stimulus": 343, "trial": 15, "rt": 1375, "response": "Beta"}, "14": {"stimulus": 1499, "trial": 14, "rt": 1198, "response": "Gamma"}, "17": {"stimulus": 1312, "trial": 17, "rt": 1406, "response": "Gamma"}, "16": {"stimulus": 1937, "trial": 16, "rt": 1278, "response": "Gamma"}, "19": {"stimulus": 1874, "trial": 19, "rt": 959, "response": "Gamma"}, "18": {"stimulus": 1093, "trial": 18, "rt": 1294, "response": "Gamma"}, "31": {"stimulus": 374, "trial": 31, "rt": 901, "response": "Beta"}, "30": {"stimulus": 312, "trial": 30, "rt": 1544, "response": "Beta"}, "37": {"stimulus": 1030, "trial": 37, "rt": 1743, "response": "Alpha"}, "36": {"stimulus": 687, "trial": 36, "rt": 1359, "response": "Alpha"}, "35": {"stimulus": 1905, "trial": 35, "rt": 550, "response": "Gamma"}, "34": {"stimulus": 1124, "trial": 34, "rt": 1397, "response": "Alpha"}, "33": {"stimulus": 1187, "trial": 33, "rt": 1087, "response": "Alpha"}, "55": {"stimulus": 999, "trial": 55, "rt": 1368, "response": "Alpha"}, "74": {"stimulus": 937, "trial": 74, "rt": 1845, "response": "Alpha"}, "32": {"stimulus": 655, "trial": 32, "rt": 1207, "response": "Alpha"}, "57": {"stimulus": 2249, "trial": 57, "rt": 733, "response": "Gamma"}, "50": {"stimulus": 218, "trial": 50, "rt": 958, "response": "Gamma"}}, "experiment": {"Paradigm": "TACL", "Stimuli": "Size-Color Squares", "Experiment": "Generating-Multiple-Categories"}, "submit": {"timeTotal": 316536, "age": "33", "comments": "I think it was very interesting but also difficult.", "sex": "female"}}