{"info": {"finish": 1548163654202, "participant": 348, "exposed": true, "lab": false, "start": 1548163238611, "counterbalance": 4, "gentype": 2, "condition": "Cluster", "browser": {"platform": "Win32", "userAgent": "Mozilla/5.0 (Windows NT 10.0; Win64; x64) AppleWebKit/537.36 (KHTML, like Gecko) Chrome/71.0.3578.98 Safari/537.36"}}, "observation": {"11": {"stimulus": 1093, "trial": 11, "rt": 1939}, "10": {"stimulus": 583, "trial": 10, "rt": 1660}, "1": {"stimulus": 583, "trial": 1, "rt": 2265}, "0": {"stimulus": 1093, "trial": 0, "rt": 2420}, "3": {"stimulus": 392, "trial": 3, "rt": 1827}, "2": {"stimulus": 1083, "trial": 2, "rt": 1742}, "5": {"stimulus": 583, "trial": 5, "rt": 2154}, "4": {"stimulus": 392, "trial": 4, "rt": 1910}, "7": {"stimulus": 1083, "trial": 7, "rt": 1928}, "6": {"stimulus": 1093, "trial": 6, "rt": 3841}, "9": {"stimulus": 392, "trial": 9, "rt": 1528}, "8": {"stimulus": 1083, "trial": 8, "rt": 2012}}, "generation": {"1": {"category": "Beta", "trial": 1, "stimulus": 1003, "rt": 5540}, "0": {"category": "Beta", "trial": 0, "stimulus": 2000, "rt": 11699}, "3": {"category": "Beta", "trial": 3, "stimulus": 1050, "rt": 4359}, "2": {"category": "Beta", "trial": 2, "stimulus": 2200, "rt": 5923}, "5": {"category": "Gamma", "trial": 5, "stimulus": 2445, "rt": 5032}, "4": {"category": "Gamma", "trial": 4, "stimulus": 2195, "rt": 5430}, "7": {"category": "Gamma", "trial": 7, "stimulus": 2298, "rt": 4741}, "6": {"category": "Gamma", "trial": 6, "stimulus": 2448, "rt": 3978}}, "generalization": {"56": {"stimulus": 1343, "trial": 56, "rt": 1262, "response": "Alpha"}, "77": {"stimulus": 1780, "trial": 77, "rt": 761, "response": "Gamma"}, "54": {"stimulus": 2343, "trial": 54, "rt": 896, "response": "Gamma"}, "42": {"stimulus": 1687, "trial": 42, "rt": 1270, "response": "Gamma"}, "48": {"stimulus": 499, "trial": 48, "rt": 913, "response": "Alpha"}, "43": {"stimulus": 405, "trial": 43, "rt": 1259, "response": "Beta"}, "60": {"stimulus": 530, "trial": 60, "rt": 1069, "response": "Alpha"}, "61": {"stimulus": 1468, "trial": 61, "rt": 963, "response": "Gamma"}, "62": {"stimulus": 312, "trial": 62, "rt": 1259, "response": "Beta"}, "63": {"stimulus": 1187, "trial": 63, "rt": 1832, "response": "Alpha"}, "64": {"stimulus": 1593, "trial": 64, "rt": 878, "response": "Gamma"}, "49": {"stimulus": 1905, "trial": 49, "rt": 920, "response": "Gamma"}, "66": {"stimulus": 343, "trial": 66, "rt": 989, "response": "Alpha"}, "67": {"stimulus": 1062, "trial": 67, "rt": 842, "response": "Beta"}, "68": {"stimulus": 2093, "trial": 68, "rt": 949, "response": "Gamma"}, "69": {"stimulus": 1749, "trial": 69, "rt": 871, "response": "Gamma"}, "80": {"stimulus": 749, "trial": 80, "rt": 9044, "response": "Alpha"}, "52": {"stimulus": 1249, "trial": 52, "rt": 973, "response": "Gamma"}, "53": {"stimulus": 218, "trial": 53, "rt": 1322, "response": "Beta"}, "24": {"stimulus": 1718, "trial": 24, "rt": 1265, "response": "Beta"}, "25": {"stimulus": 1218, "trial": 25, "rt": 2411, "response": "Beta"}, "26": {"stimulus": 155, "trial": 26, "rt": 1369, "response": "Beta"}, "27": {"stimulus": 2218, "trial": 27, "rt": 940, "response": "Beta"}, "20": {"stimulus": 562, "trial": 20, "rt": 870, "response": "Beta"}, "21": {"stimulus": 2280, "trial": 21, "rt": 1026, "response": "Gamma"}, "22": {"stimulus": 1405, "trial": 22, "rt": 1061, "response": "Beta"}, "23": {"stimulus": 1374, "trial": 23, "rt": 1139, "response": "Beta"}, "46": {"stimulus": 1812, "trial": 46, "rt": 1088, "response": "Gamma"}, "47": {"stimulus": 2030, "trial": 47, "rt": 902, "response": "Gamma"}, "44": {"stimulus": 624, "trial": 44, "rt": 1264, "response": "Alpha"}, "45": {"stimulus": 655, "trial": 45, "rt": 825, "response": "Beta"}, "28": {"stimulus": 124, "trial": 28, "rt": 839, "response": "Beta"}, "29": {"stimulus": 2405, "trial": 29, "rt": 833, "response": "Gamma"}, "40": {"stimulus": 280, "trial": 40, "rt": 843, "response": "Alpha"}, "41": {"stimulus": 718, "trial": 41, "rt": 3001, "response": "Beta"}, "1": {"stimulus": 812, "trial": 1, "rt": 1508, "response": "Beta"}, "0": {"stimulus": 843, "trial": 0, "rt": 1658, "response": "Alpha"}, "3": {"stimulus": 780, "trial": 3, "rt": 1143, "response": "Alpha"}, "2": {"stimulus": 2499, "trial": 2, "rt": 1206, "response": "Gamma"}, "5": {"stimulus": 2187, "trial": 5, "rt": 1203, "response": "Gamma"}, "4": {"stimulus": 1655, "trial": 4, "rt": 755, "response": "Beta"}, "7": {"stimulus": 187, "trial": 7, "rt": 879, "response": "Alpha"}, "6": {"stimulus": 1562, "trial": 6, "rt": 723, "response": "Beta"}, "9": {"stimulus": 1124, "trial": 9, "rt": 1412, "response": "Alpha"}, "8": {"stimulus": 437, "trial": 8, "rt": 1154, "response": "Alpha"}, "78": {"stimulus": 2155, "trial": 78, "rt": 919, "response": "Gamma"}, "51": {"stimulus": 1499, "trial": 51, "rt": 987, "response": "Gamma"}, "39": {"stimulus": 593, "trial": 39, "rt": 1151, "response": "Alpha"}, "65": {"stimulus": 1437, "trial": 65, "rt": 718, "response": "Gamma"}, "76": {"stimulus": 999, "trial": 76, "rt": 2782, "response": "Alpha"}, "75": {"stimulus": 249, "trial": 75, "rt": 981, "response": "Alpha"}, "38": {"stimulus": 2374, "trial": 38, "rt": 1042, "response": "Gamma"}, "73": {"stimulus": 2124, "trial": 73, "rt": 868, "response": "Gamma"}, "72": {"stimulus": 468, "trial": 72, "rt": 1264, "response": "Beta"}, "71": {"stimulus": 1155, "trial": 71, "rt": 1084, "response": "Beta"}, "70": {"stimulus": 1312, "trial": 70, "rt": 839, "response": "Gamma"}, "59": {"stimulus": 687, "trial": 59, "rt": 1430, "response": "Alpha"}, "79": {"stimulus": 1530, "trial": 79, "rt": 782, "response": "Gamma"}, "58": {"stimulus": 2437, "trial": 58, "rt": 898, "response": "Gamma"}, "11": {"stimulus": 2468, "trial": 11, "rt": 983, "response": "Gamma"}, "10": {"stimulus": 1030, "trial": 10, "rt": 943, "response": "Alpha"}, "13": {"stimulus": 93, "trial": 13, "rt": 1061, "response": "Alpha"}, "12": {"stimulus": 1843, "trial": 12, "rt": 1430, "response": "Gamma"}, "15": {"stimulus": 1624, "trial": 15, "rt": 1259, "response": "Beta"}, "14": {"stimulus": 62, "trial": 14, "rt": 776, "response": "Beta"}, "17": {"stimulus": 2062, "trial": 17, "rt": 855, "response": "Gamma"}, "16": {"stimulus": 1093, "trial": 16, "rt": 1375, "response": "Alpha"}, "19": {"stimulus": 1937, "trial": 19, "rt": 868, "response": "Gamma"}, "18": {"stimulus": 2249, "trial": 18, "rt": 1230, "response": "Gamma"}, "31": {"stimulus": 1968, "trial": 31, "rt": 1122, "response": "Beta"}, "30": {"stimulus": 905, "trial": 30, "rt": 1115, "response": "Beta"}, "37": {"stimulus": 2312, "trial": 37, "rt": 1042, "response": "Gamma"}, "36": {"stimulus": 30, "trial": 36, "rt": 807, "response": "Alpha"}, "35": {"stimulus": 374, "trial": 35, "rt": 951, "response": "Alpha"}, "34": {"stimulus": 1874, "trial": 34, "rt": 968, "response": "Alpha"}, "33": {"stimulus": 937, "trial": 33, "rt": 1853, "response": "Alpha"}, "55": {"stimulus": 968, "trial": 55, "rt": 2058, "response": "Beta"}, "74": {"stimulus": 1999, "trial": 74, "rt": 825, "response": "Gamma"}, "32": {"stimulus": 0, "trial": 32, "rt": 895, "response": "Beta"}, "57": {"stimulus": 874, "trial": 57, "rt": 1219, "response": "Alpha"}, "50": {"stimulus": 1280, "trial": 50, "rt": 2136, "response": "Gamma"}}, "experiment": {"Paradigm": "TACL", "Stimuli": "Size-Color Squares", "Experiment": "Generating-Multiple-Categories"}, "submit": {"timeTotal": 415783, "age": "40", "comments": "", "sex": "female"}}