{"info": {"finish": 1548164645805, "participant": 350, "exposed": true, "lab": false, "start": 1548164235741, "counterbalance": 1, "gentype": 2, "condition": "Row", "browser": {"platform": "Win32", "userAgent": "Mozilla/5.0 (Windows NT 10.0; Win64; x64) AppleWebKit/537.36 (KHTML, like Gecko) Chrome/71.0.3578.98 Safari/537.36"}}, "observation": {"11": {"stimulus": 493, "trial": 11, "rt": 1461}, "10": {"stimulus": 582, "trial": 10, "rt": 1992}, "1": {"stimulus": 582, "trial": 1, "rt": 2350}, "0": {"stimulus": 493, "trial": 0, "rt": 2820}, "3": {"stimulus": 612, "trial": 3, "rt": 2152}, "2": {"stimulus": 421, "trial": 2, "rt": 2199}, "5": {"stimulus": 612, "trial": 5, "rt": 1680}, "4": {"stimulus": 582, "trial": 4, "rt": 2374}, "7": {"stimulus": 493, "trial": 7, "rt": 1455}, "6": {"stimulus": 421, "trial": 6, "rt": 1582}, "9": {"stimulus": 612, "trial": 9, "rt": 1887}, "8": {"stimulus": 421, "trial": 8, "rt": 1894}}, "generation": {"1": {"category": "Beta", "trial": 1, "stimulus": 2224, "rt": 6238}, "0": {"category": "Beta", "trial": 0, "stimulus": 2463, "rt": 16997}, "3": {"category": "Beta", "trial": 3, "stimulus": 2207, "rt": 5343}, "2": {"category": "Beta", "trial": 2, "stimulus": 2291, "rt": 6383}, "5": {"category": "Gamma", "trial": 5, "stimulus": 49, "rt": 5703}, "4": {"category": "Gamma", "trial": 4, "stimulus": 0, "rt": 34593}, "7": {"category": "Gamma", "trial": 7, "stimulus": 16, "rt": 5704}, "6": {"category": "Gamma", "trial": 6, "stimulus": 22, "rt": 3927}}, "generalization": {"56": {"stimulus": 374, "trial": 56, "rt": 1375, "response": "Alpha"}, "77": {"stimulus": 1499, "trial": 77, "rt": 630, "response": "Gamma"}, "54": {"stimulus": 718, "trial": 54, "rt": 1663, "response": "Beta"}, "42": {"stimulus": 1530, "trial": 42, "rt": 1976, "response": "Gamma"}, "48": {"stimulus": 155, "trial": 48, "rt": 1398, "response": "Alpha"}, "43": {"stimulus": 1937, "trial": 43, "rt": 1390, "response": "Gamma"}, "60": {"stimulus": 2155, "trial": 60, "rt": 917, "response": "Gamma"}, "61": {"stimulus": 187, "trial": 61, "rt": 1030, "response": "Alpha"}, "62": {"stimulus": 405, "trial": 62, "rt": 2072, "response": "Alpha"}, "63": {"stimulus": 2093, "trial": 63, "rt": 879, "response": "Gamma"}, "64": {"stimulus": 2280, "trial": 64, "rt": 903, "response": "Gamma"}, "49": {"stimulus": 62, "trial": 49, "rt": 896, "response": "Alpha"}, "66": {"stimulus": 999, "trial": 66, "rt": 614, "response": "Beta"}, "67": {"stimulus": 1905, "trial": 67, "rt": 935, "response": "Gamma"}, "68": {"stimulus": 1749, "trial": 68, "rt": 638, "response": "Gamma"}, "69": {"stimulus": 343, "trial": 69, "rt": 993, "response": "Beta"}, "80": {"stimulus": 1187, "trial": 80, "rt": 1110, "response": "Gamma"}, "52": {"stimulus": 312, "trial": 52, "rt": 1304, "response": "Alpha"}, "53": {"stimulus": 874, "trial": 53, "rt": 1295, "response": "Beta"}, "24": {"stimulus": 2218, "trial": 24, "rt": 903, "response": "Gamma"}, "25": {"stimulus": 0, "trial": 25, "rt": 6198, "response": "Beta"}, "26": {"stimulus": 1562, "trial": 26, "rt": 1150, "response": "Gamma"}, "27": {"stimulus": 30, "trial": 27, "rt": 1575, "response": "Alpha"}, "20": {"stimulus": 655, "trial": 20, "rt": 726, "response": "Beta"}, "21": {"stimulus": 2312, "trial": 21, "rt": 1103, "response": "Gamma"}, "22": {"stimulus": 249, "trial": 22, "rt": 2413, "response": "Alpha"}, "23": {"stimulus": 780, "trial": 23, "rt": 1760, "response": "Beta"}, "46": {"stimulus": 437, "trial": 46, "rt": 1776, "response": "Beta"}, "47": {"stimulus": 1843, "trial": 47, "rt": 1086, "response": "Gamma"}, "44": {"stimulus": 2249, "trial": 44, "rt": 694, "response": "Gamma"}, "45": {"stimulus": 1030, "trial": 45, "rt": 880, "response": "Beta"}, "28": {"stimulus": 1780, "trial": 28, "rt": 1557, "response": "Gamma"}, "29": {"stimulus": 1093, "trial": 29, "rt": 1198, "response": "Beta"}, "40": {"stimulus": 93, "trial": 40, "rt": 1302, "response": "Alpha"}, "41": {"stimulus": 749, "trial": 41, "rt": 2694, "response": "Alpha"}, "1": {"stimulus": 499, "trial": 1, "rt": 4615, "response": "Alpha"}, "0": {"stimulus": 1874, "trial": 0, "rt": 12182, "response": "Beta"}, "3": {"stimulus": 1343, "trial": 3, "rt": 2559, "response": "Beta"}, "2": {"stimulus": 2124, "trial": 2, "rt": 2406, "response": "Gamma"}, "5": {"stimulus": 2062, "trial": 5, "rt": 2687, "response": "Gamma"}, "4": {"stimulus": 562, "trial": 4, "rt": 1327, "response": "Beta"}, "7": {"stimulus": 124, "trial": 7, "rt": 14167, "response": "Alpha"}, "6": {"stimulus": 905, "trial": 6, "rt": 4349, "response": "Alpha"}, "9": {"stimulus": 593, "trial": 9, "rt": 1855, "response": "Alpha"}, "8": {"stimulus": 468, "trial": 8, "rt": 1927, "response": "Alpha"}, "78": {"stimulus": 1280, "trial": 78, "rt": 678, "response": "Gamma"}, "51": {"stimulus": 1374, "trial": 51, "rt": 855, "response": "Gamma"}, "39": {"stimulus": 1624, "trial": 39, "rt": 1664, "response": "Gamma"}, "65": {"stimulus": 687, "trial": 65, "rt": 760, "response": "Beta"}, "76": {"stimulus": 1687, "trial": 76, "rt": 759, "response": "Gamma"}, "75": {"stimulus": 1249, "trial": 75, "rt": 2990, "response": "Gamma"}, "38": {"stimulus": 2468, "trial": 38, "rt": 941, "response": "Gamma"}, "73": {"stimulus": 1218, "trial": 73, "rt": 1015, "response": "Beta"}, "72": {"stimulus": 1155, "trial": 72, "rt": 4950, "response": "Beta"}, "71": {"stimulus": 937, "trial": 71, "rt": 1231, "response": "Beta"}, "70": {"stimulus": 2343, "trial": 70, "rt": 910, "response": "Gamma"}, "59": {"stimulus": 1718, "trial": 59, "rt": 1119, "response": "Gamma"}, "79": {"stimulus": 2187, "trial": 79, "rt": 966, "response": "Gamma"}, "58": {"stimulus": 1124, "trial": 58, "rt": 1943, "response": "Beta"}, "11": {"stimulus": 2437, "trial": 11, "rt": 1661, "response": "Gamma"}, "10": {"stimulus": 1593, "trial": 10, "rt": 3025, "response": "Beta"}, "13": {"stimulus": 2030, "trial": 13, "rt": 1078, "response": "Gamma"}, "12": {"stimulus": 1812, "trial": 12, "rt": 1911, "response": "Gamma"}, "15": {"stimulus": 624, "trial": 15, "rt": 677, "response": "Beta"}, "14": {"stimulus": 843, "trial": 14, "rt": 1039, "response": "Beta"}, "17": {"stimulus": 1405, "trial": 17, "rt": 3023, "response": "Beta"}, "16": {"stimulus": 2499, "trial": 16, "rt": 1054, "response": "Gamma"}, "19": {"stimulus": 812, "trial": 19, "rt": 1071, "response": "Beta"}, "18": {"stimulus": 530, "trial": 18, "rt": 2334, "response": "Beta"}, "31": {"stimulus": 1468, "trial": 31, "rt": 1753, "response": "Gamma"}, "30": {"stimulus": 218, "trial": 30, "rt": 1231, "response": "Alpha"}, "37": {"stimulus": 1062, "trial": 37, "rt": 1261, "response": "Beta"}, "36": {"stimulus": 2374, "trial": 36, "rt": 1183, "response": "Gamma"}, "35": {"stimulus": 1655, "trial": 35, "rt": 934, "response": "Gamma"}, "34": {"stimulus": 1437, "trial": 34, "rt": 1431, "response": "Gamma"}, "33": {"stimulus": 968, "trial": 33, "rt": 3632, "response": "Beta"}, "55": {"stimulus": 1999, "trial": 55, "rt": 984, "response": "Gamma"}, "74": {"stimulus": 1968, "trial": 74, "rt": 799, "response": "Gamma"}, "32": {"stimulus": 280, "trial": 32, "rt": 852, "response": "Beta"}, "57": {"stimulus": 2405, "trial": 57, "rt": 911, "response": "Gamma"}, "50": {"stimulus": 1312, "trial": 50, "rt": 2086, "response": "Gamma"}}, "experiment": {"Paradigm": "TACL", "Stimuli": "Size-Color Squares", "Experiment": "Generating-Multiple-Categories"}, "submit": {"timeTotal": 410257, "age": "36", "comments": "Thanks.", "sex": "Male"}}