{"info": {"finish": 1548168578225, "participant": 352, "exposed": true, "lab": false, "start": 1548168377323, "counterbalance": 1, "gentype": 2, "condition": "Row", "browser": {"platform": "Win32", "userAgent": "Mozilla/5.0 (Windows NT 6.1; WOW64; rv:64.0) Gecko/20100101 Firefox/64.0"}}, "observation": {"11": {"stimulus": 612, "trial": 11, "rt": 1335}, "10": {"stimulus": 493, "trial": 10, "rt": 1381}, "1": {"stimulus": 612, "trial": 1, "rt": 1974}, "0": {"stimulus": 421, "trial": 0, "rt": 4321}, "3": {"stimulus": 582, "trial": 3, "rt": 2021}, "2": {"stimulus": 493, "trial": 2, "rt": 1587}, "5": {"stimulus": 612, "trial": 5, "rt": 1909}, "4": {"stimulus": 421, "trial": 4, "rt": 1792}, "7": {"stimulus": 582, "trial": 7, "rt": 1803}, "6": {"stimulus": 493, "trial": 6, "rt": 1705}, "9": {"stimulus": 421, "trial": 9, "rt": 1334}, "8": {"stimulus": 582, "trial": 8, "rt": 1218}}, "generation": {"1": {"category": "Beta", "trial": 1, "stimulus": 1233, "rt": 2635}, "0": {"category": "Beta", "trial": 0, "stimulus": 1180, "rt": 3884}, "3": {"category": "Beta", "trial": 3, "stimulus": 1038, "rt": 2494}, "2": {"category": "Beta", "trial": 2, "stimulus": 39, "rt": 4874}, "5": {"category": "Gamma", "trial": 5, "stimulus": 34, "rt": 2852}, "4": {"category": "Gamma", "trial": 4, "stimulus": 1136, "rt": 1981}, "7": {"category": "Gamma", "trial": 7, "stimulus": 2235, "rt": 1515}, "6": {"category": "Gamma", "trial": 6, "stimulus": 985, "rt": 2506}}, "generalization": {"56": {"stimulus": 1905, "trial": 56, "rt": 278, "response": "Gamma"}, "77": {"stimulus": 1093, "trial": 77, "rt": 602, "response": "Gamma"}, "54": {"stimulus": 1437, "trial": 54, "rt": 107, "response": "Alpha"}, "42": {"stimulus": 530, "trial": 42, "rt": 503, "response": "Alpha"}, "48": {"stimulus": 1874, "trial": 48, "rt": 211, "response": "Gamma"}, "43": {"stimulus": 905, "trial": 43, "rt": 944, "response": "Gamma"}, "60": {"stimulus": 1624, "trial": 60, "rt": 681, "response": "Beta"}, "61": {"stimulus": 624, "trial": 61, "rt": 230, "response": "Beta"}, "62": {"stimulus": 1405, "trial": 62, "rt": 371, "response": "Alpha"}, "63": {"stimulus": 562, "trial": 63, "rt": 417, "response": "Beta"}, "64": {"stimulus": 1312, "trial": 64, "rt": 183, "response": "Alpha"}, "49": {"stimulus": 1062, "trial": 49, "rt": 126, "response": "Beta"}, "66": {"stimulus": 1843, "trial": 66, "rt": 1494, "response": "Gamma"}, "67": {"stimulus": 1030, "trial": 67, "rt": 391, "response": "Beta"}, "68": {"stimulus": 2405, "trial": 68, "rt": 375, "response": "Alpha"}, "69": {"stimulus": 0, "trial": 69, "rt": 122, "response": "Beta"}, "80": {"stimulus": 1687, "trial": 80, "rt": 94, "response": "Beta"}, "52": {"stimulus": 2062, "trial": 52, "rt": 914, "response": "Beta"}, "53": {"stimulus": 1124, "trial": 53, "rt": 734, "response": "Gamma"}, "24": {"stimulus": 1593, "trial": 24, "rt": 529, "response": "Beta"}, "25": {"stimulus": 655, "trial": 25, "rt": 344, "response": "Alpha"}, "26": {"stimulus": 1468, "trial": 26, "rt": 1617, "response": "Beta"}, "27": {"stimulus": 687, "trial": 27, "rt": 374, "response": "Gamma"}, "20": {"stimulus": 1937, "trial": 20, "rt": 197, "response": "Alpha"}, "21": {"stimulus": 1562, "trial": 21, "rt": 453, "response": "Beta"}, "22": {"stimulus": 1780, "trial": 22, "rt": 397, "response": "Beta"}, "23": {"stimulus": 968, "trial": 23, "rt": 353, "response": "Gamma"}, "46": {"stimulus": 843, "trial": 46, "rt": 480, "response": "Beta"}, "47": {"stimulus": 2030, "trial": 47, "rt": 94, "response": "Alpha"}, "44": {"stimulus": 1155, "trial": 44, "rt": 635, "response": "Beta"}, "45": {"stimulus": 124, "trial": 45, "rt": 418, "response": "Alpha"}, "28": {"stimulus": 374, "trial": 28, "rt": 183, "response": "Beta"}, "29": {"stimulus": 1999, "trial": 29, "rt": 753, "response": "Beta"}, "40": {"stimulus": 343, "trial": 40, "rt": 382, "response": "Beta"}, "41": {"stimulus": 405, "trial": 41, "rt": 768, "response": "Beta"}, "1": {"stimulus": 1280, "trial": 1, "rt": 573, "response": "Alpha"}, "0": {"stimulus": 2093, "trial": 0, "rt": 3726, "response": "Alpha"}, "3": {"stimulus": 2249, "trial": 3, "rt": 799, "response": "Beta"}, "2": {"stimulus": 1499, "trial": 2, "rt": 729, "response": "Beta"}, "5": {"stimulus": 2124, "trial": 5, "rt": 615, "response": "Alpha"}, "4": {"stimulus": 1530, "trial": 4, "rt": 389, "response": "Beta"}, "7": {"stimulus": 593, "trial": 7, "rt": 717, "response": "Beta"}, "6": {"stimulus": 1968, "trial": 6, "rt": 911, "response": "Alpha"}, "9": {"stimulus": 1812, "trial": 9, "rt": 389, "response": "Beta"}, "8": {"stimulus": 312, "trial": 8, "rt": 365, "response": "Gamma"}, "78": {"stimulus": 1187, "trial": 78, "rt": 218, "response": "Beta"}, "51": {"stimulus": 437, "trial": 51, "rt": 642, "response": "Beta"}, "39": {"stimulus": 1374, "trial": 39, "rt": 1069, "response": "Alpha"}, "65": {"stimulus": 218, "trial": 65, "rt": 402, "response": "Beta"}, "76": {"stimulus": 718, "trial": 76, "rt": 175, "response": "Alpha"}, "75": {"stimulus": 1249, "trial": 75, "rt": 159, "response": "Beta"}, "38": {"stimulus": 1749, "trial": 38, "rt": 667, "response": "Beta"}, "73": {"stimulus": 499, "trial": 73, "rt": 193, "response": "Beta"}, "72": {"stimulus": 2374, "trial": 72, "rt": 133, "response": "Beta"}, "71": {"stimulus": 1218, "trial": 71, "rt": 91, "response": "Alpha"}, "70": {"stimulus": 468, "trial": 70, "rt": 103, "response": "Gamma"}, "59": {"stimulus": 2343, "trial": 59, "rt": 655, "response": "Beta"}, "79": {"stimulus": 749, "trial": 79, "rt": 781, "response": "Alpha"}, "58": {"stimulus": 812, "trial": 58, "rt": 451, "response": "Alpha"}, "11": {"stimulus": 2155, "trial": 11, "rt": 636, "response": "Beta"}, "10": {"stimulus": 1718, "trial": 10, "rt": 181, "response": "Alpha"}, "13": {"stimulus": 1343, "trial": 13, "rt": 1043, "response": "Beta"}, "12": {"stimulus": 249, "trial": 12, "rt": 2000, "response": "Beta"}, "15": {"stimulus": 2437, "trial": 15, "rt": 453, "response": "Alpha"}, "14": {"stimulus": 874, "trial": 14, "rt": 411, "response": "Beta"}, "17": {"stimulus": 2499, "trial": 17, "rt": 238, "response": "Alpha"}, "16": {"stimulus": 2468, "trial": 16, "rt": 88, "response": "Beta"}, "19": {"stimulus": 2187, "trial": 19, "rt": 119, "response": "Beta"}, "18": {"stimulus": 937, "trial": 18, "rt": 700, "response": "Gamma"}, "31": {"stimulus": 155, "trial": 31, "rt": 513, "response": "Beta"}, "30": {"stimulus": 2218, "trial": 30, "rt": 270, "response": "Alpha"}, "37": {"stimulus": 62, "trial": 37, "rt": 885, "response": "Alpha"}, "36": {"stimulus": 280, "trial": 36, "rt": 1088, "response": "Gamma"}, "35": {"stimulus": 2312, "trial": 35, "rt": 797, "response": "Beta"}, "34": {"stimulus": 30, "trial": 34, "rt": 613, "response": "Beta"}, "33": {"stimulus": 999, "trial": 33, "rt": 167, "response": "Beta"}, "55": {"stimulus": 780, "trial": 55, "rt": 650, "response": "Beta"}, "74": {"stimulus": 187, "trial": 74, "rt": 159, "response": "Alpha"}, "32": {"stimulus": 1655, "trial": 32, "rt": 159, "response": "Gamma"}, "57": {"stimulus": 2280, "trial": 57, "rt": 375, "response": "Beta"}, "50": {"stimulus": 93, "trial": 50, "rt": 204, "response": "Alpha"}}, "experiment": {"Paradigm": "TACL", "Stimuli": "Size-Color Squares", "Experiment": "Generating-Multiple-Categories"}, "submit": {"timeTotal": 202125, "age": "25", "comments": "Very interesting", "sex": "male"}}