{"info": {"finish": 1548171245681, "participant": 361, "exposed": true, "lab": false, "start": 1548170723605, "counterbalance": 2, "gentype": 2, "condition": "Row", "browser": {"platform": "Win32", "userAgent": "Mozilla/5.0 (Windows NT 10.0; Win64; x64) AppleWebKit/537.36 (KHTML, like Gecko) Chrome/71.0.3578.98 Safari/537.36"}}, "observation": {"11": {"stimulus": 612, "trial": 11, "rt": 1754}, "10": {"stimulus": 582, "trial": 10, "rt": 2501}, "1": {"stimulus": 582, "trial": 1, "rt": 6745}, "0": {"stimulus": 493, "trial": 0, "rt": 5049}, "3": {"stimulus": 421, "trial": 3, "rt": 3483}, "2": {"stimulus": 612, "trial": 2, "rt": 5239}, "5": {"stimulus": 582, "trial": 5, "rt": 2837}, "4": {"stimulus": 421, "trial": 4, "rt": 4254}, "7": {"stimulus": 493, "trial": 7, "rt": 3439}, "6": {"stimulus": 612, "trial": 6, "rt": 2512}, "9": {"stimulus": 421, "trial": 9, "rt": 3958}, "8": {"stimulus": 493, "trial": 8, "rt": 5184}}, "generation": {"1": {"category": "Beta", "trial": 1, "stimulus": 2393, "rt": 8607}, "0": {"category": "Beta", "trial": 0, "stimulus": 2330, "rt": 22240}, "3": {"category": "Beta", "trial": 3, "stimulus": 2390, "rt": 10783}, "2": {"category": "Beta", "trial": 2, "stimulus": 2359, "rt": 10566}, "5": {"category": "Gamma", "trial": 5, "stimulus": 1249, "rt": 9254}, "4": {"category": "Gamma", "trial": 4, "stimulus": 1194, "rt": 23759}, "7": {"category": "Gamma", "trial": 7, "stimulus": 1234, "rt": 8449}, "6": {"category": "Gamma", "trial": 6, "stimulus": 1159, "rt": 12273}}, "generalization": {"56": {"stimulus": 1624, "trial": 56, "rt": 1764, "response": "Gamma"}, "77": {"stimulus": 562, "trial": 77, "rt": 1265, "response": "Alpha"}, "54": {"stimulus": 718, "trial": 54, "rt": 7026, "response": "Alpha"}, "42": {"stimulus": 1218, "trial": 42, "rt": 2312, "response": "Gamma"}, "48": {"stimulus": 749, "trial": 48, "rt": 2043, "response": "Gamma"}, "43": {"stimulus": 1280, "trial": 43, "rt": 1349, "response": "Gamma"}, "60": {"stimulus": 2124, "trial": 60, "rt": 1265, "response": "Beta"}, "61": {"stimulus": 530, "trial": 61, "rt": 1900, "response": "Alpha"}, "62": {"stimulus": 499, "trial": 62, "rt": 1534, "response": "Alpha"}, "63": {"stimulus": 1030, "trial": 63, "rt": 2874, "response": "Gamma"}, "64": {"stimulus": 1812, "trial": 64, "rt": 2786, "response": "Gamma"}, "49": {"stimulus": 155, "trial": 49, "rt": 1216, "response": "Alpha"}, "66": {"stimulus": 1937, "trial": 66, "rt": 1153, "response": "Gamma"}, "67": {"stimulus": 2468, "trial": 67, "rt": 1046, "response": "Beta"}, "68": {"stimulus": 937, "trial": 68, "rt": 1965, "response": "Gamma"}, "69": {"stimulus": 1312, "trial": 69, "rt": 1400, "response": "Gamma"}, "80": {"stimulus": 1593, "trial": 80, "rt": 1264, "response": "Gamma"}, "52": {"stimulus": 1905, "trial": 52, "rt": 2507, "response": "Gamma"}, "53": {"stimulus": 2405, "trial": 53, "rt": 1022, "response": "Beta"}, "24": {"stimulus": 1155, "trial": 24, "rt": 4156, "response": "Gamma"}, "25": {"stimulus": 874, "trial": 25, "rt": 3383, "response": "Alpha"}, "26": {"stimulus": 0, "trial": 26, "rt": 1264, "response": "Alpha"}, "27": {"stimulus": 2155, "trial": 27, "rt": 1556, "response": "Beta"}, "20": {"stimulus": 405, "trial": 20, "rt": 1254, "response": "Alpha"}, "21": {"stimulus": 1093, "trial": 21, "rt": 1462, "response": "Gamma"}, "22": {"stimulus": 2280, "trial": 22, "rt": 1591, "response": "Beta"}, "23": {"stimulus": 2437, "trial": 23, "rt": 1422, "response": "Beta"}, "46": {"stimulus": 2312, "trial": 46, "rt": 1336, "response": "Beta"}, "47": {"stimulus": 1062, "trial": 47, "rt": 1298, "response": "Gamma"}, "44": {"stimulus": 1874, "trial": 44, "rt": 1314, "response": "Beta"}, "45": {"stimulus": 312, "trial": 45, "rt": 1314, "response": "Alpha"}, "28": {"stimulus": 1749, "trial": 28, "rt": 4462, "response": "Gamma"}, "29": {"stimulus": 624, "trial": 29, "rt": 1350, "response": "Alpha"}, "40": {"stimulus": 655, "trial": 40, "rt": 1582, "response": "Alpha"}, "41": {"stimulus": 93, "trial": 41, "rt": 1166, "response": "Alpha"}, "1": {"stimulus": 249, "trial": 1, "rt": 1371, "response": "Alpha"}, "0": {"stimulus": 1530, "trial": 0, "rt": 3321, "response": "Gamma"}, "3": {"stimulus": 2093, "trial": 3, "rt": 4172, "response": "Beta"}, "2": {"stimulus": 124, "trial": 2, "rt": 1496, "response": "Alpha"}, "5": {"stimulus": 1405, "trial": 5, "rt": 1628, "response": "Gamma"}, "4": {"stimulus": 905, "trial": 4, "rt": 3201, "response": "Gamma"}, "7": {"stimulus": 343, "trial": 7, "rt": 1276, "response": "Alpha"}, "6": {"stimulus": 437, "trial": 6, "rt": 1326, "response": "Alpha"}, "9": {"stimulus": 2187, "trial": 9, "rt": 1518, "response": "Beta"}, "8": {"stimulus": 593, "trial": 8, "rt": 2285, "response": "Alpha"}, "78": {"stimulus": 2218, "trial": 78, "rt": 1190, "response": "Beta"}, "51": {"stimulus": 374, "trial": 51, "rt": 1385, "response": "Alpha"}, "39": {"stimulus": 1468, "trial": 39, "rt": 1435, "response": "Gamma"}, "65": {"stimulus": 1843, "trial": 65, "rt": 7272, "response": "Gamma"}, "76": {"stimulus": 1718, "trial": 76, "rt": 2447, "response": "Gamma"}, "75": {"stimulus": 2374, "trial": 75, "rt": 1142, "response": "Beta"}, "38": {"stimulus": 999, "trial": 38, "rt": 2285, "response": "Gamma"}, "73": {"stimulus": 1249, "trial": 73, "rt": 1397, "response": "Gamma"}, "72": {"stimulus": 1999, "trial": 72, "rt": 1582, "response": "Beta"}, "71": {"stimulus": 1562, "trial": 71, "rt": 1211, "response": "Gamma"}, "70": {"stimulus": 187, "trial": 70, "rt": 1203, "response": "Alpha"}, "59": {"stimulus": 1499, "trial": 59, "rt": 2134, "response": "Gamma"}, "79": {"stimulus": 1655, "trial": 79, "rt": 1326, "response": "Gamma"}, "58": {"stimulus": 2499, "trial": 58, "rt": 1518, "response": "Beta"}, "11": {"stimulus": 30, "trial": 11, "rt": 2592, "response": "Alpha"}, "10": {"stimulus": 2249, "trial": 10, "rt": 1275, "response": "Beta"}, "13": {"stimulus": 2062, "trial": 13, "rt": 1361, "response": "Beta"}, "12": {"stimulus": 1437, "trial": 12, "rt": 2334, "response": "Gamma"}, "15": {"stimulus": 218, "trial": 15, "rt": 1140, "response": "Alpha"}, "14": {"stimulus": 687, "trial": 14, "rt": 6997, "response": "Alpha"}, "17": {"stimulus": 2343, "trial": 17, "rt": 1800, "response": "Beta"}, "16": {"stimulus": 1343, "trial": 16, "rt": 1350, "response": "Gamma"}, "19": {"stimulus": 843, "trial": 19, "rt": 5697, "response": "Alpha"}, "18": {"stimulus": 1687, "trial": 18, "rt": 1542, "response": "Gamma"}, "31": {"stimulus": 812, "trial": 31, "rt": 3519, "response": "Gamma"}, "30": {"stimulus": 1187, "trial": 30, "rt": 2787, "response": "Gamma"}, "37": {"stimulus": 1374, "trial": 37, "rt": 2256, "response": "Gamma"}, "36": {"stimulus": 280, "trial": 36, "rt": 1300, "response": "Alpha"}, "35": {"stimulus": 1780, "trial": 35, "rt": 1910, "response": "Gamma"}, "34": {"stimulus": 968, "trial": 34, "rt": 1776, "response": "Gamma"}, "33": {"stimulus": 780, "trial": 33, "rt": 4601, "response": "Alpha"}, "55": {"stimulus": 468, "trial": 55, "rt": 1348, "response": "Alpha"}, "74": {"stimulus": 2030, "trial": 74, "rt": 3739, "response": "Beta"}, "32": {"stimulus": 62, "trial": 32, "rt": 1498, "response": "Alpha"}, "57": {"stimulus": 1968, "trial": 57, "rt": 4059, "response": "Beta"}, "50": {"stimulus": 1124, "trial": 50, "rt": 1545, "response": "Gamma"}}, "experiment": {"Paradigm": "TACL", "Stimuli": "Size-Color Squares", "Experiment": "Generating-Multiple-Categories"}, "submit": {"timeTotal": 522384, "age": "39", "comments": "", "sex": "male"}}