{"info": {"finish": 1548171465969, "participant": 363, "exposed": true, "lab": false, "start": 1548171064293, "counterbalance": 6, "gentype": 2, "condition": "XOR", "browser": {"platform": "Linux x86_64", "userAgent": "Mozilla/5.0 (X11; Linux x86_64; rv:63.0) Gecko/20100101 Firefox/63.0"}}, "observation": {"11": {"stimulus": 818, "trial": 11, "rt": 1580}, "10": {"stimulus": 1890, "trial": 10, "rt": 1703}, "1": {"stimulus": 1890, "trial": 1, "rt": 2029}, "0": {"stimulus": 818, "trial": 0, "rt": 3199}, "3": {"stimulus": 1479, "trial": 3, "rt": 1841}, "2": {"stimulus": 403, "trial": 2, "rt": 2687}, "5": {"stimulus": 818, "trial": 5, "rt": 1693}, "4": {"stimulus": 1890, "trial": 4, "rt": 1642}, "7": {"stimulus": 403, "trial": 7, "rt": 1669}, "6": {"stimulus": 1479, "trial": 6, "rt": 2197}, "9": {"stimulus": 403, "trial": 9, "rt": 1812}, "8": {"stimulus": 1479, "trial": 8, "rt": 2298}}, "generation": {"1": {"category": "Beta", "trial": 1, "stimulus": 2475, "rt": 8405}, "0": {"category": "Beta", "trial": 0, "stimulus": 2499, "rt": 29173}, "3": {"category": "Beta", "trial": 3, "stimulus": 2473, "rt": 5492}, "2": {"category": "Beta", "trial": 2, "stimulus": 2450, "rt": 5229}, "5": {"category": "Gamma", "trial": 5, "stimulus": 17, "rt": 6140}, "4": {"category": "Gamma", "trial": 4, "stimulus": 0, "rt": 8687}, "7": {"category": "Gamma", "trial": 7, "stimulus": 49, "rt": 3139}, "6": {"category": "Gamma", "trial": 6, "stimulus": 34, "rt": 4106}}, "generalization": {"56": {"stimulus": 1124, "trial": 56, "rt": 881, "response": "Alpha"}, "77": {"stimulus": 2312, "trial": 77, "rt": 1469, "response": "Alpha"}, "54": {"stimulus": 1655, "trial": 54, "rt": 896, "response": "Alpha"}, "42": {"stimulus": 1468, "trial": 42, "rt": 1005, "response": "Alpha"}, "48": {"stimulus": 343, "trial": 48, "rt": 1199, "response": "Gamma"}, "43": {"stimulus": 2499, "trial": 43, "rt": 1296, "response": "Beta"}, "60": {"stimulus": 1249, "trial": 60, "rt": 1041, "response": "Alpha"}, "61": {"stimulus": 2187, "trial": 61, "rt": 1055, "response": "Alpha"}, "62": {"stimulus": 780, "trial": 62, "rt": 1212, "response": "Alpha"}, "63": {"stimulus": 280, "trial": 63, "rt": 960, "response": "Gamma"}, "64": {"stimulus": 718, "trial": 64, "rt": 1061, "response": "Gamma"}, "49": {"stimulus": 1030, "trial": 49, "rt": 1034, "response": "Alpha"}, "66": {"stimulus": 374, "trial": 66, "rt": 1491, "response": "Gamma"}, "67": {"stimulus": 1562, "trial": 67, "rt": 935, "response": "Alpha"}, "68": {"stimulus": 93, "trial": 68, "rt": 933, "response": "Gamma"}, "69": {"stimulus": 1968, "trial": 69, "rt": 975, "response": "Alpha"}, "80": {"stimulus": 937, "trial": 80, "rt": 1165, "response": "Alpha"}, "52": {"stimulus": 905, "trial": 52, "rt": 1282, "response": "Alpha"}, "53": {"stimulus": 499, "trial": 53, "rt": 996, "response": "Gamma"}, "24": {"stimulus": 1343, "trial": 24, "rt": 1036, "response": "Alpha"}, "25": {"stimulus": 1874, "trial": 25, "rt": 1079, "response": "Beta"}, "26": {"stimulus": 968, "trial": 26, "rt": 1115, "response": "Alpha"}, "27": {"stimulus": 2062, "trial": 27, "rt": 1304, "response": "Beta"}, "20": {"stimulus": 2093, "trial": 20, "rt": 1860, "response": "Beta"}, "21": {"stimulus": 187, "trial": 21, "rt": 1144, "response": "Gamma"}, "22": {"stimulus": 2343, "trial": 22, "rt": 1130, "response": "Beta"}, "23": {"stimulus": 218, "trial": 23, "rt": 971, "response": "Gamma"}, "46": {"stimulus": 2030, "trial": 46, "rt": 953, "response": "Alpha"}, "47": {"stimulus": 593, "trial": 47, "rt": 944, "response": "Gamma"}, "44": {"stimulus": 249, "trial": 44, "rt": 1364, "response": "Gamma"}, "45": {"stimulus": 2124, "trial": 45, "rt": 1111, "response": "Alpha"}, "28": {"stimulus": 2405, "trial": 28, "rt": 1554, "response": "Beta"}, "29": {"stimulus": 1187, "trial": 29, "rt": 1033, "response": "Alpha"}, "40": {"stimulus": 1812, "trial": 40, "rt": 945, "response": "Beta"}, "41": {"stimulus": 1530, "trial": 41, "rt": 1075, "response": "Alpha"}, "1": {"stimulus": 1593, "trial": 1, "rt": 1435, "response": "Alpha"}, "0": {"stimulus": 437, "trial": 0, "rt": 6261, "response": "Gamma"}, "3": {"stimulus": 1218, "trial": 3, "rt": 1242, "response": "Alpha"}, "2": {"stimulus": 1312, "trial": 2, "rt": 1936, "response": "Alpha"}, "5": {"stimulus": 999, "trial": 5, "rt": 3304, "response": "Gamma"}, "4": {"stimulus": 1437, "trial": 4, "rt": 1332, "response": "Alpha"}, "7": {"stimulus": 562, "trial": 7, "rt": 1031, "response": "Gamma"}, "6": {"stimulus": 1718, "trial": 6, "rt": 1311, "response": "Alpha"}, "9": {"stimulus": 749, "trial": 9, "rt": 1993, "response": "Gamma"}, "8": {"stimulus": 874, "trial": 8, "rt": 1756, "response": "Gamma"}, "78": {"stimulus": 624, "trial": 78, "rt": 1079, "response": "Alpha"}, "51": {"stimulus": 1905, "trial": 51, "rt": 1067, "response": "Alpha"}, "39": {"stimulus": 2374, "trial": 39, "rt": 1025, "response": "Beta"}, "65": {"stimulus": 30, "trial": 65, "rt": 952, "response": "Gamma"}, "76": {"stimulus": 687, "trial": 76, "rt": 1669, "response": "Alpha"}, "75": {"stimulus": 1280, "trial": 75, "rt": 867, "response": "Alpha"}, "38": {"stimulus": 2437, "trial": 38, "rt": 877, "response": "Beta"}, "73": {"stimulus": 2218, "trial": 73, "rt": 848, "response": "Alpha"}, "72": {"stimulus": 1999, "trial": 72, "rt": 915, "response": "Alpha"}, "71": {"stimulus": 1093, "trial": 71, "rt": 1034, "response": "Alpha"}, "70": {"stimulus": 1780, "trial": 70, "rt": 1149, "response": "Alpha"}, "59": {"stimulus": 843, "trial": 59, "rt": 1836, "response": "Alpha"}, "79": {"stimulus": 2155, "trial": 79, "rt": 1392, "response": "Alpha"}, "58": {"stimulus": 155, "trial": 58, "rt": 911, "response": "Gamma"}, "11": {"stimulus": 1062, "trial": 11, "rt": 2371, "response": "Gamma"}, "10": {"stimulus": 2280, "trial": 10, "rt": 2731, "response": "Beta"}, "13": {"stimulus": 2249, "trial": 13, "rt": 1711, "response": "Beta"}, "12": {"stimulus": 1405, "trial": 12, "rt": 1185, "response": "Alpha"}, "15": {"stimulus": 1749, "trial": 15, "rt": 1332, "response": "Alpha"}, "14": {"stimulus": 1374, "trial": 14, "rt": 1343, "response": "Alpha"}, "17": {"stimulus": 812, "trial": 17, "rt": 1378, "response": "Alpha"}, "16": {"stimulus": 124, "trial": 16, "rt": 971, "response": "Gamma"}, "19": {"stimulus": 0, "trial": 19, "rt": 1049, "response": "Gamma"}, "18": {"stimulus": 1687, "trial": 18, "rt": 1439, "response": "Alpha"}, "31": {"stimulus": 1843, "trial": 31, "rt": 923, "response": "Alpha"}, "30": {"stimulus": 312, "trial": 30, "rt": 913, "response": "Gamma"}, "37": {"stimulus": 530, "trial": 37, "rt": 1131, "response": "Alpha"}, "36": {"stimulus": 62, "trial": 36, "rt": 1389, "response": "Gamma"}, "35": {"stimulus": 468, "trial": 35, "rt": 1222, "response": "Gamma"}, "34": {"stimulus": 1937, "trial": 34, "rt": 1058, "response": "Alpha"}, "33": {"stimulus": 1499, "trial": 33, "rt": 994, "response": "Alpha"}, "55": {"stimulus": 405, "trial": 55, "rt": 1119, "response": "Gamma"}, "74": {"stimulus": 1624, "trial": 74, "rt": 902, "response": "Alpha"}, "32": {"stimulus": 655, "trial": 32, "rt": 1074, "response": "Gamma"}, "57": {"stimulus": 2468, "trial": 57, "rt": 949, "response": "Beta"}, "50": {"stimulus": 1155, "trial": 50, "rt": 1089, "response": "Alpha"}}, "experiment": {"Paradigm": "TACL", "Stimuli": "Size-Color Squares", "Experiment": "Generating-Multiple-Categories"}, "submit": {"timeTotal": 401903, "age": "42", "comments": "None", "sex": "Male"}}