{"info": {"finish": 1548173316238, "participant": 367, "exposed": true, "lab": false, "start": 1548172778717, "counterbalance": 6, "gentype": 1, "condition": "Cluster", "browser": {"platform": "Win32", "userAgent": "Mozilla/5.0 (Windows NT 10.0; Win64; x64) AppleWebKit/537.36 (KHTML, like Gecko) Chrome/71.0.3578.98 Safari/537.36"}}, "observation": {"11": {"stimulus": 1083, "trial": 11, "rt": 2454}, "10": {"stimulus": 1093, "trial": 10, "rt": 5212}, "1": {"stimulus": 583, "trial": 1, "rt": 5367}, "0": {"stimulus": 1083, "trial": 0, "rt": 5980}, "3": {"stimulus": 392, "trial": 3, "rt": 3879}, "2": {"stimulus": 1093, "trial": 2, "rt": 3910}, "5": {"stimulus": 1083, "trial": 5, "rt": 5054}, "4": {"stimulus": 392, "trial": 4, "rt": 3062}, "7": {"stimulus": 1093, "trial": 7, "rt": 5039}, "6": {"stimulus": 583, "trial": 6, "rt": 6357}, "9": {"stimulus": 392, "trial": 9, "rt": 3245}, "8": {"stimulus": 583, "trial": 8, "rt": 4669}}, "generation": {"1": {"category": "Beta", "trial": 1, "stimulus": 1355, "rt": 15164}, "0": {"category": "Beta", "trial": 0, "stimulus": 2450, "rt": 32596}, "3": {"category": "Beta", "trial": 3, "stimulus": 1900, "rt": 7538}, "2": {"category": "Beta", "trial": 2, "stimulus": 1553, "rt": 5428}, "5": {"category": "Beta", "trial": 5, "stimulus": 2300, "rt": 5005}, "4": {"category": "Beta", "trial": 4, "stimulus": 1801, "rt": 6654}, "7": {"category": "Beta", "trial": 7, "stimulus": 2001, "rt": 11901}, "6": {"category": "Beta", "trial": 6, "stimulus": 2052, "rt": 5164}}, "generalization": {"56": {"stimulus": 30, "trial": 56, "rt": 798, "response": "Alpha"}, "77": {"stimulus": 1780, "trial": 77, "rt": 6791, "response": "Alpha"}, "54": {"stimulus": 780, "trial": 54, "rt": 1239, "response": "Alpha"}, "42": {"stimulus": 249, "trial": 42, "rt": 764, "response": "Alpha"}, "48": {"stimulus": 343, "trial": 48, "rt": 814, "response": "Alpha"}, "43": {"stimulus": 187, "trial": 43, "rt": 14887, "response": "Alpha"}, "60": {"stimulus": 937, "trial": 60, "rt": 1135, "response": "Alpha"}, "61": {"stimulus": 687, "trial": 61, "rt": 998, "response": "Alpha"}, "62": {"stimulus": 1843, "trial": 62, "rt": 1039, "response": "Alpha"}, "63": {"stimulus": 2155, "trial": 63, "rt": 846, "response": "Beta"}, "64": {"stimulus": 2124, "trial": 64, "rt": 1958, "response": "Beta"}, "49": {"stimulus": 1312, "trial": 49, "rt": 1134, "response": "Beta"}, "66": {"stimulus": 1187, "trial": 66, "rt": 949, "response": "Alpha"}, "67": {"stimulus": 437, "trial": 67, "rt": 871, "response": "Alpha"}, "68": {"stimulus": 1280, "trial": 68, "rt": 614, "response": "Alpha"}, "69": {"stimulus": 499, "trial": 69, "rt": 725, "response": "Alpha"}, "80": {"stimulus": 1093, "trial": 80, "rt": 872, "response": "Alpha"}, "52": {"stimulus": 2405, "trial": 52, "rt": 879, "response": "Beta"}, "53": {"stimulus": 999, "trial": 53, "rt": 959, "response": "Alpha"}, "24": {"stimulus": 2030, "trial": 24, "rt": 1454, "response": "Beta"}, "25": {"stimulus": 468, "trial": 25, "rt": 1232, "response": "Beta"}, "26": {"stimulus": 1812, "trial": 26, "rt": 629, "response": "Beta"}, "27": {"stimulus": 374, "trial": 27, "rt": 15439, "response": "Alpha"}, "20": {"stimulus": 1749, "trial": 20, "rt": 808, "response": "Alpha"}, "21": {"stimulus": 93, "trial": 21, "rt": 606, "response": "Alpha"}, "22": {"stimulus": 562, "trial": 22, "rt": 662, "response": "Alpha"}, "23": {"stimulus": 1124, "trial": 23, "rt": 1966, "response": "Beta"}, "46": {"stimulus": 1999, "trial": 46, "rt": 861, "response": "Alpha"}, "47": {"stimulus": 1905, "trial": 47, "rt": 798, "response": "Beta"}, "44": {"stimulus": 2187, "trial": 44, "rt": 1661, "response": "Alpha"}, "45": {"stimulus": 2374, "trial": 45, "rt": 1958, "response": "Alpha"}, "28": {"stimulus": 1343, "trial": 28, "rt": 797, "response": "Alpha"}, "29": {"stimulus": 155, "trial": 29, "rt": 878, "response": "Beta"}, "40": {"stimulus": 593, "trial": 40, "rt": 966, "response": "Alpha"}, "41": {"stimulus": 874, "trial": 41, "rt": 1469, "response": "Alpha"}, "1": {"stimulus": 218, "trial": 1, "rt": 27422, "response": "Beta"}, "0": {"stimulus": 2093, "trial": 0, "rt": 3219, "response": "Alpha"}, "3": {"stimulus": 1155, "trial": 3, "rt": 1070, "response": "Beta"}, "2": {"stimulus": 1718, "trial": 2, "rt": 1562, "response": "Beta"}, "5": {"stimulus": 312, "trial": 5, "rt": 838, "response": "Beta"}, "4": {"stimulus": 2280, "trial": 4, "rt": 1062, "response": "Alpha"}, "7": {"stimulus": 1218, "trial": 7, "rt": 927, "response": "Beta"}, "6": {"stimulus": 624, "trial": 6, "rt": 3454, "response": "Beta"}, "9": {"stimulus": 2249, "trial": 9, "rt": 926, "response": "Alpha"}, "8": {"stimulus": 905, "trial": 8, "rt": 743, "response": "Beta"}, "78": {"stimulus": 530, "trial": 78, "rt": 588, "response": "Alpha"}, "51": {"stimulus": 1405, "trial": 51, "rt": 709, "response": "Beta"}, "39": {"stimulus": 405, "trial": 39, "rt": 662, "response": "Beta"}, "65": {"stimulus": 2312, "trial": 65, "rt": 1054, "response": "Beta"}, "76": {"stimulus": 1687, "trial": 76, "rt": 942, "response": "Alpha"}, "75": {"stimulus": 968, "trial": 75, "rt": 829, "response": "Beta"}, "38": {"stimulus": 1030, "trial": 38, "rt": 814, "response": "Alpha"}, "73": {"stimulus": 718, "trial": 73, "rt": 4146, "response": "Beta"}, "72": {"stimulus": 1968, "trial": 72, "rt": 13076, "response": "Beta"}, "71": {"stimulus": 2468, "trial": 71, "rt": 1426, "response": "Beta"}, "70": {"stimulus": 749, "trial": 70, "rt": 835, "response": "Alpha"}, "59": {"stimulus": 2218, "trial": 59, "rt": 925, "response": "Beta"}, "79": {"stimulus": 1062, "trial": 79, "rt": 1663, "response": "Beta"}, "58": {"stimulus": 1249, "trial": 58, "rt": 1725, "response": "Alpha"}, "11": {"stimulus": 1374, "trial": 11, "rt": 7534, "response": "Alpha"}, "10": {"stimulus": 2437, "trial": 10, "rt": 2477, "response": "Alpha"}, "13": {"stimulus": 1624, "trial": 13, "rt": 2886, "response": "Alpha"}, "12": {"stimulus": 1937, "trial": 12, "rt": 933, "response": "Alpha"}, "15": {"stimulus": 62, "trial": 15, "rt": 678, "response": "Beta"}, "14": {"stimulus": 2062, "trial": 14, "rt": 1038, "response": "Beta"}, "17": {"stimulus": 843, "trial": 17, "rt": 1013, "response": "Alpha"}, "16": {"stimulus": 1530, "trial": 16, "rt": 1543, "response": "Alpha"}, "19": {"stimulus": 1655, "trial": 19, "rt": 711, "response": "Beta"}, "18": {"stimulus": 124, "trial": 18, "rt": 3377, "response": "Beta"}, "31": {"stimulus": 1874, "trial": 31, "rt": 1317, "response": "Alpha"}, "30": {"stimulus": 1437, "trial": 30, "rt": 838, "response": "Alpha"}, "37": {"stimulus": 1562, "trial": 37, "rt": 1454, "response": "Beta"}, "36": {"stimulus": 2499, "trial": 36, "rt": 1172, "response": "Alpha"}, "35": {"stimulus": 655, "trial": 35, "rt": 1046, "response": "Beta"}, "34": {"stimulus": 1593, "trial": 34, "rt": 638, "response": "Alpha"}, "33": {"stimulus": 2343, "trial": 33, "rt": 878, "response": "Alpha"}, "55": {"stimulus": 1499, "trial": 55, "rt": 670, "response": "Alpha"}, "74": {"stimulus": 812, "trial": 74, "rt": 2036, "response": "Beta"}, "32": {"stimulus": 0, "trial": 32, "rt": 853, "response": "Beta"}, "57": {"stimulus": 1468, "trial": 57, "rt": 1102, "response": "Beta"}, "50": {"stimulus": 280, "trial": 50, "rt": 1382, "response": "Alpha"}}, "experiment": {"Paradigm": "TACL", "Stimuli": "Size-Color Squares", "Experiment": "Generating-Multiple-Categories"}, "submit": {"timeTotal": 538483, "age": "39", "comments": "I did get confused at a point actually, the colors seemed a bit similar at a time.", "sex": "Female"}}