{"info": {"finish": 1548175868790, "participant": 371, "exposed": true, "lab": false, "start": 1548175400051, "counterbalance": 3, "gentype": 2, "condition": "Row", "browser": {"platform": "Win32", "userAgent": "Mozilla/5.0 (Windows NT 10.0; Win64; x64) AppleWebKit/537.36 (KHTML, like Gecko) Chrome/71.0.3578.98 Safari/537.36"}}, "observation": {"11": {"stimulus": 582, "trial": 11, "rt": 1816}, "10": {"stimulus": 421, "trial": 10, "rt": 2031}, "1": {"stimulus": 612, "trial": 1, "rt": 3646}, "0": {"stimulus": 582, "trial": 0, "rt": 6715}, "3": {"stimulus": 421, "trial": 3, "rt": 2814}, "2": {"stimulus": 493, "trial": 2, "rt": 3840}, "5": {"stimulus": 582, "trial": 5, "rt": 2679}, "4": {"stimulus": 421, "trial": 4, "rt": 3135}, "7": {"stimulus": 493, "trial": 7, "rt": 2040}, "6": {"stimulus": 612, "trial": 6, "rt": 2760}, "9": {"stimulus": 493, "trial": 9, "rt": 1936}, "8": {"stimulus": 612, "trial": 8, "rt": 3983}}, "generation": {"1": {"category": "Beta", "trial": 1, "stimulus": 2478, "rt": 10342}, "0": {"category": "Beta", "trial": 0, "stimulus": 2491, "rt": 26455}, "3": {"category": "Beta", "trial": 3, "stimulus": 2463, "rt": 8517}, "2": {"category": "Beta", "trial": 2, "stimulus": 2468, "rt": 10542}, "5": {"category": "Gamma", "trial": 5, "stimulus": 43, "rt": 11456}, "4": {"category": "Gamma", "trial": 4, "stimulus": 249, "rt": 16680}, "7": {"category": "Gamma", "trial": 7, "stimulus": 31, "rt": 10286}, "6": {"category": "Gamma", "trial": 6, "stimulus": 42, "rt": 11116}}, "generalization": {"56": {"stimulus": 2187, "trial": 56, "rt": 703, "response": "Beta"}, "77": {"stimulus": 1718, "trial": 77, "rt": 1118, "response": "Beta"}, "54": {"stimulus": 1374, "trial": 54, "rt": 4256, "response": "Alpha"}, "42": {"stimulus": 1905, "trial": 42, "rt": 815, "response": "Beta"}, "48": {"stimulus": 1062, "trial": 48, "rt": 3095, "response": "Alpha"}, "43": {"stimulus": 2124, "trial": 43, "rt": 559, "response": "Beta"}, "60": {"stimulus": 0, "trial": 60, "rt": 679, "response": "Alpha"}, "61": {"stimulus": 2312, "trial": 61, "rt": 2606, "response": "Beta"}, "62": {"stimulus": 2093, "trial": 62, "rt": 1679, "response": "Beta"}, "63": {"stimulus": 2437, "trial": 63, "rt": 832, "response": "Beta"}, "64": {"stimulus": 1968, "trial": 64, "rt": 663, "response": "Beta"}, "49": {"stimulus": 843, "trial": 49, "rt": 1031, "response": "Alpha"}, "66": {"stimulus": 1812, "trial": 66, "rt": 1367, "response": "Beta"}, "67": {"stimulus": 249, "trial": 67, "rt": 1501, "response": "Alpha"}, "68": {"stimulus": 1280, "trial": 68, "rt": 1478, "response": "Beta"}, "69": {"stimulus": 780, "trial": 69, "rt": 1542, "response": "Alpha"}, "80": {"stimulus": 1843, "trial": 80, "rt": 1110, "response": "Beta"}, "52": {"stimulus": 1562, "trial": 52, "rt": 1501, "response": "Alpha"}, "53": {"stimulus": 1249, "trial": 53, "rt": 815, "response": "Alpha"}, "24": {"stimulus": 2249, "trial": 24, "rt": 2161, "response": "Beta"}, "25": {"stimulus": 343, "trial": 25, "rt": 2896, "response": "Gamma"}, "26": {"stimulus": 1937, "trial": 26, "rt": 2799, "response": "Beta"}, "27": {"stimulus": 1499, "trial": 27, "rt": 1319, "response": "Beta"}, "20": {"stimulus": 187, "trial": 20, "rt": 3007, "response": "Gamma"}, "21": {"stimulus": 437, "trial": 21, "rt": 1455, "response": "Beta"}, "22": {"stimulus": 405, "trial": 22, "rt": 2951, "response": "Beta"}, "23": {"stimulus": 93, "trial": 23, "rt": 3132, "response": "Alpha"}, "46": {"stimulus": 2155, "trial": 46, "rt": 3158, "response": "Beta"}, "47": {"stimulus": 1624, "trial": 47, "rt": 1119, "response": "Beta"}, "44": {"stimulus": 124, "trial": 44, "rt": 1440, "response": "Gamma"}, "45": {"stimulus": 374, "trial": 45, "rt": 2007, "response": "Alpha"}, "28": {"stimulus": 280, "trial": 28, "rt": 1558, "response": "Alpha"}, "29": {"stimulus": 1312, "trial": 29, "rt": 3831, "response": "Alpha"}, "40": {"stimulus": 1687, "trial": 40, "rt": 1055, "response": "Beta"}, "41": {"stimulus": 2343, "trial": 41, "rt": 782, "response": "Beta"}, "1": {"stimulus": 468, "trial": 1, "rt": 1616, "response": "Alpha"}, "0": {"stimulus": 624, "trial": 0, "rt": 2589, "response": "Alpha"}, "3": {"stimulus": 1468, "trial": 3, "rt": 3224, "response": "Beta"}, "2": {"stimulus": 312, "trial": 2, "rt": 1664, "response": "Alpha"}, "5": {"stimulus": 30, "trial": 5, "rt": 4751, "response": "Gamma"}, "4": {"stimulus": 2062, "trial": 4, "rt": 1326, "response": "Gamma"}, "7": {"stimulus": 999, "trial": 7, "rt": 1190, "response": "Beta"}, "6": {"stimulus": 718, "trial": 6, "rt": 2766, "response": "Alpha"}, "9": {"stimulus": 1187, "trial": 9, "rt": 2015, "response": "Beta"}, "8": {"stimulus": 905, "trial": 8, "rt": 3376, "response": "Alpha"}, "78": {"stimulus": 593, "trial": 78, "rt": 2253, "response": "Alpha"}, "51": {"stimulus": 1405, "trial": 51, "rt": 2752, "response": "Alpha"}, "39": {"stimulus": 1093, "trial": 39, "rt": 2109, "response": "Alpha"}, "65": {"stimulus": 218, "trial": 65, "rt": 1215, "response": "Gamma"}, "76": {"stimulus": 1030, "trial": 76, "rt": 1520, "response": "Alpha"}, "75": {"stimulus": 1874, "trial": 75, "rt": 991, "response": "Beta"}, "38": {"stimulus": 562, "trial": 38, "rt": 1328, "response": "Alpha"}, "73": {"stimulus": 155, "trial": 73, "rt": 1968, "response": "Gamma"}, "72": {"stimulus": 1593, "trial": 72, "rt": 1511, "response": "Alpha"}, "71": {"stimulus": 2374, "trial": 71, "rt": 1238, "response": "Beta"}, "70": {"stimulus": 749, "trial": 70, "rt": 783, "response": "Alpha"}, "59": {"stimulus": 687, "trial": 59, "rt": 1071, "response": "Alpha"}, "79": {"stimulus": 2499, "trial": 79, "rt": 896, "response": "Beta"}, "58": {"stimulus": 655, "trial": 58, "rt": 1191, "response": "Beta"}, "11": {"stimulus": 2280, "trial": 11, "rt": 1256, "response": "Beta"}, "10": {"stimulus": 1124, "trial": 10, "rt": 2294, "response": "Beta"}, "13": {"stimulus": 2218, "trial": 13, "rt": 1344, "response": "Beta"}, "12": {"stimulus": 530, "trial": 12, "rt": 1414, "response": "Alpha"}, "15": {"stimulus": 937, "trial": 15, "rt": 1439, "response": "Alpha"}, "14": {"stimulus": 2030, "trial": 14, "rt": 743, "response": "Beta"}, "17": {"stimulus": 499, "trial": 17, "rt": 4311, "response": "Alpha"}, "16": {"stimulus": 1780, "trial": 16, "rt": 967, "response": "Beta"}, "19": {"stimulus": 1655, "trial": 19, "rt": 1677, "response": "Alpha"}, "18": {"stimulus": 2405, "trial": 18, "rt": 1408, "response": "Beta"}, "31": {"stimulus": 1343, "trial": 31, "rt": 1367, "response": "Beta"}, "30": {"stimulus": 812, "trial": 30, "rt": 774, "response": "Alpha"}, "37": {"stimulus": 62, "trial": 37, "rt": 1286, "response": "Gamma"}, "36": {"stimulus": 1749, "trial": 36, "rt": 751, "response": "Beta"}, "35": {"stimulus": 1437, "trial": 35, "rt": 1335, "response": "Beta"}, "34": {"stimulus": 874, "trial": 34, "rt": 2214, "response": "Alpha"}, "33": {"stimulus": 1155, "trial": 33, "rt": 2093, "response": "Beta"}, "55": {"stimulus": 2468, "trial": 55, "rt": 1022, "response": "Beta"}, "74": {"stimulus": 968, "trial": 74, "rt": 2231, "response": "Alpha"}, "32": {"stimulus": 1530, "trial": 32, "rt": 886, "response": "Beta"}, "57": {"stimulus": 1218, "trial": 57, "rt": 1688, "response": "Alpha"}, "50": {"stimulus": 1999, "trial": 50, "rt": 1025, "response": "Beta"}}, "experiment": {"Paradigm": "TACL", "Stimuli": "Size-Color Squares", "Experiment": "Generating-Multiple-Categories"}, "submit": {"timeTotal": 469170, "age": "71", "comments": "", "sex": "male"}}