{"info": {"finish": 1548176316833, "participant": 373, "exposed": true, "lab": false, "start": 1548175964502, "counterbalance": 7, "gentype": 2, "condition": "XOR", "browser": {"platform": "Win32", "userAgent": "Mozilla/5.0 (Windows NT 10.0; Win64; x64) AppleWebKit/537.36 (KHTML, like Gecko) Chrome/71.0.3578.98 Safari/537.36"}}, "observation": {"11": {"stimulus": 1890, "trial": 11, "rt": 1509}, "10": {"stimulus": 1479, "trial": 10, "rt": 2404}, "1": {"stimulus": 1890, "trial": 1, "rt": 3161}, "0": {"stimulus": 1479, "trial": 0, "rt": 5233}, "3": {"stimulus": 403, "trial": 3, "rt": 2721}, "2": {"stimulus": 818, "trial": 2, "rt": 2900}, "5": {"stimulus": 818, "trial": 5, "rt": 1918}, "4": {"stimulus": 1479, "trial": 4, "rt": 2669}, "7": {"stimulus": 403, "trial": 7, "rt": 1984}, "6": {"stimulus": 1890, "trial": 6, "rt": 1700}, "9": {"stimulus": 403, "trial": 9, "rt": 1796}, "8": {"stimulus": 818, "trial": 8, "rt": 1821}}, "generation": {"1": {"category": "Beta", "trial": 1, "stimulus": 0, "rt": 6666}, "0": {"category": "Beta", "trial": 0, "stimulus": 49, "rt": 16623}, "3": {"category": "Beta", "trial": 3, "stimulus": 31, "rt": 4736}, "2": {"category": "Beta", "trial": 2, "stimulus": 14, "rt": 6618}, "5": {"category": "Gamma", "trial": 5, "stimulus": 1349, "rt": 4520}, "4": {"category": "Gamma", "trial": 4, "stimulus": 1250, "rt": 7626}, "7": {"category": "Gamma", "trial": 7, "stimulus": 1266, "rt": 5094}, "6": {"category": "Gamma", "trial": 6, "stimulus": 1386, "rt": 5224}}, "generalization": {"56": {"stimulus": 593, "trial": 56, "rt": 1567, "response": "Beta"}, "77": {"stimulus": 1562, "trial": 77, "rt": 1838, "response": "Gamma"}, "54": {"stimulus": 968, "trial": 54, "rt": 826, "response": "Gamma"}, "42": {"stimulus": 2030, "trial": 42, "rt": 956, "response": "Gamma"}, "48": {"stimulus": 874, "trial": 48, "rt": 1254, "response": "Gamma"}, "43": {"stimulus": 1312, "trial": 43, "rt": 2356, "response": "Gamma"}, "60": {"stimulus": 2374, "trial": 60, "rt": 1541, "response": "Alpha"}, "61": {"stimulus": 1937, "trial": 61, "rt": 968, "response": "Alpha"}, "62": {"stimulus": 530, "trial": 62, "rt": 1277, "response": "Gamma"}, "63": {"stimulus": 2437, "trial": 63, "rt": 1032, "response": "Alpha"}, "64": {"stimulus": 0, "trial": 64, "rt": 959, "response": "Beta"}, "49": {"stimulus": 1999, "trial": 49, "rt": 1261, "response": "Alpha"}, "66": {"stimulus": 437, "trial": 66, "rt": 2206, "response": "Gamma"}, "67": {"stimulus": 218, "trial": 67, "rt": 1276, "response": "Beta"}, "68": {"stimulus": 1155, "trial": 68, "rt": 1361, "response": "Gamma"}, "69": {"stimulus": 468, "trial": 69, "rt": 1211, "response": "Beta"}, "80": {"stimulus": 937, "trial": 80, "rt": 1286, "response": "Gamma"}, "52": {"stimulus": 249, "trial": 52, "rt": 1264, "response": "Beta"}, "53": {"stimulus": 155, "trial": 53, "rt": 1099, "response": "Beta"}, "24": {"stimulus": 1468, "trial": 24, "rt": 1013, "response": "Gamma"}, "25": {"stimulus": 843, "trial": 25, "rt": 1545, "response": "Beta"}, "26": {"stimulus": 1030, "trial": 26, "rt": 1096, "response": "Beta"}, "27": {"stimulus": 93, "trial": 27, "rt": 1076, "response": "Beta"}, "20": {"stimulus": 999, "trial": 20, "rt": 1729, "response": "Beta"}, "21": {"stimulus": 405, "trial": 21, "rt": 883, "response": "Beta"}, "22": {"stimulus": 1124, "trial": 22, "rt": 1460, "response": "Beta"}, "23": {"stimulus": 1749, "trial": 23, "rt": 1039, "response": "Gamma"}, "46": {"stimulus": 2249, "trial": 46, "rt": 1103, "response": "Alpha"}, "47": {"stimulus": 2280, "trial": 47, "rt": 1182, "response": "Alpha"}, "44": {"stimulus": 62, "trial": 44, "rt": 961, "response": "Beta"}, "45": {"stimulus": 1499, "trial": 45, "rt": 1960, "response": "Gamma"}, "28": {"stimulus": 2468, "trial": 28, "rt": 1260, "response": "Alpha"}, "29": {"stimulus": 1812, "trial": 29, "rt": 1545, "response": "Gamma"}, "40": {"stimulus": 1843, "trial": 40, "rt": 2059, "response": "Gamma"}, "41": {"stimulus": 1687, "trial": 41, "rt": 882, "response": "Gamma"}, "1": {"stimulus": 2343, "trial": 1, "rt": 1189, "response": "Alpha"}, "0": {"stimulus": 1655, "trial": 0, "rt": 3381, "response": "Alpha"}, "3": {"stimulus": 624, "trial": 3, "rt": 729, "response": "Beta"}, "2": {"stimulus": 30, "trial": 2, "rt": 2988, "response": "Beta"}, "5": {"stimulus": 1405, "trial": 5, "rt": 1144, "response": "Gamma"}, "4": {"stimulus": 2312, "trial": 4, "rt": 1338, "response": "Gamma"}, "7": {"stimulus": 1280, "trial": 7, "rt": 1460, "response": "Gamma"}, "6": {"stimulus": 2187, "trial": 6, "rt": 1221, "response": "Alpha"}, "9": {"stimulus": 2124, "trial": 9, "rt": 1357, "response": "Gamma"}, "8": {"stimulus": 1343, "trial": 8, "rt": 1411, "response": "Gamma"}, "78": {"stimulus": 1062, "trial": 78, "rt": 924, "response": "Gamma"}, "51": {"stimulus": 2093, "trial": 51, "rt": 1013, "response": "Alpha"}, "39": {"stimulus": 780, "trial": 39, "rt": 1023, "response": "Beta"}, "65": {"stimulus": 1093, "trial": 65, "rt": 1987, "response": "Gamma"}, "76": {"stimulus": 280, "trial": 76, "rt": 1110, "response": "Beta"}, "75": {"stimulus": 374, "trial": 75, "rt": 2594, "response": "Beta"}, "38": {"stimulus": 718, "trial": 38, "rt": 976, "response": "Beta"}, "73": {"stimulus": 1780, "trial": 73, "rt": 1278, "response": "Gamma"}, "72": {"stimulus": 1593, "trial": 72, "rt": 1463, "response": "Gamma"}, "71": {"stimulus": 1968, "trial": 71, "rt": 1429, "response": "Alpha"}, "70": {"stimulus": 343, "trial": 70, "rt": 1069, "response": "Beta"}, "59": {"stimulus": 1187, "trial": 59, "rt": 1241, "response": "Gamma"}, "79": {"stimulus": 1218, "trial": 79, "rt": 1197, "response": "Gamma"}, "58": {"stimulus": 655, "trial": 58, "rt": 2306, "response": "Gamma"}, "11": {"stimulus": 562, "trial": 11, "rt": 1204, "response": "Beta"}, "10": {"stimulus": 2405, "trial": 10, "rt": 2083, "response": "Alpha"}, "13": {"stimulus": 312, "trial": 13, "rt": 999, "response": "Beta"}, "12": {"stimulus": 749, "trial": 12, "rt": 1153, "response": "Beta"}, "15": {"stimulus": 1374, "trial": 15, "rt": 1597, "response": "Gamma"}, "14": {"stimulus": 1718, "trial": 14, "rt": 1667, "response": "Alpha"}, "17": {"stimulus": 124, "trial": 17, "rt": 899, "response": "Beta"}, "16": {"stimulus": 1624, "trial": 16, "rt": 1512, "response": "Alpha"}, "19": {"stimulus": 1905, "trial": 19, "rt": 1094, "response": "Gamma"}, "18": {"stimulus": 2062, "trial": 18, "rt": 1526, "response": "Alpha"}, "31": {"stimulus": 687, "trial": 31, "rt": 995, "response": "Beta"}, "30": {"stimulus": 1530, "trial": 30, "rt": 1311, "response": "Gamma"}, "37": {"stimulus": 812, "trial": 37, "rt": 1769, "response": "Beta"}, "36": {"stimulus": 2499, "trial": 36, "rt": 2317, "response": "Alpha"}, "35": {"stimulus": 905, "trial": 35, "rt": 1570, "response": "Beta"}, "34": {"stimulus": 1874, "trial": 34, "rt": 1385, "response": "Gamma"}, "33": {"stimulus": 1437, "trial": 33, "rt": 2627, "response": "Gamma"}, "55": {"stimulus": 1249, "trial": 55, "rt": 1028, "response": "Gamma"}, "74": {"stimulus": 2155, "trial": 74, "rt": 1581, "response": "Gamma"}, "32": {"stimulus": 499, "trial": 32, "rt": 912, "response": "Beta"}, "57": {"stimulus": 2218, "trial": 57, "rt": 1277, "response": "Alpha"}, "50": {"stimulus": 187, "trial": 50, "rt": 1441, "response": "Beta"}}, "experiment": {"Paradigm": "TACL", "Stimuli": "Size-Color Squares", "Experiment": "Generating-Multiple-Categories"}, "submit": {"timeTotal": 352557, "age": "54", "comments": "", "sex": "female"}}