{"info": {"finish": 1548176319307, "participant": 374, "exposed": true, "lab": false, "start": 1548176017283, "counterbalance": 7, "gentype": 2, "condition": "Cluster", "browser": {"platform": "Win32", "userAgent": "Mozilla/5.0 (Windows NT 6.1; Win64; x64; rv:64.0) Gecko/20100101 Firefox/64.0"}}, "observation": {"11": {"stimulus": 583, "trial": 11, "rt": 1178}, "10": {"stimulus": 392, "trial": 10, "rt": 1259}, "1": {"stimulus": 1093, "trial": 1, "rt": 1748}, "0": {"stimulus": 392, "trial": 0, "rt": 2444}, "3": {"stimulus": 1083, "trial": 3, "rt": 1544}, "2": {"stimulus": 583, "trial": 2, "rt": 1491}, "5": {"stimulus": 583, "trial": 5, "rt": 1314}, "4": {"stimulus": 1083, "trial": 4, "rt": 1603}, "7": {"stimulus": 1093, "trial": 7, "rt": 1521}, "6": {"stimulus": 392, "trial": 6, "rt": 1577}, "9": {"stimulus": 1093, "trial": 9, "rt": 1361}, "8": {"stimulus": 1083, "trial": 8, "rt": 1323}}, "generation": {"1": {"category": "Beta", "trial": 1, "stimulus": 2479, "rt": 7240}, "0": {"category": "Beta", "trial": 0, "stimulus": 2469, "rt": 12803}, "3": {"category": "Beta", "trial": 3, "stimulus": 2494, "rt": 2936}, "2": {"category": "Beta", "trial": 2, "stimulus": 2462, "rt": 4665}, "5": {"category": "Gamma", "trial": 5, "stimulus": 1984, "rt": 2512}, "4": {"category": "Gamma", "trial": 4, "stimulus": 2175, "rt": 6015}, "7": {"category": "Gamma", "trial": 7, "stimulus": 1899, "rt": 3106}, "6": {"category": "Gamma", "trial": 6, "stimulus": 1997, "rt": 3337}}, "generalization": {"56": {"stimulus": 1905, "trial": 56, "rt": 1031, "response": "Gamma"}, "77": {"stimulus": 1030, "trial": 77, "rt": 967, "response": "Alpha"}, "54": {"stimulus": 1374, "trial": 54, "rt": 1183, "response": "Gamma"}, "42": {"stimulus": 1593, "trial": 42, "rt": 815, "response": "Gamma"}, "48": {"stimulus": 749, "trial": 48, "rt": 599, "response": "Alpha"}, "43": {"stimulus": 124, "trial": 43, "rt": 925, "response": "Alpha"}, "60": {"stimulus": 1124, "trial": 60, "rt": 2736, "response": "Alpha"}, "61": {"stimulus": 2155, "trial": 61, "rt": 2476, "response": "Gamma"}, "62": {"stimulus": 499, "trial": 62, "rt": 1020, "response": "Alpha"}, "63": {"stimulus": 1218, "trial": 63, "rt": 2323, "response": "Gamma"}, "64": {"stimulus": 2280, "trial": 64, "rt": 4172, "response": "Beta"}, "49": {"stimulus": 2343, "trial": 49, "rt": 1836, "response": "Gamma"}, "66": {"stimulus": 905, "trial": 66, "rt": 2630, "response": "Alpha"}, "67": {"stimulus": 1155, "trial": 67, "rt": 1714, "response": "Gamma"}, "68": {"stimulus": 624, "trial": 68, "rt": 1623, "response": "Alpha"}, "69": {"stimulus": 780, "trial": 69, "rt": 1323, "response": "Alpha"}, "80": {"stimulus": 1968, "trial": 80, "rt": 1905, "response": "Gamma"}, "52": {"stimulus": 93, "trial": 52, "rt": 2341, "response": "Alpha"}, "53": {"stimulus": 2437, "trial": 53, "rt": 4170, "response": "Beta"}, "24": {"stimulus": 937, "trial": 24, "rt": 848, "response": "Gamma"}, "25": {"stimulus": 468, "trial": 25, "rt": 1293, "response": "Alpha"}, "26": {"stimulus": 1843, "trial": 26, "rt": 1239, "response": "Gamma"}, "27": {"stimulus": 593, "trial": 27, "rt": 1031, "response": "Alpha"}, "20": {"stimulus": 280, "trial": 20, "rt": 1023, "response": "Alpha"}, "21": {"stimulus": 1280, "trial": 21, "rt": 772, "response": "Gamma"}, "22": {"stimulus": 1468, "trial": 22, "rt": 584, "response": "Gamma"}, "23": {"stimulus": 1062, "trial": 23, "rt": 664, "response": "Gamma"}, "46": {"stimulus": 718, "trial": 46, "rt": 975, "response": "Alpha"}, "47": {"stimulus": 30, "trial": 47, "rt": 589, "response": "Alpha"}, "44": {"stimulus": 343, "trial": 44, "rt": 565, "response": "Alpha"}, "45": {"stimulus": 1624, "trial": 45, "rt": 1011, "response": "Gamma"}, "28": {"stimulus": 562, "trial": 28, "rt": 1218, "response": "Alpha"}, "29": {"stimulus": 2468, "trial": 29, "rt": 1073, "response": "Beta"}, "40": {"stimulus": 1749, "trial": 40, "rt": 1041, "response": "Gamma"}, "41": {"stimulus": 1312, "trial": 41, "rt": 652, "response": "Gamma"}, "1": {"stimulus": 2062, "trial": 1, "rt": 1515, "response": "Gamma"}, "0": {"stimulus": 218, "trial": 0, "rt": 1391, "response": "Alpha"}, "3": {"stimulus": 2312, "trial": 3, "rt": 1291, "response": "Beta"}, "2": {"stimulus": 0, "trial": 2, "rt": 748, "response": "Alpha"}, "5": {"stimulus": 437, "trial": 5, "rt": 959, "response": "Alpha"}, "4": {"stimulus": 62, "trial": 4, "rt": 724, "response": "Alpha"}, "7": {"stimulus": 374, "trial": 7, "rt": 947, "response": "Alpha"}, "6": {"stimulus": 1937, "trial": 6, "rt": 1204, "response": "Gamma"}, "9": {"stimulus": 1499, "trial": 9, "rt": 1196, "response": "Gamma"}, "8": {"stimulus": 1562, "trial": 8, "rt": 1253, "response": "Gamma"}, "78": {"stimulus": 2030, "trial": 78, "rt": 910, "response": "Gamma"}, "51": {"stimulus": 2218, "trial": 51, "rt": 1264, "response": "Beta"}, "39": {"stimulus": 812, "trial": 39, "rt": 3017, "response": "Alpha"}, "65": {"stimulus": 187, "trial": 65, "rt": 1121, "response": "Alpha"}, "76": {"stimulus": 1874, "trial": 76, "rt": 1624, "response": "Gamma"}, "75": {"stimulus": 405, "trial": 75, "rt": 976, "response": "Alpha"}, "38": {"stimulus": 530, "trial": 38, "rt": 1200, "response": "Alpha"}, "73": {"stimulus": 2124, "trial": 73, "rt": 647, "response": "Beta"}, "72": {"stimulus": 2187, "trial": 72, "rt": 985, "response": "Beta"}, "71": {"stimulus": 1530, "trial": 71, "rt": 1282, "response": "Gamma"}, "70": {"stimulus": 968, "trial": 70, "rt": 1231, "response": "Alpha"}, "59": {"stimulus": 1093, "trial": 59, "rt": 3790, "response": "Gamma"}, "79": {"stimulus": 1187, "trial": 79, "rt": 807, "response": "Gamma"}, "58": {"stimulus": 687, "trial": 58, "rt": 4148, "response": "Alpha"}, "11": {"stimulus": 655, "trial": 11, "rt": 713, "response": "Alpha"}, "10": {"stimulus": 249, "trial": 10, "rt": 1011, "response": "Alpha"}, "13": {"stimulus": 2249, "trial": 13, "rt": 577, "response": "Beta"}, "12": {"stimulus": 2405, "trial": 12, "rt": 900, "response": "Beta"}, "15": {"stimulus": 1343, "trial": 15, "rt": 1266, "response": "Gamma"}, "14": {"stimulus": 1687, "trial": 14, "rt": 950, "response": "Gamma"}, "17": {"stimulus": 999, "trial": 17, "rt": 1473, "response": "Alpha"}, "16": {"stimulus": 1405, "trial": 16, "rt": 1034, "response": "Gamma"}, "19": {"stimulus": 874, "trial": 19, "rt": 1206, "response": "Gamma"}, "18": {"stimulus": 155, "trial": 18, "rt": 1107, "response": "Alpha"}, "31": {"stimulus": 1780, "trial": 31, "rt": 1692, "response": "Beta"}, "30": {"stimulus": 1655, "trial": 30, "rt": 1578, "response": "Gamma"}, "37": {"stimulus": 1718, "trial": 37, "rt": 983, "response": "Gamma"}, "36": {"stimulus": 843, "trial": 36, "rt": 1197, "response": "Alpha"}, "35": {"stimulus": 312, "trial": 35, "rt": 1297, "response": "Alpha"}, "34": {"stimulus": 2093, "trial": 34, "rt": 1285, "response": "Beta"}, "33": {"stimulus": 2374, "trial": 33, "rt": 660, "response": "Beta"}, "55": {"stimulus": 1812, "trial": 55, "rt": 1053, "response": "Gamma"}, "74": {"stimulus": 1437, "trial": 74, "rt": 858, "response": "Gamma"}, "32": {"stimulus": 2499, "trial": 32, "rt": 760, "response": "Beta"}, "57": {"stimulus": 1999, "trial": 57, "rt": 9395, "response": "Gamma"}, "50": {"stimulus": 1249, "trial": 50, "rt": 1399, "response": "Gamma"}}, "experiment": {"Paradigm": "TACL", "Stimuli": "Size-Color Squares", "Experiment": "Generating-Multiple-Categories"}, "submit": {"timeTotal": 302325, "age": "37", "comments": "Thanks", "sex": "female"}}