{"info": {"finish": 1548178291195, "participant": 376, "exposed": true, "lab": false, "start": 1548177985654, "counterbalance": 7, "gentype": 1, "condition": "XOR", "browser": {"platform": "Win32", "userAgent": "Mozilla/5.0 (Windows NT 10.0; Win64; x64) AppleWebKit/537.36 (KHTML, like Gecko) Chrome/71.0.3578.98 Safari/537.36"}}, "observation": {"11": {"stimulus": 1479, "trial": 11, "rt": 1436}, "10": {"stimulus": 1890, "trial": 10, "rt": 1542}, "1": {"stimulus": 1890, "trial": 1, "rt": 1684}, "0": {"stimulus": 403, "trial": 0, "rt": 2491}, "3": {"stimulus": 1479, "trial": 3, "rt": 1613}, "2": {"stimulus": 818, "trial": 2, "rt": 2062}, "5": {"stimulus": 1479, "trial": 5, "rt": 1411}, "4": {"stimulus": 1890, "trial": 4, "rt": 1406}, "7": {"stimulus": 818, "trial": 7, "rt": 1485}, "6": {"stimulus": 403, "trial": 6, "rt": 1358}, "9": {"stimulus": 818, "trial": 9, "rt": 1533}, "8": {"stimulus": 403, "trial": 8, "rt": 1458}}, "generation": {"1": {"category": "Beta", "trial": 1, "stimulus": 2450, "rt": 12752}, "0": {"category": "Beta", "trial": 0, "stimulus": 0, "rt": 9510}, "3": {"category": "Beta", "trial": 3, "stimulus": 52, "rt": 25917}, "2": {"category": "Beta", "trial": 2, "stimulus": 49, "rt": 6029}, "5": {"category": "Beta", "trial": 5, "stimulus": 39, "rt": 4382}, "4": {"category": "Beta", "trial": 4, "stimulus": 2497, "rt": 6783}, "7": {"category": "Beta", "trial": 7, "stimulus": 25, "rt": 4815}, "6": {"category": "Beta", "trial": 6, "stimulus": 41, "rt": 6899}}, "generalization": {"56": {"stimulus": 2437, "trial": 56, "rt": 1236, "response": "Alpha"}, "77": {"stimulus": 1937, "trial": 77, "rt": 522, "response": "Alpha"}, "54": {"stimulus": 1030, "trial": 54, "rt": 714, "response": "Alpha"}, "42": {"stimulus": 437, "trial": 42, "rt": 891, "response": "Beta"}, "48": {"stimulus": 1655, "trial": 48, "rt": 611, "response": "Alpha"}, "43": {"stimulus": 1780, "trial": 43, "rt": 977, "response": "Alpha"}, "60": {"stimulus": 2374, "trial": 60, "rt": 587, "response": "Alpha"}, "61": {"stimulus": 1218, "trial": 61, "rt": 929, "response": "Alpha"}, "62": {"stimulus": 1062, "trial": 62, "rt": 731, "response": "Alpha"}, "63": {"stimulus": 843, "trial": 63, "rt": 849, "response": "Alpha"}, "64": {"stimulus": 155, "trial": 64, "rt": 611, "response": "Beta"}, "49": {"stimulus": 937, "trial": 49, "rt": 529, "response": "Alpha"}, "66": {"stimulus": 1718, "trial": 66, "rt": 618, "response": "Alpha"}, "67": {"stimulus": 905, "trial": 67, "rt": 529, "response": "Alpha"}, "68": {"stimulus": 468, "trial": 68, "rt": 962, "response": "Alpha"}, "69": {"stimulus": 405, "trial": 69, "rt": 587, "response": "Alpha"}, "80": {"stimulus": 1812, "trial": 80, "rt": 763, "response": "Alpha"}, "52": {"stimulus": 624, "trial": 52, "rt": 1147, "response": "Alpha"}, "53": {"stimulus": 1687, "trial": 53, "rt": 1822, "response": "Alpha"}, "24": {"stimulus": 374, "trial": 24, "rt": 924, "response": "Beta"}, "25": {"stimulus": 1374, "trial": 25, "rt": 786, "response": "Alpha"}, "26": {"stimulus": 2499, "trial": 26, "rt": 600, "response": "Alpha"}, "27": {"stimulus": 1905, "trial": 27, "rt": 874, "response": "Alpha"}, "20": {"stimulus": 2280, "trial": 20, "rt": 2759, "response": "Alpha"}, "21": {"stimulus": 2187, "trial": 21, "rt": 1010, "response": "Alpha"}, "22": {"stimulus": 93, "trial": 22, "rt": 860, "response": "Beta"}, "23": {"stimulus": 1343, "trial": 23, "rt": 737, "response": "Alpha"}, "46": {"stimulus": 655, "trial": 46, "rt": 1202, "response": "Beta"}, "47": {"stimulus": 2155, "trial": 47, "rt": 939, "response": "Alpha"}, "44": {"stimulus": 999, "trial": 44, "rt": 1354, "response": "Alpha"}, "45": {"stimulus": 1280, "trial": 45, "rt": 688, "response": "Alpha"}, "28": {"stimulus": 62, "trial": 28, "rt": 593, "response": "Beta"}, "29": {"stimulus": 968, "trial": 29, "rt": 627, "response": "Alpha"}, "40": {"stimulus": 1874, "trial": 40, "rt": 667, "response": "Alpha"}, "41": {"stimulus": 2343, "trial": 41, "rt": 1018, "response": "Alpha"}, "1": {"stimulus": 499, "trial": 1, "rt": 1067, "response": "Beta"}, "0": {"stimulus": 1968, "trial": 0, "rt": 2491, "response": "Alpha"}, "3": {"stimulus": 30, "trial": 3, "rt": 763, "response": "Beta"}, "2": {"stimulus": 1155, "trial": 2, "rt": 850, "response": "Alpha"}, "5": {"stimulus": 1093, "trial": 5, "rt": 802, "response": "Alpha"}, "4": {"stimulus": 2062, "trial": 4, "rt": 816, "response": "Alpha"}, "7": {"stimulus": 1562, "trial": 7, "rt": 809, "response": "Alpha"}, "6": {"stimulus": 780, "trial": 6, "rt": 939, "response": "Beta"}, "9": {"stimulus": 1593, "trial": 9, "rt": 2116, "response": "Alpha"}, "8": {"stimulus": 218, "trial": 8, "rt": 914, "response": "Beta"}, "78": {"stimulus": 2312, "trial": 78, "rt": 689, "response": "Alpha"}, "51": {"stimulus": 1249, "trial": 51, "rt": 1091, "response": "Alpha"}, "39": {"stimulus": 562, "trial": 39, "rt": 679, "response": "Alpha"}, "65": {"stimulus": 312, "trial": 65, "rt": 553, "response": "Beta"}, "76": {"stimulus": 1312, "trial": 76, "rt": 688, "response": "Alpha"}, "75": {"stimulus": 2405, "trial": 75, "rt": 645, "response": "Alpha"}, "38": {"stimulus": 124, "trial": 38, "rt": 860, "response": "Alpha"}, "73": {"stimulus": 2468, "trial": 73, "rt": 666, "response": "Alpha"}, "72": {"stimulus": 249, "trial": 72, "rt": 680, "response": "Beta"}, "71": {"stimulus": 1499, "trial": 71, "rt": 547, "response": "Alpha"}, "70": {"stimulus": 1843, "trial": 70, "rt": 490, "response": "Alpha"}, "59": {"stimulus": 1187, "trial": 59, "rt": 706, "response": "Alpha"}, "79": {"stimulus": 1437, "trial": 79, "rt": 531, "response": "Alpha"}, "58": {"stimulus": 343, "trial": 58, "rt": 723, "response": "Beta"}, "11": {"stimulus": 593, "trial": 11, "rt": 769, "response": "Beta"}, "10": {"stimulus": 2093, "trial": 10, "rt": 619, "response": "Alpha"}, "13": {"stimulus": 687, "trial": 13, "rt": 3143, "response": "Beta"}, "12": {"stimulus": 2124, "trial": 12, "rt": 897, "response": "Alpha"}, "15": {"stimulus": 2030, "trial": 15, "rt": 723, "response": "Alpha"}, "14": {"stimulus": 1749, "trial": 14, "rt": 696, "response": "Alpha"}, "17": {"stimulus": 1468, "trial": 17, "rt": 666, "response": "Alpha"}, "16": {"stimulus": 1124, "trial": 16, "rt": 537, "response": "Alpha"}, "19": {"stimulus": 1530, "trial": 19, "rt": 1733, "response": "Alpha"}, "18": {"stimulus": 1624, "trial": 18, "rt": 1146, "response": "Alpha"}, "31": {"stimulus": 2218, "trial": 31, "rt": 826, "response": "Alpha"}, "30": {"stimulus": 0, "trial": 30, "rt": 783, "response": "Beta"}, "37": {"stimulus": 1405, "trial": 37, "rt": 1155, "response": "Alpha"}, "36": {"stimulus": 280, "trial": 36, "rt": 1044, "response": "Beta"}, "35": {"stimulus": 718, "trial": 35, "rt": 779, "response": "Alpha"}, "34": {"stimulus": 2249, "trial": 34, "rt": 1124, "response": "Alpha"}, "33": {"stimulus": 187, "trial": 33, "rt": 793, "response": "Beta"}, "55": {"stimulus": 874, "trial": 55, "rt": 1862, "response": "Alpha"}, "74": {"stimulus": 749, "trial": 74, "rt": 840, "response": "Beta"}, "32": {"stimulus": 1999, "trial": 32, "rt": 594, "response": "Alpha"}, "57": {"stimulus": 812, "trial": 57, "rt": 1706, "response": "Alpha"}, "50": {"stimulus": 530, "trial": 50, "rt": 651, "response": "Alpha"}}, "experiment": {"Paradigm": "TACL", "Stimuli": "Size-Color Squares", "Experiment": "Generating-Multiple-Categories"}, "submit": {"timeTotal": 305717, "age": "27", "comments": "", "sex": "male"}}