{"info": {"finish": 1548178724784, "participant": 377, "exposed": true, "lab": false, "start": 1548178440659, "counterbalance": 6, "gentype": 0, "condition": "Row", "browser": {"platform": "MacIntel", "userAgent": "Mozilla/5.0 (Macintosh; Intel Mac OS X 10_14_2) AppleWebKit/537.36 (KHTML, like Gecko) Chrome/71.0.3578.98 Safari/537.36"}}, "observation": {"11": {"stimulus": 582, "trial": 11, "rt": 1337}, "10": {"stimulus": 493, "trial": 10, "rt": 1408}, "1": {"stimulus": 421, "trial": 1, "rt": 2331}, "0": {"stimulus": 582, "trial": 0, "rt": 2404}, "3": {"stimulus": 493, "trial": 3, "rt": 1487}, "2": {"stimulus": 612, "trial": 2, "rt": 1877}, "5": {"stimulus": 421, "trial": 5, "rt": 1313}, "4": {"stimulus": 582, "trial": 4, "rt": 1553}, "7": {"stimulus": 493, "trial": 7, "rt": 1360}, "6": {"stimulus": 612, "trial": 6, "rt": 1431}, "9": {"stimulus": 421, "trial": 9, "rt": 1640}, "8": {"stimulus": 612, "trial": 8, "rt": 1431}}, "generation": {"1": {"category": "Not-Alpha", "trial": 1, "stimulus": 2200, "rt": 8161}, "0": {"category": "Not-Alpha", "trial": 0, "stimulus": 2050, "rt": 16985}, "3": {"category": "Not-Alpha", "trial": 3, "stimulus": 2350, "rt": 5706}, "2": {"category": "Not-Alpha", "trial": 2, "stimulus": 2450, "rt": 8647}, "5": {"category": "Not-Alpha", "trial": 5, "stimulus": 2000, "rt": 9110}, "4": {"category": "Not-Alpha", "trial": 4, "stimulus": 2100, "rt": 4798}, "7": {"category": "Not-Alpha", "trial": 7, "stimulus": 1600, "rt": 4528}, "6": {"category": "Not-Alpha", "trial": 6, "stimulus": 1800, "rt": 7066}}, "generalization": {"56": {"stimulus": 2187, "trial": 56, "rt": 1491, "response": "Alpha"}, "77": {"stimulus": 905, "trial": 77, "rt": 1018, "response": "Beta"}, "54": {"stimulus": 1655, "trial": 54, "rt": 1390, "response": "Beta"}, "42": {"stimulus": 937, "trial": 42, "rt": 854, "response": "Alpha"}, "48": {"stimulus": 1749, "trial": 48, "rt": 617, "response": "Alpha"}, "43": {"stimulus": 1593, "trial": 43, "rt": 537, "response": "Alpha"}, "60": {"stimulus": 655, "trial": 60, "rt": 1045, "response": "Beta"}, "61": {"stimulus": 1437, "trial": 61, "rt": 819, "response": "Alpha"}, "62": {"stimulus": 2249, "trial": 62, "rt": 644, "response": "Alpha"}, "63": {"stimulus": 1530, "trial": 63, "rt": 689, "response": "Alpha"}, "64": {"stimulus": 30, "trial": 64, "rt": 677, "response": "Alpha"}, "49": {"stimulus": 405, "trial": 49, "rt": 1605, "response": "Beta"}, "66": {"stimulus": 1624, "trial": 66, "rt": 620, "response": "Alpha"}, "67": {"stimulus": 1968, "trial": 67, "rt": 787, "response": "Alpha"}, "68": {"stimulus": 1280, "trial": 68, "rt": 571, "response": "Alpha"}, "69": {"stimulus": 1312, "trial": 69, "rt": 1170, "response": "Alpha"}, "80": {"stimulus": 2437, "trial": 80, "rt": 523, "response": "Alpha"}, "52": {"stimulus": 874, "trial": 52, "rt": 473, "response": "Alpha"}, "53": {"stimulus": 1030, "trial": 53, "rt": 507, "response": "Alpha"}, "24": {"stimulus": 2218, "trial": 24, "rt": 685, "response": "Alpha"}, "25": {"stimulus": 749, "trial": 25, "rt": 567, "response": "Alpha"}, "26": {"stimulus": 0, "trial": 26, "rt": 1531, "response": "Beta"}, "27": {"stimulus": 2093, "trial": 27, "rt": 1016, "response": "Alpha"}, "20": {"stimulus": 1937, "trial": 20, "rt": 881, "response": "Alpha"}, "21": {"stimulus": 249, "trial": 21, "rt": 547, "response": "Alpha"}, "22": {"stimulus": 2030, "trial": 22, "rt": 556, "response": "Alpha"}, "23": {"stimulus": 968, "trial": 23, "rt": 1057, "response": "Alpha"}, "46": {"stimulus": 1187, "trial": 46, "rt": 651, "response": "Alpha"}, "47": {"stimulus": 1124, "trial": 47, "rt": 652, "response": "Alpha"}, "44": {"stimulus": 1718, "trial": 44, "rt": 828, "response": "Alpha"}, "45": {"stimulus": 124, "trial": 45, "rt": 648, "response": "Alpha"}, "28": {"stimulus": 530, "trial": 28, "rt": 576, "response": "Alpha"}, "29": {"stimulus": 1468, "trial": 29, "rt": 667, "response": "Alpha"}, "40": {"stimulus": 1562, "trial": 40, "rt": 1459, "response": "Beta"}, "41": {"stimulus": 1812, "trial": 41, "rt": 1109, "response": "Beta"}, "1": {"stimulus": 1218, "trial": 1, "rt": 771, "response": "Alpha"}, "0": {"stimulus": 280, "trial": 0, "rt": 1679, "response": "Alpha"}, "3": {"stimulus": 2124, "trial": 3, "rt": 577, "response": "Alpha"}, "2": {"stimulus": 218, "trial": 2, "rt": 680, "response": "Alpha"}, "5": {"stimulus": 312, "trial": 5, "rt": 1920, "response": "Beta"}, "4": {"stimulus": 2280, "trial": 4, "rt": 532, "response": "Alpha"}, "7": {"stimulus": 1499, "trial": 7, "rt": 580, "response": "Alpha"}, "6": {"stimulus": 437, "trial": 6, "rt": 778, "response": "Alpha"}, "9": {"stimulus": 1780, "trial": 9, "rt": 555, "response": "Alpha"}, "8": {"stimulus": 1093, "trial": 8, "rt": 647, "response": "Alpha"}, "78": {"stimulus": 1374, "trial": 78, "rt": 3034, "response": "Alpha"}, "51": {"stimulus": 2499, "trial": 51, "rt": 532, "response": "Alpha"}, "39": {"stimulus": 1905, "trial": 39, "rt": 1236, "response": "Beta"}, "65": {"stimulus": 624, "trial": 65, "rt": 555, "response": "Alpha"}, "76": {"stimulus": 562, "trial": 76, "rt": 892, "response": "Alpha"}, "75": {"stimulus": 1687, "trial": 75, "rt": 818, "response": "Alpha"}, "38": {"stimulus": 687, "trial": 38, "rt": 483, "response": "Alpha"}, "73": {"stimulus": 93, "trial": 73, "rt": 643, "response": "Alpha"}, "72": {"stimulus": 2374, "trial": 72, "rt": 555, "response": "Alpha"}, "71": {"stimulus": 1874, "trial": 71, "rt": 531, "response": "Alpha"}, "70": {"stimulus": 2343, "trial": 70, "rt": 578, "response": "Alpha"}, "59": {"stimulus": 2062, "trial": 59, "rt": 1495, "response": "Beta"}, "79": {"stimulus": 2155, "trial": 79, "rt": 1341, "response": "Beta"}, "58": {"stimulus": 187, "trial": 58, "rt": 531, "response": "Alpha"}, "11": {"stimulus": 499, "trial": 11, "rt": 578, "response": "Alpha"}, "10": {"stimulus": 1249, "trial": 10, "rt": 631, "response": "Alpha"}, "13": {"stimulus": 718, "trial": 13, "rt": 1703, "response": "Beta"}, "12": {"stimulus": 1843, "trial": 12, "rt": 554, "response": "Alpha"}, "15": {"stimulus": 593, "trial": 15, "rt": 1413, "response": "Alpha"}, "14": {"stimulus": 468, "trial": 14, "rt": 1482, "response": "Beta"}, "17": {"stimulus": 2468, "trial": 17, "rt": 2453, "response": "Alpha"}, "16": {"stimulus": 1155, "trial": 16, "rt": 1369, "response": "Beta"}, "19": {"stimulus": 780, "trial": 19, "rt": 1104, "response": "Alpha"}, "18": {"stimulus": 62, "trial": 18, "rt": 1373, "response": "Beta"}, "31": {"stimulus": 374, "trial": 31, "rt": 587, "response": "Alpha"}, "30": {"stimulus": 812, "trial": 30, "rt": 892, "response": "Alpha"}, "37": {"stimulus": 999, "trial": 37, "rt": 482, "response": "Alpha"}, "36": {"stimulus": 2312, "trial": 36, "rt": 1689, "response": "Beta"}, "35": {"stimulus": 1343, "trial": 35, "rt": 450, "response": "Alpha"}, "34": {"stimulus": 1999, "trial": 34, "rt": 495, "response": "Alpha"}, "33": {"stimulus": 1405, "trial": 33, "rt": 1514, "response": "Beta"}, "55": {"stimulus": 2405, "trial": 55, "rt": 1350, "response": "Beta"}, "74": {"stimulus": 155, "trial": 74, "rt": 1335, "response": "Beta"}, "32": {"stimulus": 843, "trial": 32, "rt": 515, "response": "Alpha"}, "57": {"stimulus": 1062, "trial": 57, "rt": 1534, "response": "Beta"}, "50": {"stimulus": 343, "trial": 50, "rt": 538, "response": "Alpha"}}, "experiment": {"Paradigm": "TACL", "Stimuli": "Size-Color Squares", "Experiment": "Generating-Multiple-Categories"}, "submit": {"timeTotal": 284322, "age": "33", "comments": "I think this experiment is interesting. You almost have to make a color opposite of the others to get it right and remember on a snap judgement.", "sex": "Male"}}