{"info": {"finish": 1548181052144, "participant": 381, "exposed": true, "lab": false, "start": 1548180741334, "counterbalance": 1, "gentype": 1, "condition": "XOR", "browser": {"platform": "Win32", "userAgent": "Mozilla/5.0 (Windows NT 10.0; Win64; x64) AppleWebKit/537.36 (KHTML, like Gecko) Chrome/71.0.3578.98 Safari/537.36"}}, "observation": {"11": {"stimulus": 818, "trial": 11, "rt": 1814}, "10": {"stimulus": 1479, "trial": 10, "rt": 1854}, "1": {"stimulus": 1479, "trial": 1, "rt": 3048}, "0": {"stimulus": 403, "trial": 0, "rt": 2783}, "3": {"stimulus": 1890, "trial": 3, "rt": 2240}, "2": {"stimulus": 818, "trial": 2, "rt": 2590}, "5": {"stimulus": 1479, "trial": 5, "rt": 2984}, "4": {"stimulus": 1890, "trial": 4, "rt": 2491}, "7": {"stimulus": 818, "trial": 7, "rt": 2211}, "6": {"stimulus": 403, "trial": 6, "rt": 2222}, "9": {"stimulus": 1890, "trial": 9, "rt": 2218}, "8": {"stimulus": 403, "trial": 8, "rt": 2002}}, "generation": {"1": {"category": "Beta", "trial": 1, "stimulus": 2326, "rt": 8914}, "0": {"category": "Beta", "trial": 0, "stimulus": 2495, "rt": 10435}, "3": {"category": "Beta", "trial": 3, "stimulus": 2482, "rt": 7221}, "2": {"category": "Beta", "trial": 2, "stimulus": 2100, "rt": 8055}, "5": {"category": "Beta", "trial": 5, "stimulus": 0, "rt": 5552}, "4": {"category": "Beta", "trial": 4, "stimulus": 23, "rt": 6757}, "7": {"category": "Beta", "trial": 7, "stimulus": 2477, "rt": 7479}, "6": {"category": "Beta", "trial": 6, "stimulus": 49, "rt": 5065}}, "generalization": {"56": {"stimulus": 2030, "trial": 56, "rt": 970, "response": "Beta"}, "77": {"stimulus": 2093, "trial": 77, "rt": 995, "response": "Beta"}, "54": {"stimulus": 1812, "trial": 54, "rt": 1470, "response": "Alpha"}, "42": {"stimulus": 2124, "trial": 42, "rt": 2113, "response": "Beta"}, "48": {"stimulus": 812, "trial": 48, "rt": 643, "response": "Alpha"}, "43": {"stimulus": 749, "trial": 43, "rt": 766, "response": "Alpha"}, "60": {"stimulus": 312, "trial": 60, "rt": 1360, "response": "Alpha"}, "61": {"stimulus": 2187, "trial": 61, "rt": 938, "response": "Beta"}, "62": {"stimulus": 1593, "trial": 62, "rt": 947, "response": "Alpha"}, "63": {"stimulus": 1343, "trial": 63, "rt": 640, "response": "Alpha"}, "64": {"stimulus": 124, "trial": 64, "rt": 1563, "response": "Beta"}, "49": {"stimulus": 1187, "trial": 49, "rt": 1050, "response": "Alpha"}, "66": {"stimulus": 1999, "trial": 66, "rt": 1447, "response": "Alpha"}, "67": {"stimulus": 2343, "trial": 67, "rt": 578, "response": "Beta"}, "68": {"stimulus": 1718, "trial": 68, "rt": 861, "response": "Alpha"}, "69": {"stimulus": 1624, "trial": 69, "rt": 636, "response": "Alpha"}, "80": {"stimulus": 1530, "trial": 80, "rt": 494, "response": "Alpha"}, "52": {"stimulus": 374, "trial": 52, "rt": 1687, "response": "Alpha"}, "53": {"stimulus": 905, "trial": 53, "rt": 776, "response": "Alpha"}, "24": {"stimulus": 1405, "trial": 24, "rt": 592, "response": "Alpha"}, "25": {"stimulus": 530, "trial": 25, "rt": 1006, "response": "Alpha"}, "26": {"stimulus": 30, "trial": 26, "rt": 874, "response": "Beta"}, "27": {"stimulus": 1249, "trial": 27, "rt": 1010, "response": "Alpha"}, "20": {"stimulus": 2218, "trial": 20, "rt": 1081, "response": "Beta"}, "21": {"stimulus": 1843, "trial": 21, "rt": 1687, "response": "Alpha"}, "22": {"stimulus": 1562, "trial": 22, "rt": 984, "response": "Alpha"}, "23": {"stimulus": 1155, "trial": 23, "rt": 894, "response": "Alpha"}, "46": {"stimulus": 2437, "trial": 46, "rt": 1099, "response": "Beta"}, "47": {"stimulus": 1062, "trial": 47, "rt": 890, "response": "Alpha"}, "44": {"stimulus": 968, "trial": 44, "rt": 1149, "response": "Alpha"}, "45": {"stimulus": 499, "trial": 45, "rt": 671, "response": "Alpha"}, "28": {"stimulus": 0, "trial": 28, "rt": 975, "response": "Beta"}, "29": {"stimulus": 2499, "trial": 29, "rt": 1014, "response": "Beta"}, "40": {"stimulus": 218, "trial": 40, "rt": 833, "response": "Beta"}, "41": {"stimulus": 687, "trial": 41, "rt": 810, "response": "Alpha"}, "1": {"stimulus": 1780, "trial": 1, "rt": 1023, "response": "Beta"}, "0": {"stimulus": 437, "trial": 0, "rt": 2314, "response": "Beta"}, "3": {"stimulus": 280, "trial": 3, "rt": 1334, "response": "Beta"}, "2": {"stimulus": 843, "trial": 2, "rt": 887, "response": "Beta"}, "5": {"stimulus": 1749, "trial": 5, "rt": 1331, "response": "Beta"}, "4": {"stimulus": 1437, "trial": 4, "rt": 891, "response": "Beta"}, "7": {"stimulus": 2249, "trial": 7, "rt": 738, "response": "Alpha"}, "6": {"stimulus": 1937, "trial": 6, "rt": 1414, "response": "Beta"}, "9": {"stimulus": 2312, "trial": 9, "rt": 843, "response": "Alpha"}, "8": {"stimulus": 1374, "trial": 8, "rt": 930, "response": "Beta"}, "78": {"stimulus": 1655, "trial": 78, "rt": 976, "response": "Alpha"}, "51": {"stimulus": 1124, "trial": 51, "rt": 911, "response": "Alpha"}, "39": {"stimulus": 62, "trial": 39, "rt": 1019, "response": "Beta"}, "65": {"stimulus": 93, "trial": 65, "rt": 600, "response": "Beta"}, "76": {"stimulus": 1280, "trial": 76, "rt": 575, "response": "Alpha"}, "75": {"stimulus": 562, "trial": 75, "rt": 614, "response": "Alpha"}, "38": {"stimulus": 468, "trial": 38, "rt": 900, "response": "Alpha"}, "73": {"stimulus": 405, "trial": 73, "rt": 649, "response": "Alpha"}, "72": {"stimulus": 1968, "trial": 72, "rt": 732, "response": "Alpha"}, "71": {"stimulus": 593, "trial": 71, "rt": 593, "response": "Alpha"}, "70": {"stimulus": 999, "trial": 70, "rt": 603, "response": "Alpha"}, "59": {"stimulus": 2405, "trial": 59, "rt": 869, "response": "Beta"}, "79": {"stimulus": 1312, "trial": 79, "rt": 756, "response": "Alpha"}, "58": {"stimulus": 937, "trial": 58, "rt": 872, "response": "Alpha"}, "11": {"stimulus": 1468, "trial": 11, "rt": 978, "response": "Beta"}, "10": {"stimulus": 2155, "trial": 10, "rt": 679, "response": "Alpha"}, "13": {"stimulus": 1905, "trial": 13, "rt": 1519, "response": "Alpha"}, "12": {"stimulus": 1030, "trial": 12, "rt": 13912, "response": "Alpha"}, "15": {"stimulus": 155, "trial": 15, "rt": 1629, "response": "Beta"}, "14": {"stimulus": 1093, "trial": 14, "rt": 907, "response": "Alpha"}, "17": {"stimulus": 249, "trial": 17, "rt": 3525, "response": "Alpha"}, "16": {"stimulus": 2374, "trial": 16, "rt": 1109, "response": "Beta"}, "19": {"stimulus": 780, "trial": 19, "rt": 822, "response": "Alpha"}, "18": {"stimulus": 1874, "trial": 18, "rt": 2846, "response": "Alpha"}, "31": {"stimulus": 1499, "trial": 31, "rt": 974, "response": "Alpha"}, "30": {"stimulus": 2062, "trial": 30, "rt": 832, "response": "Beta"}, "37": {"stimulus": 2468, "trial": 37, "rt": 1163, "response": "Beta"}, "36": {"stimulus": 1218, "trial": 36, "rt": 944, "response": "Alpha"}, "35": {"stimulus": 187, "trial": 35, "rt": 969, "response": "Alpha"}, "34": {"stimulus": 655, "trial": 34, "rt": 1152, "response": "Alpha"}, "33": {"stimulus": 2280, "trial": 33, "rt": 1034, "response": "Beta"}, "55": {"stimulus": 874, "trial": 55, "rt": 878, "response": "Alpha"}, "74": {"stimulus": 718, "trial": 74, "rt": 557, "response": "Alpha"}, "32": {"stimulus": 624, "trial": 32, "rt": 862, "response": "Alpha"}, "57": {"stimulus": 1687, "trial": 57, "rt": 1167, "response": "Beta"}, "50": {"stimulus": 343, "trial": 50, "rt": 1192, "response": "Alpha"}}, "experiment": {"Paradigm": "TACL", "Stimuli": "Size-Color Squares", "Experiment": "Generating-Multiple-Categories"}, "submit": {"timeTotal": 311315, "age": "31", "comments": "I accidentally screwed up at the beginning of the \"alpha\" or \"beta\" judgement section and had mixed the two up. My apologies! I corrected it after about the 5th or 6th choice.", "sex": "female"}}