{"info": {"finish": 1548181098594, "participant": 385, "exposed": true, "lab": false, "start": 1548180803532, "counterbalance": 1, "gentype": 2, "condition": "Cluster", "browser": {"platform": "MacIntel", "userAgent": "Mozilla/5.0 (Macintosh; Intel Mac OS X 10_9_5) AppleWebKit/537.36 (KHTML, like Gecko) Chrome/67.0.3396.87 Safari/537.36"}}, "observation": {"11": {"stimulus": 583, "trial": 11, "rt": 1611}, "10": {"stimulus": 1083, "trial": 10, "rt": 1742}, "1": {"stimulus": 1093, "trial": 1, "rt": 2429}, "0": {"stimulus": 583, "trial": 0, "rt": 3148}, "3": {"stimulus": 1083, "trial": 3, "rt": 1647}, "2": {"stimulus": 392, "trial": 2, "rt": 1964}, "5": {"stimulus": 583, "trial": 5, "rt": 1496}, "4": {"stimulus": 392, "trial": 4, "rt": 1528}, "7": {"stimulus": 1093, "trial": 7, "rt": 1391}, "6": {"stimulus": 1083, "trial": 6, "rt": 1449}, "9": {"stimulus": 1093, "trial": 9, "rt": 1454}, "8": {"stimulus": 392, "trial": 8, "rt": 1442}}, "generation": {"1": {"category": "Beta", "trial": 1, "stimulus": 2362, "rt": 6536}, "0": {"category": "Beta", "trial": 0, "stimulus": 2471, "rt": 13489}, "3": {"category": "Beta", "trial": 3, "stimulus": 2418, "rt": 6048}, "2": {"category": "Beta", "trial": 2, "stimulus": 2280, "rt": 5029}, "5": {"category": "Gamma", "trial": 5, "stimulus": 41, "rt": 3250}, "4": {"category": "Gamma", "trial": 4, "stimulus": 49, "rt": 2822}, "7": {"category": "Gamma", "trial": 7, "stimulus": 142, "rt": 3040}, "6": {"category": "Gamma", "trial": 6, "stimulus": 40, "rt": 3304}}, "generalization": {"56": {"stimulus": 749, "trial": 56, "rt": 797, "response": "Alpha"}, "77": {"stimulus": 999, "trial": 77, "rt": 1109, "response": "Alpha"}, "54": {"stimulus": 1749, "trial": 54, "rt": 1017, "response": "Beta"}, "42": {"stimulus": 1405, "trial": 42, "rt": 932, "response": "Alpha"}, "48": {"stimulus": 1062, "trial": 48, "rt": 653, "response": "Alpha"}, "43": {"stimulus": 2093, "trial": 43, "rt": 904, "response": "Beta"}, "60": {"stimulus": 1155, "trial": 60, "rt": 877, "response": "Alpha"}, "61": {"stimulus": 874, "trial": 61, "rt": 534, "response": "Alpha"}, "62": {"stimulus": 1593, "trial": 62, "rt": 998, "response": "Alpha"}, "63": {"stimulus": 280, "trial": 63, "rt": 1386, "response": "Gamma"}, "64": {"stimulus": 2062, "trial": 64, "rt": 893, "response": "Beta"}, "49": {"stimulus": 1187, "trial": 49, "rt": 1663, "response": "Alpha"}, "66": {"stimulus": 2312, "trial": 66, "rt": 1479, "response": "Beta"}, "67": {"stimulus": 2187, "trial": 67, "rt": 1674, "response": "Beta"}, "68": {"stimulus": 2405, "trial": 68, "rt": 759, "response": "Beta"}, "69": {"stimulus": 2468, "trial": 69, "rt": 563, "response": "Beta"}, "80": {"stimulus": 30, "trial": 80, "rt": 1188, "response": "Gamma"}, "52": {"stimulus": 2030, "trial": 52, "rt": 1113, "response": "Beta"}, "53": {"stimulus": 937, "trial": 53, "rt": 1366, "response": "Gamma"}, "24": {"stimulus": 1999, "trial": 24, "rt": 897, "response": "Beta"}, "25": {"stimulus": 2249, "trial": 25, "rt": 764, "response": "Beta"}, "26": {"stimulus": 1812, "trial": 26, "rt": 512, "response": "Beta"}, "27": {"stimulus": 312, "trial": 27, "rt": 1310, "response": "Alpha"}, "20": {"stimulus": 1780, "trial": 20, "rt": 1070, "response": "Beta"}, "21": {"stimulus": 530, "trial": 21, "rt": 1170, "response": "Alpha"}, "22": {"stimulus": 2124, "trial": 22, "rt": 1034, "response": "Beta"}, "23": {"stimulus": 593, "trial": 23, "rt": 1372, "response": "Alpha"}, "46": {"stimulus": 343, "trial": 46, "rt": 684, "response": "Alpha"}, "47": {"stimulus": 1280, "trial": 47, "rt": 1150, "response": "Alpha"}, "44": {"stimulus": 812, "trial": 44, "rt": 999, "response": "Alpha"}, "45": {"stimulus": 1718, "trial": 45, "rt": 2265, "response": "Alpha"}, "28": {"stimulus": 405, "trial": 28, "rt": 591, "response": "Alpha"}, "29": {"stimulus": 718, "trial": 29, "rt": 563, "response": "Alpha"}, "40": {"stimulus": 1937, "trial": 40, "rt": 1281, "response": "Beta"}, "41": {"stimulus": 2374, "trial": 41, "rt": 515, "response": "Beta"}, "1": {"stimulus": 1624, "trial": 1, "rt": 860, "response": "Alpha"}, "0": {"stimulus": 1124, "trial": 0, "rt": 3441, "response": "Alpha"}, "3": {"stimulus": 1530, "trial": 3, "rt": 973, "response": "Beta"}, "2": {"stimulus": 2155, "trial": 2, "rt": 1615, "response": "Beta"}, "5": {"stimulus": 624, "trial": 5, "rt": 1079, "response": "Alpha"}, "4": {"stimulus": 1874, "trial": 4, "rt": 1481, "response": "Beta"}, "7": {"stimulus": 2280, "trial": 7, "rt": 1135, "response": "Beta"}, "6": {"stimulus": 1968, "trial": 6, "rt": 1815, "response": "Alpha"}, "9": {"stimulus": 1249, "trial": 9, "rt": 863, "response": "Alpha"}, "8": {"stimulus": 1499, "trial": 8, "rt": 2245, "response": "Alpha"}, "78": {"stimulus": 249, "trial": 78, "rt": 1453, "response": "Gamma"}, "51": {"stimulus": 437, "trial": 51, "rt": 1768, "response": "Gamma"}, "39": {"stimulus": 968, "trial": 39, "rt": 997, "response": "Alpha"}, "65": {"stimulus": 1374, "trial": 65, "rt": 945, "response": "Alpha"}, "76": {"stimulus": 905, "trial": 76, "rt": 1323, "response": "Alpha"}, "75": {"stimulus": 124, "trial": 75, "rt": 1985, "response": "Gamma"}, "38": {"stimulus": 1905, "trial": 38, "rt": 967, "response": "Beta"}, "73": {"stimulus": 499, "trial": 73, "rt": 1446, "response": "Gamma"}, "72": {"stimulus": 1093, "trial": 72, "rt": 636, "response": "Alpha"}, "71": {"stimulus": 1437, "trial": 71, "rt": 889, "response": "Alpha"}, "70": {"stimulus": 655, "trial": 70, "rt": 917, "response": "Alpha"}, "59": {"stimulus": 1562, "trial": 59, "rt": 1167, "response": "Alpha"}, "79": {"stimulus": 1687, "trial": 79, "rt": 1744, "response": "Alpha"}, "58": {"stimulus": 187, "trial": 58, "rt": 1624, "response": "Gamma"}, "11": {"stimulus": 0, "trial": 11, "rt": 1538, "response": "Gamma"}, "10": {"stimulus": 1218, "trial": 10, "rt": 935, "response": "Alpha"}, "13": {"stimulus": 780, "trial": 13, "rt": 559, "response": "Alpha"}, "12": {"stimulus": 687, "trial": 12, "rt": 4177, "response": "Alpha"}, "15": {"stimulus": 1312, "trial": 15, "rt": 773, "response": "Alpha"}, "14": {"stimulus": 843, "trial": 14, "rt": 660, "response": "Alpha"}, "17": {"stimulus": 1655, "trial": 17, "rt": 2246, "response": "Alpha"}, "16": {"stimulus": 62, "trial": 16, "rt": 2103, "response": "Gamma"}, "19": {"stimulus": 1343, "trial": 19, "rt": 1076, "response": "Beta"}, "18": {"stimulus": 468, "trial": 18, "rt": 1498, "response": "Alpha"}, "31": {"stimulus": 562, "trial": 31, "rt": 535, "response": "Alpha"}, "30": {"stimulus": 1030, "trial": 30, "rt": 507, "response": "Alpha"}, "37": {"stimulus": 2499, "trial": 37, "rt": 1047, "response": "Beta"}, "36": {"stimulus": 93, "trial": 36, "rt": 919, "response": "Gamma"}, "35": {"stimulus": 374, "trial": 35, "rt": 1406, "response": "Gamma"}, "34": {"stimulus": 1468, "trial": 34, "rt": 2024, "response": "Alpha"}, "33": {"stimulus": 155, "trial": 33, "rt": 2423, "response": "Alpha"}, "55": {"stimulus": 2218, "trial": 55, "rt": 776, "response": "Beta"}, "74": {"stimulus": 2437, "trial": 74, "rt": 864, "response": "Beta"}, "32": {"stimulus": 218, "trial": 32, "rt": 1013, "response": "Alpha"}, "57": {"stimulus": 1843, "trial": 57, "rt": 1033, "response": "Beta"}, "50": {"stimulus": 2343, "trial": 50, "rt": 1022, "response": "Beta"}}, "experiment": {"Paradigm": "TACL", "Stimuli": "Size-Color Squares", "Experiment": "Generating-Multiple-Categories"}, "submit": {"timeTotal": 295288, "age": "48", "comments": "", "sex": "male"}}