{"info": {"finish": 1548181282531, "participant": 387, "exposed": true, "lab": false, "start": 1548180924001, "counterbalance": 7, "gentype": 0, "condition": "XOR", "browser": {"platform": "Win32", "userAgent": "Mozilla/5.0 (Windows NT 6.1; Win64; x64) AppleWebKit/537.36 (KHTML, like Gecko) Chrome/71.0.3578.98 Safari/537.36"}}, "observation": {"11": {"stimulus": 1479, "trial": 11, "rt": 1785}, "10": {"stimulus": 818, "trial": 10, "rt": 1570}, "1": {"stimulus": 1479, "trial": 1, "rt": 2846}, "0": {"stimulus": 403, "trial": 0, "rt": 4825}, "3": {"stimulus": 1890, "trial": 3, "rt": 3965}, "2": {"stimulus": 818, "trial": 2, "rt": 1692}, "5": {"stimulus": 403, "trial": 5, "rt": 1678}, "4": {"stimulus": 1479, "trial": 4, "rt": 1723}, "7": {"stimulus": 818, "trial": 7, "rt": 1485}, "6": {"stimulus": 1890, "trial": 6, "rt": 1463}, "9": {"stimulus": 1890, "trial": 9, "rt": 5621}, "8": {"stimulus": 403, "trial": 8, "rt": 1494}}, "generation": {"1": {"category": "Not-Alpha", "trial": 1, "stimulus": 0, "rt": 6481}, "0": {"category": "Not-Alpha", "trial": 0, "stimulus": 49, "rt": 11023}, "3": {"category": "Not-Alpha", "trial": 3, "stimulus": 10, "rt": 3656}, "2": {"category": "Not-Alpha", "trial": 2, "stimulus": 1, "rt": 3470}, "5": {"category": "Not-Alpha", "trial": 5, "stimulus": 1749, "rt": 2731}, "4": {"category": "Not-Alpha", "trial": 4, "stimulus": 2499, "rt": 11010}, "7": {"category": "Not-Alpha", "trial": 7, "stimulus": 1899, "rt": 3609}, "6": {"category": "Not-Alpha", "trial": 6, "stimulus": 999, "rt": 5404}}, "generalization": {"56": {"stimulus": 1249, "trial": 56, "rt": 2053, "response": "Beta"}, "77": {"stimulus": 1468, "trial": 77, "rt": 2067, "response": "Alpha"}, "54": {"stimulus": 655, "trial": 54, "rt": 899, "response": "Alpha"}, "42": {"stimulus": 1999, "trial": 42, "rt": 1468, "response": "Beta"}, "48": {"stimulus": 2155, "trial": 48, "rt": 1277, "response": "Alpha"}, "43": {"stimulus": 1405, "trial": 43, "rt": 1022, "response": "Alpha"}, "60": {"stimulus": 1812, "trial": 60, "rt": 3761, "response": "Alpha"}, "61": {"stimulus": 155, "trial": 61, "rt": 2143, "response": "Beta"}, "62": {"stimulus": 1030, "trial": 62, "rt": 1901, "response": "Alpha"}, "63": {"stimulus": 2312, "trial": 63, "rt": 2018, "response": "Alpha"}, "64": {"stimulus": 1437, "trial": 64, "rt": 2454, "response": "Alpha"}, "49": {"stimulus": 1093, "trial": 49, "rt": 1380, "response": "Alpha"}, "66": {"stimulus": 812, "trial": 66, "rt": 713, "response": "Alpha"}, "67": {"stimulus": 2405, "trial": 67, "rt": 790, "response": "Alpha"}, "68": {"stimulus": 530, "trial": 68, "rt": 1707, "response": "Alpha"}, "69": {"stimulus": 1749, "trial": 69, "rt": 2755, "response": "Beta"}, "80": {"stimulus": 1593, "trial": 80, "rt": 2093, "response": "Beta"}, "52": {"stimulus": 780, "trial": 52, "rt": 1107, "response": "Alpha"}, "53": {"stimulus": 1937, "trial": 53, "rt": 1490, "response": "Alpha"}, "24": {"stimulus": 1499, "trial": 24, "rt": 1112, "response": "Beta"}, "25": {"stimulus": 2468, "trial": 25, "rt": 595, "response": "Alpha"}, "26": {"stimulus": 1062, "trial": 26, "rt": 528, "response": "Alpha"}, "27": {"stimulus": 2343, "trial": 27, "rt": 1151, "response": "Beta"}, "20": {"stimulus": 593, "trial": 20, "rt": 1138, "response": "Beta"}, "21": {"stimulus": 249, "trial": 21, "rt": 1326, "response": "Beta"}, "22": {"stimulus": 124, "trial": 22, "rt": 1330, "response": "Beta"}, "23": {"stimulus": 624, "trial": 23, "rt": 1258, "response": "Alpha"}, "46": {"stimulus": 62, "trial": 46, "rt": 2273, "response": "Beta"}, "47": {"stimulus": 2124, "trial": 47, "rt": 1414, "response": "Alpha"}, "44": {"stimulus": 312, "trial": 44, "rt": 3592, "response": "Beta"}, "45": {"stimulus": 843, "trial": 45, "rt": 1839, "response": "Alpha"}, "28": {"stimulus": 2249, "trial": 28, "rt": 625, "response": "Beta"}, "29": {"stimulus": 749, "trial": 29, "rt": 926, "response": "Beta"}, "40": {"stimulus": 2437, "trial": 40, "rt": 1649, "response": "Beta"}, "41": {"stimulus": 1874, "trial": 41, "rt": 1374, "response": "Alpha"}, "1": {"stimulus": 562, "trial": 1, "rt": 786, "response": "Alpha"}, "0": {"stimulus": 1187, "trial": 0, "rt": 1978, "response": "Alpha"}, "3": {"stimulus": 468, "trial": 3, "rt": 670, "response": "Alpha"}, "2": {"stimulus": 1343, "trial": 2, "rt": 1458, "response": "Beta"}, "5": {"stimulus": 1718, "trial": 5, "rt": 564, "response": "Alpha"}, "4": {"stimulus": 1280, "trial": 4, "rt": 533, "response": "Alpha"}, "7": {"stimulus": 499, "trial": 7, "rt": 670, "response": "Beta"}, "6": {"stimulus": 218, "trial": 6, "rt": 1781, "response": "Beta"}, "9": {"stimulus": 937, "trial": 9, "rt": 1064, "response": "Beta"}, "8": {"stimulus": 2030, "trial": 8, "rt": 1475, "response": "Alpha"}, "78": {"stimulus": 1655, "trial": 78, "rt": 620, "response": "Alpha"}, "51": {"stimulus": 2218, "trial": 51, "rt": 3946, "response": "Alpha"}, "39": {"stimulus": 687, "trial": 39, "rt": 1180, "response": "Alpha"}, "65": {"stimulus": 1312, "trial": 65, "rt": 715, "response": "Alpha"}, "76": {"stimulus": 405, "trial": 76, "rt": 1382, "response": "Beta"}, "75": {"stimulus": 1218, "trial": 75, "rt": 1278, "response": "Alpha"}, "38": {"stimulus": 905, "trial": 38, "rt": 1347, "response": "Alpha"}, "73": {"stimulus": 2187, "trial": 73, "rt": 1559, "response": "Alpha"}, "72": {"stimulus": 1624, "trial": 72, "rt": 760, "response": "Alpha"}, "71": {"stimulus": 1905, "trial": 71, "rt": 1308, "response": "Alpha"}, "70": {"stimulus": 1530, "trial": 70, "rt": 1658, "response": "Alpha"}, "59": {"stimulus": 999, "trial": 59, "rt": 1255, "response": "Beta"}, "79": {"stimulus": 2280, "trial": 79, "rt": 710, "response": "Alpha"}, "58": {"stimulus": 280, "trial": 58, "rt": 1028, "response": "Alpha"}, "11": {"stimulus": 874, "trial": 11, "rt": 785, "response": "Alpha"}, "10": {"stimulus": 2062, "trial": 10, "rt": 681, "response": "Alpha"}, "13": {"stimulus": 343, "trial": 13, "rt": 1055, "response": "Beta"}, "12": {"stimulus": 1155, "trial": 12, "rt": 709, "response": "Alpha"}, "15": {"stimulus": 2499, "trial": 15, "rt": 533, "response": "Alpha"}, "14": {"stimulus": 1562, "trial": 14, "rt": 557, "response": "Alpha"}, "17": {"stimulus": 30, "trial": 17, "rt": 1253, "response": "Beta"}, "16": {"stimulus": 1374, "trial": 16, "rt": 638, "response": "Alpha"}, "19": {"stimulus": 1780, "trial": 19, "rt": 718, "response": "Alpha"}, "18": {"stimulus": 1968, "trial": 18, "rt": 631, "response": "Alpha"}, "31": {"stimulus": 374, "trial": 31, "rt": 2291, "response": "Alpha"}, "30": {"stimulus": 0, "trial": 30, "rt": 1380, "response": "Beta"}, "37": {"stimulus": 1124, "trial": 37, "rt": 1448, "response": "Alpha"}, "36": {"stimulus": 718, "trial": 36, "rt": 18450, "response": "Alpha"}, "35": {"stimulus": 1687, "trial": 35, "rt": 755, "response": "Alpha"}, "34": {"stimulus": 968, "trial": 34, "rt": 767, "response": "Alpha"}, "33": {"stimulus": 2093, "trial": 33, "rt": 1230, "response": "Beta"}, "55": {"stimulus": 2374, "trial": 55, "rt": 830, "response": "Alpha"}, "74": {"stimulus": 1843, "trial": 74, "rt": 1635, "response": "Beta"}, "32": {"stimulus": 187, "trial": 32, "rt": 1126, "response": "Beta"}, "57": {"stimulus": 437, "trial": 57, "rt": 1858, "response": "Alpha"}, "50": {"stimulus": 93, "trial": 50, "rt": 2576, "response": "Beta"}}, "experiment": {"Paradigm": "TACL", "Stimuli": "Size-Color Squares", "Experiment": "Generating-Multiple-Categories"}, "submit": {"timeTotal": 359245, "age": "31", "comments": "Fun study", "sex": "female"}}