{"info": {"finish": 1548181617105, "participant": 388, "exposed": true, "lab": false, "start": 1548180985902, "counterbalance": 1, "gentype": 2, "condition": "Row", "browser": {"platform": "Win32", "userAgent": "Mozilla/5.0 (Windows NT 6.3; Win64; x64) AppleWebKit/537.36 (KHTML, like Gecko) Chrome/71.0.3578.98 Safari/537.36"}}, "observation": {"11": {"stimulus": 582, "trial": 11, "rt": 1435}, "10": {"stimulus": 612, "trial": 10, "rt": 1466}, "1": {"stimulus": 493, "trial": 1, "rt": 3373}, "0": {"stimulus": 582, "trial": 0, "rt": 9498}, "3": {"stimulus": 421, "trial": 3, "rt": 2412}, "2": {"stimulus": 612, "trial": 2, "rt": 2907}, "5": {"stimulus": 493, "trial": 5, "rt": 1612}, "4": {"stimulus": 612, "trial": 4, "rt": 2134}, "7": {"stimulus": 421, "trial": 7, "rt": 1507}, "6": {"stimulus": 582, "trial": 6, "rt": 1557}, "9": {"stimulus": 493, "trial": 9, "rt": 1482}, "8": {"stimulus": 421, "trial": 8, "rt": 1460}}, "generation": {"1": {"category": "Beta", "trial": 1, "stimulus": 2235, "rt": 19611}, "0": {"category": "Beta", "trial": 0, "stimulus": 1998, "rt": 70544}, "3": {"category": "Beta", "trial": 3, "stimulus": 2237, "rt": 6947}, "2": {"category": "Beta", "trial": 2, "stimulus": 2236, "rt": 9466}, "5": {"category": "Gamma", "trial": 5, "stimulus": 1340, "rt": 4303}, "4": {"category": "Gamma", "trial": 4, "stimulus": 1358, "rt": 18156}, "7": {"category": "Gamma", "trial": 7, "stimulus": 1190, "rt": 4306}, "6": {"category": "Gamma", "trial": 6, "stimulus": 1241, "rt": 3795}}, "generalization": {"56": {"stimulus": 1905, "trial": 56, "rt": 1328, "response": "Beta"}, "77": {"stimulus": 1687, "trial": 77, "rt": 1149, "response": "Gamma"}, "54": {"stimulus": 593, "trial": 54, "rt": 2473, "response": "Gamma"}, "42": {"stimulus": 2124, "trial": 42, "rt": 1183, "response": "Beta"}, "48": {"stimulus": 780, "trial": 48, "rt": 1041, "response": "Gamma"}, "43": {"stimulus": 312, "trial": 43, "rt": 1364, "response": "Alpha"}, "60": {"stimulus": 1593, "trial": 60, "rt": 1761, "response": "Gamma"}, "61": {"stimulus": 749, "trial": 61, "rt": 2242, "response": "Gamma"}, "62": {"stimulus": 1499, "trial": 62, "rt": 1772, "response": "Gamma"}, "63": {"stimulus": 2187, "trial": 63, "rt": 1206, "response": "Beta"}, "64": {"stimulus": 1405, "trial": 64, "rt": 1719, "response": "Gamma"}, "49": {"stimulus": 874, "trial": 49, "rt": 938, "response": "Gamma"}, "66": {"stimulus": 155, "trial": 66, "rt": 1510, "response": "Alpha"}, "67": {"stimulus": 1624, "trial": 67, "rt": 2621, "response": "Gamma"}, "68": {"stimulus": 2468, "trial": 68, "rt": 974, "response": "Beta"}, "69": {"stimulus": 718, "trial": 69, "rt": 1902, "response": "Gamma"}, "80": {"stimulus": 2437, "trial": 80, "rt": 1048, "response": "Beta"}, "52": {"stimulus": 2374, "trial": 52, "rt": 1176, "response": "Beta"}, "53": {"stimulus": 30, "trial": 53, "rt": 1288, "response": "Alpha"}, "24": {"stimulus": 937, "trial": 24, "rt": 1638, "response": "Gamma"}, "25": {"stimulus": 2093, "trial": 25, "rt": 1038, "response": "Beta"}, "26": {"stimulus": 624, "trial": 26, "rt": 2733, "response": "Gamma"}, "27": {"stimulus": 1655, "trial": 27, "rt": 1259, "response": "Beta"}, "20": {"stimulus": 1374, "trial": 20, "rt": 1627, "response": "Gamma"}, "21": {"stimulus": 1812, "trial": 21, "rt": 1191, "response": "Beta"}, "22": {"stimulus": 1468, "trial": 22, "rt": 2260, "response": "Gamma"}, "23": {"stimulus": 280, "trial": 23, "rt": 1617, "response": "Alpha"}, "46": {"stimulus": 843, "trial": 46, "rt": 1334, "response": "Gamma"}, "47": {"stimulus": 1249, "trial": 47, "rt": 1501, "response": "Gamma"}, "44": {"stimulus": 1718, "trial": 44, "rt": 1523, "response": "Beta"}, "45": {"stimulus": 1874, "trial": 45, "rt": 894, "response": "Beta"}, "28": {"stimulus": 0, "trial": 28, "rt": 1500, "response": "Alpha"}, "29": {"stimulus": 1749, "trial": 29, "rt": 1777, "response": "Beta"}, "40": {"stimulus": 62, "trial": 40, "rt": 1192, "response": "Alpha"}, "41": {"stimulus": 655, "trial": 41, "rt": 4118, "response": "Gamma"}, "1": {"stimulus": 343, "trial": 1, "rt": 2089, "response": "Alpha"}, "0": {"stimulus": 2030, "trial": 0, "rt": 4948, "response": "Beta"}, "3": {"stimulus": 905, "trial": 3, "rt": 5296, "response": "Gamma"}, "2": {"stimulus": 2062, "trial": 2, "rt": 1420, "response": "Beta"}, "5": {"stimulus": 1999, "trial": 5, "rt": 1515, "response": "Beta"}, "4": {"stimulus": 1780, "trial": 4, "rt": 2689, "response": "Beta"}, "7": {"stimulus": 1280, "trial": 7, "rt": 1588, "response": "Gamma"}, "6": {"stimulus": 968, "trial": 6, "rt": 1483, "response": "Gamma"}, "9": {"stimulus": 1437, "trial": 9, "rt": 1483, "response": "Gamma"}, "8": {"stimulus": 2155, "trial": 8, "rt": 1221, "response": "Beta"}, "78": {"stimulus": 1187, "trial": 78, "rt": 852, "response": "Gamma"}, "51": {"stimulus": 1343, "trial": 51, "rt": 1499, "response": "Gamma"}, "39": {"stimulus": 1124, "trial": 39, "rt": 1496, "response": "Gamma"}, "65": {"stimulus": 2280, "trial": 65, "rt": 1057, "response": "Beta"}, "76": {"stimulus": 124, "trial": 76, "rt": 1386, "response": "Alpha"}, "75": {"stimulus": 2249, "trial": 75, "rt": 1201, "response": "Beta"}, "38": {"stimulus": 2343, "trial": 38, "rt": 1451, "response": "Beta"}, "73": {"stimulus": 437, "trial": 73, "rt": 1811, "response": "Gamma"}, "72": {"stimulus": 1218, "trial": 72, "rt": 797, "response": "Gamma"}, "71": {"stimulus": 1093, "trial": 71, "rt": 1103, "response": "Gamma"}, "70": {"stimulus": 1155, "trial": 70, "rt": 1597, "response": "Gamma"}, "59": {"stimulus": 187, "trial": 59, "rt": 1894, "response": "Alpha"}, "79": {"stimulus": 405, "trial": 79, "rt": 1749, "response": "Gamma"}, "58": {"stimulus": 2312, "trial": 58, "rt": 9234, "response": "Beta"}, "11": {"stimulus": 93, "trial": 11, "rt": 1883, "response": "Alpha"}, "10": {"stimulus": 530, "trial": 10, "rt": 2790, "response": "Alpha"}, "13": {"stimulus": 999, "trial": 13, "rt": 1726, "response": "Gamma"}, "12": {"stimulus": 1062, "trial": 12, "rt": 1839, "response": "Gamma"}, "15": {"stimulus": 1312, "trial": 15, "rt": 2670, "response": "Gamma"}, "14": {"stimulus": 812, "trial": 14, "rt": 1761, "response": "Gamma"}, "17": {"stimulus": 562, "trial": 17, "rt": 3910, "response": "Gamma"}, "16": {"stimulus": 249, "trial": 16, "rt": 2773, "response": "Alpha"}, "19": {"stimulus": 1968, "trial": 19, "rt": 1088, "response": "Beta"}, "18": {"stimulus": 2218, "trial": 18, "rt": 1390, "response": "Beta"}, "31": {"stimulus": 1030, "trial": 31, "rt": 1519, "response": "Gamma"}, "30": {"stimulus": 468, "trial": 30, "rt": 2437, "response": "Gamma"}, "37": {"stimulus": 218, "trial": 37, "rt": 1781, "response": "Alpha"}, "36": {"stimulus": 2405, "trial": 36, "rt": 754, "response": "Beta"}, "35": {"stimulus": 2499, "trial": 35, "rt": 701, "response": "Beta"}, "34": {"stimulus": 1937, "trial": 34, "rt": 859, "response": "Beta"}, "33": {"stimulus": 1530, "trial": 33, "rt": 1230, "response": "Beta"}, "55": {"stimulus": 499, "trial": 55, "rt": 1805, "response": "Gamma"}, "74": {"stimulus": 1562, "trial": 74, "rt": 1389, "response": "Gamma"}, "32": {"stimulus": 687, "trial": 32, "rt": 1333, "response": "Gamma"}, "57": {"stimulus": 1843, "trial": 57, "rt": 895, "response": "Beta"}, "50": {"stimulus": 374, "trial": 50, "rt": 1163, "response": "Alpha"}}, "experiment": {"Paradigm": "TACL", "Stimuli": "Size-Color Squares", "Experiment": "Generating-Multiple-Categories"}, "submit": {"timeTotal": 632117, "age": "49", "comments": "it induces our prepare knowledge", "sex": "male"}}