{"info": {"finish": 1548185896979, "participant": 394, "exposed": true, "lab": false, "start": 1548185554537, "counterbalance": 3, "gentype": 1, "condition": "Cluster", "browser": {"platform": "Win32", "userAgent": "Mozilla/5.0 (Windows NT 10.0; Win64; x64) AppleWebKit/537.36 (KHTML, like Gecko) Chrome/71.0.3578.98 Safari/537.36"}}, "observation": {"11": {"stimulus": 392, "trial": 11, "rt": 9789}, "10": {"stimulus": 583, "trial": 10, "rt": 1767}, "1": {"stimulus": 1093, "trial": 1, "rt": 2382}, "0": {"stimulus": 583, "trial": 0, "rt": 3833}, "3": {"stimulus": 392, "trial": 3, "rt": 4278}, "2": {"stimulus": 1083, "trial": 2, "rt": 2113}, "5": {"stimulus": 392, "trial": 5, "rt": 3902}, "4": {"stimulus": 583, "trial": 4, "rt": 4291}, "7": {"stimulus": 1093, "trial": 7, "rt": 1996}, "6": {"stimulus": 1083, "trial": 6, "rt": 1934}, "9": {"stimulus": 1093, "trial": 9, "rt": 1447}, "8": {"stimulus": 1083, "trial": 8, "rt": 1588}}, "generation": {"1": {"category": "Beta", "trial": 1, "stimulus": 555, "rt": 6703}, "0": {"category": "Beta", "trial": 0, "stimulus": 499, "rt": 11151}, "3": {"category": "Beta", "trial": 3, "stimulus": 936, "rt": 3087}, "2": {"category": "Beta", "trial": 2, "stimulus": 26, "rt": 8694}, "5": {"category": "Beta", "trial": 5, "stimulus": 414, "rt": 6504}, "4": {"category": "Beta", "trial": 4, "stimulus": 110, "rt": 3587}, "7": {"category": "Beta", "trial": 7, "stimulus": 474, "rt": 6493}, "6": {"category": "Beta", "trial": 6, "stimulus": 288, "rt": 5391}}, "generalization": {"56": {"stimulus": 1218, "trial": 56, "rt": 1253, "response": "Beta"}, "77": {"stimulus": 249, "trial": 77, "rt": 1283, "response": "Alpha"}, "54": {"stimulus": 499, "trial": 54, "rt": 725, "response": "Alpha"}, "42": {"stimulus": 2499, "trial": 42, "rt": 1888, "response": "Beta"}, "48": {"stimulus": 593, "trial": 48, "rt": 553, "response": "Alpha"}, "43": {"stimulus": 1530, "trial": 43, "rt": 658, "response": "Alpha"}, "60": {"stimulus": 1030, "trial": 60, "rt": 556, "response": "Alpha"}, "61": {"stimulus": 1874, "trial": 61, "rt": 1335, "response": "Beta"}, "62": {"stimulus": 562, "trial": 62, "rt": 806, "response": "Beta"}, "63": {"stimulus": 624, "trial": 63, "rt": 953, "response": "Beta"}, "64": {"stimulus": 1749, "trial": 64, "rt": 2492, "response": "Alpha"}, "49": {"stimulus": 905, "trial": 49, "rt": 910, "response": "Beta"}, "66": {"stimulus": 530, "trial": 66, "rt": 721, "response": "Alpha"}, "67": {"stimulus": 718, "trial": 67, "rt": 926, "response": "Beta"}, "68": {"stimulus": 1249, "trial": 68, "rt": 1004, "response": "Alpha"}, "69": {"stimulus": 2312, "trial": 69, "rt": 703, "response": "Beta"}, "80": {"stimulus": 999, "trial": 80, "rt": 2769, "response": "Alpha"}, "52": {"stimulus": 2468, "trial": 52, "rt": 834, "response": "Beta"}, "53": {"stimulus": 312, "trial": 53, "rt": 1084, "response": "Beta"}, "24": {"stimulus": 280, "trial": 24, "rt": 3469, "response": "Beta"}, "25": {"stimulus": 1624, "trial": 25, "rt": 1301, "response": "Alpha"}, "26": {"stimulus": 1593, "trial": 26, "rt": 3130, "response": "Alpha"}, "27": {"stimulus": 937, "trial": 27, "rt": 604, "response": "Alpha"}, "20": {"stimulus": 780, "trial": 20, "rt": 849, "response": "Beta"}, "21": {"stimulus": 2374, "trial": 21, "rt": 1252, "response": "Alpha"}, "22": {"stimulus": 1312, "trial": 22, "rt": 761, "response": "Alpha"}, "23": {"stimulus": 1437, "trial": 23, "rt": 4829, "response": "Alpha"}, "46": {"stimulus": 1780, "trial": 46, "rt": 677, "response": "Alpha"}, "47": {"stimulus": 124, "trial": 47, "rt": 805, "response": "Beta"}, "44": {"stimulus": 2280, "trial": 44, "rt": 3068, "response": "Alpha"}, "45": {"stimulus": 2437, "trial": 45, "rt": 2043, "response": "Alpha"}, "28": {"stimulus": 687, "trial": 28, "rt": 430, "response": "Alpha"}, "29": {"stimulus": 218, "trial": 29, "rt": 745, "response": "Beta"}, "40": {"stimulus": 1812, "trial": 40, "rt": 541, "response": "Beta"}, "41": {"stimulus": 1999, "trial": 41, "rt": 834, "response": "Alpha"}, "1": {"stimulus": 2249, "trial": 1, "rt": 700, "response": "Alpha"}, "0": {"stimulus": 2218, "trial": 0, "rt": 1469, "response": "Alpha"}, "3": {"stimulus": 1562, "trial": 3, "rt": 1347, "response": "Alpha"}, "2": {"stimulus": 405, "trial": 2, "rt": 2799, "response": "Beta"}, "5": {"stimulus": 437, "trial": 5, "rt": 2428, "response": "Alpha"}, "4": {"stimulus": 1374, "trial": 4, "rt": 740, "response": "Alpha"}, "7": {"stimulus": 187, "trial": 7, "rt": 1378, "response": "Beta"}, "6": {"stimulus": 62, "trial": 6, "rt": 1065, "response": "Beta"}, "9": {"stimulus": 2030, "trial": 9, "rt": 857, "response": "Alpha"}, "8": {"stimulus": 93, "trial": 8, "rt": 1339, "response": "Beta"}, "78": {"stimulus": 1905, "trial": 78, "rt": 2297, "response": "Beta"}, "51": {"stimulus": 1280, "trial": 51, "rt": 1425, "response": "Alpha"}, "39": {"stimulus": 2062, "trial": 39, "rt": 708, "response": "Beta"}, "65": {"stimulus": 2405, "trial": 65, "rt": 685, "response": "Beta"}, "76": {"stimulus": 1687, "trial": 76, "rt": 1917, "response": "Alpha"}, "75": {"stimulus": 1843, "trial": 75, "rt": 1337, "response": "Alpha"}, "38": {"stimulus": 749, "trial": 38, "rt": 1296, "response": "Alpha"}, "73": {"stimulus": 2187, "trial": 73, "rt": 893, "response": "Alpha"}, "72": {"stimulus": 655, "trial": 72, "rt": 546, "response": "Beta"}, "71": {"stimulus": 1405, "trial": 71, "rt": 744, "response": "Beta"}, "70": {"stimulus": 2155, "trial": 70, "rt": 687, "response": "Beta"}, "59": {"stimulus": 1343, "trial": 59, "rt": 664, "response": "Alpha"}, "79": {"stimulus": 812, "trial": 79, "rt": 455, "response": "Beta"}, "58": {"stimulus": 1093, "trial": 58, "rt": 577, "response": "Alpha"}, "11": {"stimulus": 1468, "trial": 11, "rt": 677, "response": "Alpha"}, "10": {"stimulus": 1124, "trial": 10, "rt": 602, "response": "Alpha"}, "13": {"stimulus": 1968, "trial": 13, "rt": 2480, "response": "Beta"}, "12": {"stimulus": 1655, "trial": 12, "rt": 502, "response": "Alpha"}, "15": {"stimulus": 0, "trial": 15, "rt": 1175, "response": "Beta"}, "14": {"stimulus": 374, "trial": 14, "rt": 1072, "response": "Alpha"}, "17": {"stimulus": 1187, "trial": 17, "rt": 825, "response": "Beta"}, "16": {"stimulus": 468, "trial": 16, "rt": 960, "response": "Alpha"}, "19": {"stimulus": 30, "trial": 19, "rt": 755, "response": "Alpha"}, "18": {"stimulus": 343, "trial": 18, "rt": 1924, "response": "Alpha"}, "31": {"stimulus": 1499, "trial": 31, "rt": 681, "response": "Alpha"}, "30": {"stimulus": 2343, "trial": 30, "rt": 606, "response": "Alpha"}, "37": {"stimulus": 155, "trial": 37, "rt": 1125, "response": "Beta"}, "36": {"stimulus": 874, "trial": 36, "rt": 726, "response": "Alpha"}, "35": {"stimulus": 1155, "trial": 35, "rt": 618, "response": "Beta"}, "34": {"stimulus": 968, "trial": 34, "rt": 495, "response": "Beta"}, "33": {"stimulus": 2124, "trial": 33, "rt": 1186, "response": "Beta"}, "55": {"stimulus": 1937, "trial": 55, "rt": 1122, "response": "Alpha"}, "74": {"stimulus": 1062, "trial": 74, "rt": 1519, "response": "Beta"}, "32": {"stimulus": 2093, "trial": 32, "rt": 421, "response": "Alpha"}, "57": {"stimulus": 843, "trial": 57, "rt": 1159, "response": "Alpha"}, "50": {"stimulus": 1718, "trial": 50, "rt": 905, "response": "Beta"}}, "experiment": {"Paradigm": "TACL", "Stimuli": "Size-Color Squares", "Experiment": "Generating-Multiple-Categories"}, "submit": {"timeTotal": 342587, "age": "23", "comments": "None", "sex": "Male"}}