{"info": {"finish": 1548185946226, "participant": 396, "exposed": true, "lab": false, "start": 1548185617371, "counterbalance": 6, "gentype": 0, "condition": "Row", "browser": {"platform": "MacIntel", "userAgent": "Mozilla/5.0 (Macintosh; Intel Mac OS X 10_14_0) AppleWebKit/537.36 (KHTML, like Gecko) Chrome/71.0.3578.98 Safari/537.36"}}, "observation": {"11": {"stimulus": 582, "trial": 11, "rt": 1177}, "10": {"stimulus": 421, "trial": 10, "rt": 1400}, "1": {"stimulus": 612, "trial": 1, "rt": 2296}, "0": {"stimulus": 582, "trial": 0, "rt": 2278}, "3": {"stimulus": 493, "trial": 3, "rt": 1251}, "2": {"stimulus": 421, "trial": 2, "rt": 1411}, "5": {"stimulus": 612, "trial": 5, "rt": 1409}, "4": {"stimulus": 421, "trial": 4, "rt": 1303}, "7": {"stimulus": 493, "trial": 7, "rt": 1394}, "6": {"stimulus": 582, "trial": 6, "rt": 1220}, "9": {"stimulus": 612, "trial": 9, "rt": 1110}, "8": {"stimulus": 493, "trial": 8, "rt": 1128}}, "generation": {"1": {"category": "Not-Alpha", "trial": 1, "stimulus": 2450, "rt": 4781}, "0": {"category": "Not-Alpha", "trial": 0, "stimulus": 2499, "rt": 13624}, "3": {"category": "Not-Alpha", "trial": 3, "stimulus": 2489, "rt": 5285}, "2": {"category": "Not-Alpha", "trial": 2, "stimulus": 2475, "rt": 11537}, "5": {"category": "Not-Alpha", "trial": 5, "stimulus": 2483, "rt": 2934}, "4": {"category": "Not-Alpha", "trial": 4, "stimulus": 2455, "rt": 4298}, "7": {"category": "Not-Alpha", "trial": 7, "stimulus": 2453, "rt": 5349}, "6": {"category": "Not-Alpha", "trial": 6, "stimulus": 2497, "rt": 4252}}, "generalization": {"56": {"stimulus": 1280, "trial": 56, "rt": 955, "response": "Beta"}, "77": {"stimulus": 468, "trial": 77, "rt": 938, "response": "Alpha"}, "54": {"stimulus": 93, "trial": 54, "rt": 486, "response": "Alpha"}, "42": {"stimulus": 1780, "trial": 42, "rt": 915, "response": "Beta"}, "48": {"stimulus": 1905, "trial": 48, "rt": 857, "response": "Beta"}, "43": {"stimulus": 1562, "trial": 43, "rt": 695, "response": "Beta"}, "60": {"stimulus": 2312, "trial": 60, "rt": 898, "response": "Beta"}, "61": {"stimulus": 187, "trial": 61, "rt": 828, "response": "Alpha"}, "62": {"stimulus": 1749, "trial": 62, "rt": 1072, "response": "Beta"}, "63": {"stimulus": 2093, "trial": 63, "rt": 2138, "response": "Beta"}, "64": {"stimulus": 1937, "trial": 64, "rt": 704, "response": "Beta"}, "49": {"stimulus": 780, "trial": 49, "rt": 518, "response": "Alpha"}, "66": {"stimulus": 62, "trial": 66, "rt": 1052, "response": "Alpha"}, "67": {"stimulus": 718, "trial": 67, "rt": 646, "response": "Alpha"}, "68": {"stimulus": 2249, "trial": 68, "rt": 953, "response": "Beta"}, "69": {"stimulus": 1405, "trial": 69, "rt": 918, "response": "Beta"}, "80": {"stimulus": 1874, "trial": 80, "rt": 616, "response": "Beta"}, "52": {"stimulus": 624, "trial": 52, "rt": 797, "response": "Alpha"}, "53": {"stimulus": 655, "trial": 53, "rt": 640, "response": "Alpha"}, "24": {"stimulus": 999, "trial": 24, "rt": 470, "response": "Alpha"}, "25": {"stimulus": 1687, "trial": 25, "rt": 1486, "response": "Beta"}, "26": {"stimulus": 1155, "trial": 26, "rt": 1337, "response": "Alpha"}, "27": {"stimulus": 937, "trial": 27, "rt": 413, "response": "Alpha"}, "20": {"stimulus": 812, "trial": 20, "rt": 418, "response": "Alpha"}, "21": {"stimulus": 2405, "trial": 21, "rt": 880, "response": "Beta"}, "22": {"stimulus": 1374, "trial": 22, "rt": 486, "response": "Alpha"}, "23": {"stimulus": 1624, "trial": 23, "rt": 905, "response": "Alpha"}, "46": {"stimulus": 687, "trial": 46, "rt": 576, "response": "Alpha"}, "47": {"stimulus": 155, "trial": 47, "rt": 512, "response": "Alpha"}, "44": {"stimulus": 749, "trial": 44, "rt": 793, "response": "Alpha"}, "45": {"stimulus": 1343, "trial": 45, "rt": 1112, "response": "Beta"}, "28": {"stimulus": 562, "trial": 28, "rt": 429, "response": "Alpha"}, "29": {"stimulus": 530, "trial": 29, "rt": 426, "response": "Alpha"}, "40": {"stimulus": 1718, "trial": 40, "rt": 984, "response": "Beta"}, "41": {"stimulus": 1499, "trial": 41, "rt": 871, "response": "Beta"}, "1": {"stimulus": 218, "trial": 1, "rt": 791, "response": "Alpha"}, "0": {"stimulus": 1062, "trial": 0, "rt": 2010, "response": "Alpha"}, "3": {"stimulus": 2343, "trial": 3, "rt": 928, "response": "Beta"}, "2": {"stimulus": 2187, "trial": 2, "rt": 1159, "response": "Beta"}, "5": {"stimulus": 437, "trial": 5, "rt": 567, "response": "Alpha"}, "4": {"stimulus": 1468, "trial": 4, "rt": 535, "response": "Alpha"}, "7": {"stimulus": 2374, "trial": 7, "rt": 867, "response": "Beta"}, "6": {"stimulus": 1187, "trial": 6, "rt": 487, "response": "Alpha"}, "9": {"stimulus": 312, "trial": 9, "rt": 1024, "response": "Alpha"}, "8": {"stimulus": 124, "trial": 8, "rt": 450, "response": "Alpha"}, "78": {"stimulus": 1812, "trial": 78, "rt": 661, "response": "Beta"}, "51": {"stimulus": 593, "trial": 51, "rt": 488, "response": "Alpha"}, "39": {"stimulus": 1655, "trial": 39, "rt": 888, "response": "Beta"}, "65": {"stimulus": 2499, "trial": 65, "rt": 866, "response": "Beta"}, "76": {"stimulus": 1312, "trial": 76, "rt": 668, "response": "Beta"}, "75": {"stimulus": 1968, "trial": 75, "rt": 1240, "response": "Beta"}, "38": {"stimulus": 1249, "trial": 38, "rt": 1360, "response": "Beta"}, "73": {"stimulus": 499, "trial": 73, "rt": 478, "response": "Alpha"}, "72": {"stimulus": 405, "trial": 72, "rt": 2984, "response": "Alpha"}, "71": {"stimulus": 1218, "trial": 71, "rt": 742, "response": "Beta"}, "70": {"stimulus": 1593, "trial": 70, "rt": 1099, "response": "Beta"}, "59": {"stimulus": 2218, "trial": 59, "rt": 792, "response": "Beta"}, "79": {"stimulus": 343, "trial": 79, "rt": 792, "response": "Alpha"}, "58": {"stimulus": 2468, "trial": 58, "rt": 764, "response": "Beta"}, "11": {"stimulus": 968, "trial": 11, "rt": 501, "response": "Alpha"}, "10": {"stimulus": 1843, "trial": 10, "rt": 818, "response": "Beta"}, "13": {"stimulus": 2437, "trial": 13, "rt": 857, "response": "Beta"}, "12": {"stimulus": 1093, "trial": 12, "rt": 428, "response": "Alpha"}, "15": {"stimulus": 249, "trial": 15, "rt": 812, "response": "Alpha"}, "14": {"stimulus": 1999, "trial": 14, "rt": 808, "response": "Beta"}, "17": {"stimulus": 1030, "trial": 17, "rt": 471, "response": "Alpha"}, "16": {"stimulus": 374, "trial": 16, "rt": 421, "response": "Alpha"}, "19": {"stimulus": 843, "trial": 19, "rt": 478, "response": "Alpha"}, "18": {"stimulus": 2124, "trial": 18, "rt": 1091, "response": "Beta"}, "31": {"stimulus": 30, "trial": 31, "rt": 536, "response": "Alpha"}, "30": {"stimulus": 2030, "trial": 30, "rt": 899, "response": "Beta"}, "37": {"stimulus": 280, "trial": 37, "rt": 511, "response": "Alpha"}, "36": {"stimulus": 874, "trial": 36, "rt": 409, "response": "Alpha"}, "35": {"stimulus": 1437, "trial": 35, "rt": 1553, "response": "Beta"}, "34": {"stimulus": 2155, "trial": 34, "rt": 788, "response": "Beta"}, "33": {"stimulus": 0, "trial": 33, "rt": 1456, "response": "Alpha"}, "55": {"stimulus": 2062, "trial": 55, "rt": 823, "response": "Beta"}, "74": {"stimulus": 1124, "trial": 74, "rt": 1056, "response": "Beta"}, "32": {"stimulus": 1530, "trial": 32, "rt": 1721, "response": "Beta"}, "57": {"stimulus": 905, "trial": 57, "rt": 586, "response": "Alpha"}, "50": {"stimulus": 2280, "trial": 50, "rt": 982, "response": "Beta"}}, "experiment": {"Paradigm": "TACL", "Stimuli": "Size-Color Squares", "Experiment": "Generating-Multiple-Categories"}, "submit": {"timeTotal": 329078, "age": "22", "comments": "", "sex": "male"}}