{"info": {"finish": 1548186386195, "participant": 397, "exposed": true, "lab": false, "start": 1548185834905, "counterbalance": 4, "gentype": 1, "condition": "Cluster", "browser": {"platform": "Win32", "userAgent": "Mozilla/5.0 (Windows NT 6.3; WOW64) AppleWebKit/537.36 (KHTML, like Gecko) Chrome/71.0.3578.98 Safari/537.36"}}, "observation": {"11": {"stimulus": 1083, "trial": 11, "rt": 1728}, "10": {"stimulus": 583, "trial": 10, "rt": 1956}, "1": {"stimulus": 583, "trial": 1, "rt": 3403}, "0": {"stimulus": 1083, "trial": 0, "rt": 180926}, "3": {"stimulus": 392, "trial": 3, "rt": 1857}, "2": {"stimulus": 1093, "trial": 2, "rt": 2300}, "5": {"stimulus": 1083, "trial": 5, "rt": 1759}, "4": {"stimulus": 583, "trial": 4, "rt": 1860}, "7": {"stimulus": 392, "trial": 7, "rt": 1979}, "6": {"stimulus": 1093, "trial": 6, "rt": 1823}, "9": {"stimulus": 392, "trial": 9, "rt": 2268}, "8": {"stimulus": 1093, "trial": 8, "rt": 1889}}, "generation": {"1": {"category": "Beta", "trial": 1, "stimulus": 0, "rt": 10111}, "0": {"category": "Beta", "trial": 0, "stimulus": 1748, "rt": 24509}, "3": {"category": "Beta", "trial": 3, "stimulus": 919, "rt": 10798}, "2": {"category": "Beta", "trial": 2, "stimulus": 52, "rt": 10436}, "5": {"category": "Beta", "trial": 5, "stimulus": 2398, "rt": 11867}, "4": {"category": "Beta", "trial": 4, "stimulus": 2499, "rt": 9744}, "7": {"category": "Beta", "trial": 7, "stimulus": 2143, "rt": 10638}, "6": {"category": "Beta", "trial": 6, "stimulus": 2246, "rt": 11044}}, "generalization": {"56": {"stimulus": 1468, "trial": 56, "rt": 1765, "response": "Beta"}, "77": {"stimulus": 1374, "trial": 77, "rt": 1194, "response": "Beta"}, "54": {"stimulus": 2405, "trial": 54, "rt": 953, "response": "Beta"}, "42": {"stimulus": 843, "trial": 42, "rt": 1099, "response": "Alpha"}, "48": {"stimulus": 1937, "trial": 48, "rt": 1205, "response": "Alpha"}, "43": {"stimulus": 405, "trial": 43, "rt": 1191, "response": "Beta"}, "60": {"stimulus": 2499, "trial": 60, "rt": 1087, "response": "Alpha"}, "61": {"stimulus": 2218, "trial": 61, "rt": 1394, "response": "Beta"}, "62": {"stimulus": 1093, "trial": 62, "rt": 1311, "response": "Alpha"}, "63": {"stimulus": 562, "trial": 63, "rt": 849, "response": "Beta"}, "64": {"stimulus": 343, "trial": 64, "rt": 953, "response": "Alpha"}, "49": {"stimulus": 1437, "trial": 49, "rt": 1021, "response": "Alpha"}, "66": {"stimulus": 1780, "trial": 66, "rt": 1293, "response": "Alpha"}, "67": {"stimulus": 1718, "trial": 67, "rt": 898, "response": "Beta"}, "68": {"stimulus": 374, "trial": 68, "rt": 1837, "response": "Alpha"}, "69": {"stimulus": 1999, "trial": 69, "rt": 1122, "response": "Alpha"}, "80": {"stimulus": 93, "trial": 80, "rt": 1456, "response": "Beta"}, "52": {"stimulus": 187, "trial": 52, "rt": 1103, "response": "Alpha"}, "53": {"stimulus": 2437, "trial": 53, "rt": 1018, "response": "Alpha"}, "24": {"stimulus": 687, "trial": 24, "rt": 700, "response": "Alpha"}, "25": {"stimulus": 718, "trial": 25, "rt": 1269, "response": "Beta"}, "26": {"stimulus": 1312, "trial": 26, "rt": 659, "response": "Beta"}, "27": {"stimulus": 1687, "trial": 27, "rt": 1311, "response": "Alpha"}, "20": {"stimulus": 1968, "trial": 20, "rt": 650, "response": "Beta"}, "21": {"stimulus": 1499, "trial": 21, "rt": 1052, "response": "Alpha"}, "22": {"stimulus": 999, "trial": 22, "rt": 1443, "response": "Alpha"}, "23": {"stimulus": 1530, "trial": 23, "rt": 1980, "response": "Alpha"}, "46": {"stimulus": 2249, "trial": 46, "rt": 1121, "response": "Alpha"}, "47": {"stimulus": 1874, "trial": 47, "rt": 1569, "response": "Alpha"}, "44": {"stimulus": 2124, "trial": 44, "rt": 1309, "response": "Alpha"}, "45": {"stimulus": 1905, "trial": 45, "rt": 1009, "response": "Beta"}, "28": {"stimulus": 1249, "trial": 28, "rt": 3089, "response": "Alpha"}, "29": {"stimulus": 280, "trial": 29, "rt": 2242, "response": "Alpha"}, "40": {"stimulus": 1124, "trial": 40, "rt": 824, "response": "Beta"}, "41": {"stimulus": 905, "trial": 41, "rt": 935, "response": "Beta"}, "1": {"stimulus": 218, "trial": 1, "rt": 1701, "response": "Beta"}, "0": {"stimulus": 780, "trial": 0, "rt": 1930, "response": "Beta"}, "3": {"stimulus": 2312, "trial": 3, "rt": 998, "response": "Beta"}, "2": {"stimulus": 593, "trial": 2, "rt": 1534, "response": "Beta"}, "5": {"stimulus": 1405, "trial": 5, "rt": 708, "response": "Beta"}, "4": {"stimulus": 1655, "trial": 4, "rt": 1117, "response": "Beta"}, "7": {"stimulus": 437, "trial": 7, "rt": 759, "response": "Alpha"}, "6": {"stimulus": 937, "trial": 6, "rt": 853, "response": "Alpha"}, "9": {"stimulus": 2187, "trial": 9, "rt": 1086, "response": "Alpha"}, "8": {"stimulus": 468, "trial": 8, "rt": 833, "response": "Beta"}, "78": {"stimulus": 312, "trial": 78, "rt": 1057, "response": "Beta"}, "51": {"stimulus": 749, "trial": 51, "rt": 1780, "response": "Beta"}, "39": {"stimulus": 812, "trial": 39, "rt": 1127, "response": "Beta"}, "65": {"stimulus": 1624, "trial": 65, "rt": 821, "response": "Beta"}, "76": {"stimulus": 1562, "trial": 76, "rt": 1050, "response": "Beta"}, "75": {"stimulus": 1593, "trial": 75, "rt": 845, "response": "Alpha"}, "38": {"stimulus": 874, "trial": 38, "rt": 1180, "response": "Alpha"}, "73": {"stimulus": 1749, "trial": 73, "rt": 959, "response": "Alpha"}, "72": {"stimulus": 1062, "trial": 72, "rt": 879, "response": "Beta"}, "71": {"stimulus": 124, "trial": 71, "rt": 1922, "response": "Beta"}, "70": {"stimulus": 30, "trial": 70, "rt": 1074, "response": "Beta"}, "59": {"stimulus": 2093, "trial": 59, "rt": 1959, "response": "Alpha"}, "79": {"stimulus": 968, "trial": 79, "rt": 2910, "response": "Alpha"}, "58": {"stimulus": 2343, "trial": 58, "rt": 1207, "response": "Alpha"}, "11": {"stimulus": 1187, "trial": 11, "rt": 1168, "response": "Alpha"}, "10": {"stimulus": 1843, "trial": 10, "rt": 897, "response": "Alpha"}, "13": {"stimulus": 2280, "trial": 13, "rt": 1929, "response": "Alpha"}, "12": {"stimulus": 1155, "trial": 12, "rt": 682, "response": "Beta"}, "15": {"stimulus": 2062, "trial": 15, "rt": 1195, "response": "Beta"}, "14": {"stimulus": 499, "trial": 14, "rt": 1289, "response": "Beta"}, "17": {"stimulus": 1812, "trial": 17, "rt": 707, "response": "Beta"}, "16": {"stimulus": 2374, "trial": 16, "rt": 975, "response": "Beta"}, "19": {"stimulus": 1218, "trial": 19, "rt": 1105, "response": "Beta"}, "18": {"stimulus": 2468, "trial": 18, "rt": 633, "response": "Beta"}, "31": {"stimulus": 62, "trial": 31, "rt": 1750, "response": "Beta"}, "30": {"stimulus": 2155, "trial": 30, "rt": 792, "response": "Beta"}, "37": {"stimulus": 530, "trial": 37, "rt": 1113, "response": "Alpha"}, "36": {"stimulus": 1030, "trial": 36, "rt": 1141, "response": "Alpha"}, "35": {"stimulus": 155, "trial": 35, "rt": 821, "response": "Beta"}, "34": {"stimulus": 1343, "trial": 34, "rt": 1430, "response": "Alpha"}, "33": {"stimulus": 624, "trial": 33, "rt": 2518, "response": "Alpha"}, "55": {"stimulus": 0, "trial": 55, "rt": 948, "response": "Beta"}, "74": {"stimulus": 2030, "trial": 74, "rt": 1067, "response": "Alpha"}, "32": {"stimulus": 249, "trial": 32, "rt": 1329, "response": "Alpha"}, "57": {"stimulus": 1280, "trial": 57, "rt": 1187, "response": "Alpha"}, "50": {"stimulus": 655, "trial": 50, "rt": 955, "response": "Beta"}}, "experiment": {"Paradigm": "TACL", "Stimuli": "Size-Color Squares", "Experiment": "Generating-Multiple-Categories"}, "submit": {"timeTotal": 552013, "age": "54", "comments": "Kind of fun.", "sex": "f"}}