{"info": {"finish": 1548186371024, "participant": 398, "exposed": true, "lab": false, "start": 1548185984722, "counterbalance": 5, "gentype": 2, "condition": "Cluster", "browser": {"platform": "Win32", "userAgent": "Mozilla/5.0 (Windows NT 10.0; Win64; x64) AppleWebKit/537.36 (KHTML, like Gecko) Chrome/71.0.3578.98 Safari/537.36"}}, "observation": {"11": {"stimulus": 1083, "trial": 11, "rt": 2004}, "10": {"stimulus": 583, "trial": 10, "rt": 1931}, "1": {"stimulus": 583, "trial": 1, "rt": 2394}, "0": {"stimulus": 1093, "trial": 0, "rt": 3516}, "3": {"stimulus": 1083, "trial": 3, "rt": 2523}, "2": {"stimulus": 392, "trial": 2, "rt": 2505}, "5": {"stimulus": 1083, "trial": 5, "rt": 2240}, "4": {"stimulus": 1093, "trial": 4, "rt": 2330}, "7": {"stimulus": 583, "trial": 7, "rt": 2075}, "6": {"stimulus": 392, "trial": 6, "rt": 2198}, "9": {"stimulus": 1093, "trial": 9, "rt": 2320}, "8": {"stimulus": 392, "trial": 8, "rt": 4654}}, "generation": {"1": {"category": "Beta", "trial": 1, "stimulus": 267, "rt": 13111}, "0": {"category": "Beta", "trial": 0, "stimulus": 100, "rt": 19745}, "3": {"category": "Beta", "trial": 3, "stimulus": 7, "rt": 10399}, "2": {"category": "Beta", "trial": 2, "stimulus": 0, "rt": 8860}, "5": {"category": "Gamma", "trial": 5, "stimulus": 2033, "rt": 10150}, "4": {"category": "Gamma", "trial": 4, "stimulus": 2499, "rt": 5895}, "7": {"category": "Gamma", "trial": 7, "stimulus": 2249, "rt": 6383}, "6": {"category": "Gamma", "trial": 6, "stimulus": 2484, "rt": 5843}}, "generalization": {"56": {"stimulus": 1249, "trial": 56, "rt": 1298, "response": "Alpha"}, "77": {"stimulus": 905, "trial": 77, "rt": 1008, "response": "Alpha"}, "54": {"stimulus": 2062, "trial": 54, "rt": 1135, "response": "Alpha"}, "42": {"stimulus": 1749, "trial": 42, "rt": 1472, "response": "Alpha"}, "48": {"stimulus": 437, "trial": 48, "rt": 2366, "response": "Beta"}, "43": {"stimulus": 624, "trial": 43, "rt": 1484, "response": "Beta"}, "60": {"stimulus": 1655, "trial": 60, "rt": 1186, "response": "Alpha"}, "61": {"stimulus": 2124, "trial": 61, "rt": 2288, "response": "Gamma"}, "62": {"stimulus": 2312, "trial": 62, "rt": 1000, "response": "Gamma"}, "63": {"stimulus": 1374, "trial": 63, "rt": 1490, "response": "Alpha"}, "64": {"stimulus": 468, "trial": 64, "rt": 1049, "response": "Beta"}, "49": {"stimulus": 2499, "trial": 49, "rt": 1031, "response": "Gamma"}, "66": {"stimulus": 2405, "trial": 66, "rt": 1458, "response": "Gamma"}, "67": {"stimulus": 1343, "trial": 67, "rt": 1280, "response": "Alpha"}, "68": {"stimulus": 1874, "trial": 68, "rt": 2204, "response": "Alpha"}, "69": {"stimulus": 124, "trial": 69, "rt": 919, "response": "Beta"}, "80": {"stimulus": 1030, "trial": 80, "rt": 1117, "response": "Alpha"}, "52": {"stimulus": 593, "trial": 52, "rt": 2543, "response": "Alpha"}, "53": {"stimulus": 312, "trial": 53, "rt": 2173, "response": "Beta"}, "24": {"stimulus": 1124, "trial": 24, "rt": 943, "response": "Alpha"}, "25": {"stimulus": 499, "trial": 25, "rt": 1083, "response": "Beta"}, "26": {"stimulus": 343, "trial": 26, "rt": 812, "response": "Beta"}, "27": {"stimulus": 2280, "trial": 27, "rt": 976, "response": "Gamma"}, "20": {"stimulus": 1718, "trial": 20, "rt": 1198, "response": "Alpha"}, "21": {"stimulus": 937, "trial": 21, "rt": 1231, "response": "Beta"}, "22": {"stimulus": 749, "trial": 22, "rt": 1191, "response": "Beta"}, "23": {"stimulus": 1187, "trial": 23, "rt": 1104, "response": "Alpha"}, "46": {"stimulus": 2218, "trial": 46, "rt": 1379, "response": "Gamma"}, "47": {"stimulus": 1968, "trial": 47, "rt": 1124, "response": "Gamma"}, "44": {"stimulus": 2093, "trial": 44, "rt": 2368, "response": "Gamma"}, "45": {"stimulus": 780, "trial": 45, "rt": 1356, "response": "Alpha"}, "28": {"stimulus": 1405, "trial": 28, "rt": 1341, "response": "Alpha"}, "29": {"stimulus": 1905, "trial": 29, "rt": 922, "response": "Alpha"}, "40": {"stimulus": 1155, "trial": 40, "rt": 1306, "response": "Alpha"}, "41": {"stimulus": 218, "trial": 41, "rt": 940, "response": "Beta"}, "1": {"stimulus": 1687, "trial": 1, "rt": 1801, "response": "Alpha"}, "0": {"stimulus": 1562, "trial": 0, "rt": 4326, "response": "Alpha"}, "3": {"stimulus": 812, "trial": 3, "rt": 2557, "response": "Alpha"}, "2": {"stimulus": 2437, "trial": 2, "rt": 3104, "response": "Gamma"}, "5": {"stimulus": 280, "trial": 5, "rt": 1144, "response": "Beta"}, "4": {"stimulus": 1937, "trial": 4, "rt": 2162, "response": "Gamma"}, "7": {"stimulus": 968, "trial": 7, "rt": 2386, "response": "Alpha"}, "6": {"stimulus": 874, "trial": 6, "rt": 1416, "response": "Beta"}, "9": {"stimulus": 1062, "trial": 9, "rt": 1594, "response": "Alpha"}, "8": {"stimulus": 1093, "trial": 8, "rt": 1333, "response": "Alpha"}, "78": {"stimulus": 2187, "trial": 78, "rt": 1040, "response": "Gamma"}, "51": {"stimulus": 62, "trial": 51, "rt": 861, "response": "Beta"}, "39": {"stimulus": 843, "trial": 39, "rt": 2428, "response": "Beta"}, "65": {"stimulus": 187, "trial": 65, "rt": 806, "response": "Beta"}, "76": {"stimulus": 0, "trial": 76, "rt": 1068, "response": "Beta"}, "75": {"stimulus": 2249, "trial": 75, "rt": 1308, "response": "Gamma"}, "38": {"stimulus": 1218, "trial": 38, "rt": 1307, "response": "Alpha"}, "73": {"stimulus": 155, "trial": 73, "rt": 1010, "response": "Beta"}, "72": {"stimulus": 1312, "trial": 72, "rt": 886, "response": "Alpha"}, "71": {"stimulus": 1780, "trial": 71, "rt": 1418, "response": "Alpha"}, "70": {"stimulus": 30, "trial": 70, "rt": 627, "response": "Beta"}, "59": {"stimulus": 1280, "trial": 59, "rt": 1230, "response": "Alpha"}, "79": {"stimulus": 2374, "trial": 79, "rt": 887, "response": "Gamma"}, "58": {"stimulus": 1843, "trial": 58, "rt": 1265, "response": "Alpha"}, "11": {"stimulus": 1468, "trial": 11, "rt": 2505, "response": "Gamma"}, "10": {"stimulus": 93, "trial": 10, "rt": 1087, "response": "Beta"}, "13": {"stimulus": 374, "trial": 13, "rt": 1464, "response": "Beta"}, "12": {"stimulus": 2030, "trial": 12, "rt": 1088, "response": "Gamma"}, "15": {"stimulus": 687, "trial": 15, "rt": 1548, "response": "Beta"}, "14": {"stimulus": 718, "trial": 14, "rt": 1657, "response": "Beta"}, "17": {"stimulus": 1593, "trial": 17, "rt": 2579, "response": "Gamma"}, "16": {"stimulus": 1437, "trial": 16, "rt": 1443, "response": "Alpha"}, "19": {"stimulus": 2343, "trial": 19, "rt": 1365, "response": "Gamma"}, "18": {"stimulus": 655, "trial": 18, "rt": 2316, "response": "Beta"}, "31": {"stimulus": 405, "trial": 31, "rt": 1108, "response": "Beta"}, "30": {"stimulus": 1624, "trial": 30, "rt": 1111, "response": "Alpha"}, "37": {"stimulus": 2468, "trial": 37, "rt": 1057, "response": "Gamma"}, "36": {"stimulus": 530, "trial": 36, "rt": 1062, "response": "Beta"}, "35": {"stimulus": 2155, "trial": 35, "rt": 1018, "response": "Gamma"}, "34": {"stimulus": 562, "trial": 34, "rt": 1052, "response": "Beta"}, "33": {"stimulus": 999, "trial": 33, "rt": 2159, "response": "Alpha"}, "55": {"stimulus": 1812, "trial": 55, "rt": 918, "response": "Alpha"}, "74": {"stimulus": 1530, "trial": 74, "rt": 1020, "response": "Alpha"}, "32": {"stimulus": 1999, "trial": 32, "rt": 2668, "response": "Gamma"}, "57": {"stimulus": 1499, "trial": 57, "rt": 1032, "response": "Alpha"}, "50": {"stimulus": 249, "trial": 50, "rt": 1044, "response": "Beta"}}, "experiment": {"Paradigm": "TACL", "Stimuli": "Size-Color Squares", "Experiment": "Generating-Multiple-Categories"}, "submit": {"timeTotal": 386591, "age": "44", "comments": "I really enjoyed the experiment.", "sex": "Female"}}