{"info": {"finish": 1548187264327, "participant": 401, "exposed": true, "lab": false, "start": 1548186430935, "counterbalance": 2, "gentype": 0, "condition": "Row", "browser": {"platform": "Win32", "userAgent": "Mozilla/5.0 (Windows NT 6.1) AppleWebKit/537.36 (KHTML, like Gecko) Chrome/71.0.3578.98 Safari/537.36"}}, "observation": {"11": {"stimulus": 493, "trial": 11, "rt": 1864}, "10": {"stimulus": 421, "trial": 10, "rt": 2062}, "1": {"stimulus": 582, "trial": 1, "rt": 2382}, "0": {"stimulus": 493, "trial": 0, "rt": 5196}, "3": {"stimulus": 612, "trial": 3, "rt": 1736}, "2": {"stimulus": 421, "trial": 2, "rt": 2406}, "5": {"stimulus": 582, "trial": 5, "rt": 1678}, "4": {"stimulus": 612, "trial": 4, "rt": 2765}, "7": {"stimulus": 493, "trial": 7, "rt": 1766}, "6": {"stimulus": 421, "trial": 6, "rt": 1974}, "9": {"stimulus": 582, "trial": 9, "rt": 1936}, "8": {"stimulus": 612, "trial": 8, "rt": 1951}}, "generation": {"1": {"category": "Not-Alpha", "trial": 1, "stimulus": 1081, "rt": 4243}, "0": {"category": "Not-Alpha", "trial": 0, "stimulus": 1327, "rt": 7959}, "3": {"category": "Not-Alpha", "trial": 3, "stimulus": 1320, "rt": 64872}, "2": {"category": "Not-Alpha", "trial": 2, "stimulus": 1024, "rt": 3636}, "5": {"category": "Not-Alpha", "trial": 5, "stimulus": 1726, "rt": 18246}, "4": {"category": "Not-Alpha", "trial": 4, "stimulus": 1031, "rt": 339004}, "7": {"category": "Not-Alpha", "trial": 7, "stimulus": 1478, "rt": 2781}, "6": {"category": "Not-Alpha", "trial": 6, "stimulus": 1384, "rt": 4957}}, "generalization": {"56": {"stimulus": 530, "trial": 56, "rt": 670, "response": "Beta"}, "77": {"stimulus": 468, "trial": 77, "rt": 4103, "response": "Alpha"}, "54": {"stimulus": 2280, "trial": 54, "rt": 629, "response": "Beta"}, "42": {"stimulus": 1843, "trial": 42, "rt": 1383, "response": "Beta"}, "48": {"stimulus": 937, "trial": 48, "rt": 2509, "response": "Beta"}, "43": {"stimulus": 2437, "trial": 43, "rt": 1616, "response": "Beta"}, "60": {"stimulus": 874, "trial": 60, "rt": 1159, "response": "Beta"}, "61": {"stimulus": 2499, "trial": 61, "rt": 1070, "response": "Beta"}, "62": {"stimulus": 1312, "trial": 62, "rt": 1039, "response": "Alpha"}, "63": {"stimulus": 1499, "trial": 63, "rt": 919, "response": "Beta"}, "64": {"stimulus": 968, "trial": 64, "rt": 1246, "response": "Alpha"}, "49": {"stimulus": 1780, "trial": 49, "rt": 1317, "response": "Beta"}, "66": {"stimulus": 1218, "trial": 66, "rt": 21151, "response": "Beta"}, "67": {"stimulus": 1062, "trial": 67, "rt": 1278, "response": "Alpha"}, "68": {"stimulus": 2155, "trial": 68, "rt": 910, "response": "Beta"}, "69": {"stimulus": 405, "trial": 69, "rt": 703, "response": "Alpha"}, "80": {"stimulus": 905, "trial": 80, "rt": 9997, "response": "Alpha"}, "52": {"stimulus": 1437, "trial": 52, "rt": 1576, "response": "Beta"}, "53": {"stimulus": 1968, "trial": 53, "rt": 878, "response": "Beta"}, "24": {"stimulus": 1562, "trial": 24, "rt": 910, "response": "Beta"}, "25": {"stimulus": 437, "trial": 25, "rt": 1029, "response": "Alpha"}, "26": {"stimulus": 1093, "trial": 26, "rt": 983, "response": "Beta"}, "27": {"stimulus": 93, "trial": 27, "rt": 710, "response": "Alpha"}, "20": {"stimulus": 1624, "trial": 20, "rt": 1023, "response": "Beta"}, "21": {"stimulus": 1530, "trial": 21, "rt": 1614, "response": "Beta"}, "22": {"stimulus": 1155, "trial": 22, "rt": 1119, "response": "Beta"}, "23": {"stimulus": 999, "trial": 23, "rt": 894, "response": "Alpha"}, "46": {"stimulus": 343, "trial": 46, "rt": 3599, "response": "Alpha"}, "47": {"stimulus": 249, "trial": 47, "rt": 38383, "response": "Beta"}, "44": {"stimulus": 2249, "trial": 44, "rt": 1694, "response": "Beta"}, "45": {"stimulus": 1812, "trial": 45, "rt": 1158, "response": "Beta"}, "28": {"stimulus": 1343, "trial": 28, "rt": 966, "response": "Beta"}, "29": {"stimulus": 124, "trial": 29, "rt": 599, "response": "Alpha"}, "40": {"stimulus": 155, "trial": 40, "rt": 1622, "response": "Alpha"}, "41": {"stimulus": 562, "trial": 41, "rt": 1928, "response": "Beta"}, "1": {"stimulus": 655, "trial": 1, "rt": 1454, "response": "Alpha"}, "0": {"stimulus": 312, "trial": 0, "rt": 3941, "response": "Alpha"}, "3": {"stimulus": 718, "trial": 3, "rt": 1431, "response": "Beta"}, "2": {"stimulus": 280, "trial": 2, "rt": 1318, "response": "Alpha"}, "5": {"stimulus": 2218, "trial": 5, "rt": 903, "response": "Beta"}, "4": {"stimulus": 1468, "trial": 4, "rt": 1293, "response": "Beta"}, "7": {"stimulus": 2405, "trial": 7, "rt": 919, "response": "Beta"}, "6": {"stimulus": 1405, "trial": 6, "rt": 781, "response": "Beta"}, "9": {"stimulus": 812, "trial": 9, "rt": 717, "response": "Beta"}, "8": {"stimulus": 1187, "trial": 8, "rt": 808, "response": "Beta"}, "78": {"stimulus": 2468, "trial": 78, "rt": 1814, "response": "Beta"}, "51": {"stimulus": 749, "trial": 51, "rt": 2006, "response": "Beta"}, "39": {"stimulus": 1249, "trial": 39, "rt": 2749, "response": "Beta"}, "65": {"stimulus": 624, "trial": 65, "rt": 1126, "response": "Alpha"}, "76": {"stimulus": 593, "trial": 76, "rt": 958, "response": "Alpha"}, "75": {"stimulus": 2312, "trial": 75, "rt": 878, "response": "Beta"}, "38": {"stimulus": 499, "trial": 38, "rt": 1011, "response": "Alpha"}, "73": {"stimulus": 1593, "trial": 73, "rt": 1343, "response": "Alpha"}, "72": {"stimulus": 374, "trial": 72, "rt": 35877, "response": "Beta"}, "71": {"stimulus": 1374, "trial": 71, "rt": 1373, "response": "Alpha"}, "70": {"stimulus": 687, "trial": 70, "rt": 1096, "response": "Beta"}, "59": {"stimulus": 218, "trial": 59, "rt": 1277, "response": "Alpha"}, "79": {"stimulus": 1687, "trial": 79, "rt": 3623, "response": "Beta"}, "58": {"stimulus": 2124, "trial": 58, "rt": 18629, "response": "Beta"}, "11": {"stimulus": 30, "trial": 11, "rt": 1072, "response": "Alpha"}, "10": {"stimulus": 1124, "trial": 10, "rt": 581, "response": "Alpha"}, "13": {"stimulus": 1718, "trial": 13, "rt": 935, "response": "Beta"}, "12": {"stimulus": 1999, "trial": 12, "rt": 1732, "response": "Beta"}, "15": {"stimulus": 1749, "trial": 15, "rt": 997, "response": "Beta"}, "14": {"stimulus": 62, "trial": 14, "rt": 799, "response": "Beta"}, "17": {"stimulus": 0, "trial": 17, "rt": 990, "response": "Alpha"}, "16": {"stimulus": 1030, "trial": 16, "rt": 1910, "response": "Beta"}, "19": {"stimulus": 2062, "trial": 19, "rt": 2229, "response": "Beta"}, "18": {"stimulus": 1874, "trial": 18, "rt": 1471, "response": "Beta"}, "31": {"stimulus": 1937, "trial": 31, "rt": 1639, "response": "Beta"}, "30": {"stimulus": 187, "trial": 30, "rt": 2710, "response": "Beta"}, "37": {"stimulus": 2374, "trial": 37, "rt": 1959, "response": "Beta"}, "36": {"stimulus": 843, "trial": 36, "rt": 4030, "response": "Alpha"}, "35": {"stimulus": 1280, "trial": 35, "rt": 1935, "response": "Beta"}, "34": {"stimulus": 2030, "trial": 34, "rt": 1463, "response": "Beta"}, "33": {"stimulus": 780, "trial": 33, "rt": 1076, "response": "Alpha"}, "55": {"stimulus": 2343, "trial": 55, "rt": 662, "response": "Beta"}, "74": {"stimulus": 2093, "trial": 74, "rt": 1621, "response": "Alpha"}, "32": {"stimulus": 1905, "trial": 32, "rt": 1526, "response": "Beta"}, "57": {"stimulus": 2187, "trial": 57, "rt": 1200, "response": "Beta"}, "50": {"stimulus": 1655, "trial": 50, "rt": 1079, "response": "Beta"}}, "experiment": {"Paradigm": "TACL", "Stimuli": "Size-Color Squares", "Experiment": "Generating-Multiple-Categories"}, "submit": {"timeTotal": 834624, "age": "29", "comments": "Good Study", "sex": "mALE"}}