{"info": {"finish": 1548191411698, "participant": 405, "exposed": true, "lab": false, "start": 1548191001441, "counterbalance": 1, "gentype": 2, "condition": "Cluster", "browser": {"platform": "Win32", "userAgent": "Mozilla/5.0 (Windows NT 10.0; Win64; x64) AppleWebKit/537.36 (KHTML, like Gecko) Chrome/71.0.3578.98 Safari/537.36"}}, "observation": {"11": {"stimulus": 392, "trial": 11, "rt": 1983}, "10": {"stimulus": 1083, "trial": 10, "rt": 2085}, "1": {"stimulus": 1093, "trial": 1, "rt": 2900}, "0": {"stimulus": 392, "trial": 0, "rt": 7043}, "3": {"stimulus": 1083, "trial": 3, "rt": 2198}, "2": {"stimulus": 583, "trial": 2, "rt": 2334}, "5": {"stimulus": 1083, "trial": 5, "rt": 2068}, "4": {"stimulus": 392, "trial": 4, "rt": 2044}, "7": {"stimulus": 1093, "trial": 7, "rt": 1930}, "6": {"stimulus": 583, "trial": 6, "rt": 2169}, "9": {"stimulus": 583, "trial": 9, "rt": 2074}, "8": {"stimulus": 1093, "trial": 8, "rt": 2516}}, "generation": {"1": {"category": "Beta", "trial": 1, "stimulus": 2499, "rt": 7749}, "0": {"category": "Beta", "trial": 0, "stimulus": 2450, "rt": 22888}, "3": {"category": "Beta", "trial": 3, "stimulus": 49, "rt": 6663}, "2": {"category": "Beta", "trial": 2, "stimulus": 500, "rt": 7491}, "5": {"category": "Gamma", "trial": 5, "stimulus": 2350, "rt": 13135}, "4": {"category": "Gamma", "trial": 4, "stimulus": 2455, "rt": 13642}, "7": {"category": "Gamma", "trial": 7, "stimulus": 499, "rt": 6238}, "6": {"category": "Gamma", "trial": 6, "stimulus": 247, "rt": 7055}}, "generalization": {"56": {"stimulus": 1968, "trial": 56, "rt": 1602, "response": "Beta"}, "77": {"stimulus": 343, "trial": 77, "rt": 811, "response": "Gamma"}, "54": {"stimulus": 2124, "trial": 54, "rt": 1697, "response": "Beta"}, "42": {"stimulus": 968, "trial": 42, "rt": 1350, "response": "Alpha"}, "48": {"stimulus": 280, "trial": 48, "rt": 1168, "response": "Beta"}, "43": {"stimulus": 2280, "trial": 43, "rt": 1815, "response": "Beta"}, "60": {"stimulus": 1280, "trial": 60, "rt": 739, "response": "Beta"}, "61": {"stimulus": 1655, "trial": 61, "rt": 680, "response": "Alpha"}, "62": {"stimulus": 843, "trial": 62, "rt": 698, "response": "Beta"}, "63": {"stimulus": 1124, "trial": 63, "rt": 682, "response": "Beta"}, "64": {"stimulus": 1374, "trial": 64, "rt": 666, "response": "Beta"}, "49": {"stimulus": 2187, "trial": 49, "rt": 853, "response": "Beta"}, "66": {"stimulus": 155, "trial": 66, "rt": 712, "response": "Alpha"}, "67": {"stimulus": 1562, "trial": 67, "rt": 1593, "response": "Alpha"}, "68": {"stimulus": 1187, "trial": 68, "rt": 1207, "response": "Gamma"}, "69": {"stimulus": 1749, "trial": 69, "rt": 811, "response": "Gamma"}, "80": {"stimulus": 249, "trial": 80, "rt": 755, "response": "Gamma"}, "52": {"stimulus": 2374, "trial": 52, "rt": 1968, "response": "Beta"}, "53": {"stimulus": 2437, "trial": 53, "rt": 1790, "response": "Gamma"}, "24": {"stimulus": 1780, "trial": 24, "rt": 1755, "response": "Gamma"}, "25": {"stimulus": 0, "trial": 25, "rt": 1878, "response": "Alpha"}, "26": {"stimulus": 2093, "trial": 26, "rt": 1579, "response": "Gamma"}, "27": {"stimulus": 218, "trial": 27, "rt": 1473, "response": "Alpha"}, "20": {"stimulus": 2499, "trial": 20, "rt": 1393, "response": "Gamma"}, "21": {"stimulus": 2405, "trial": 21, "rt": 1133, "response": "Beta"}, "22": {"stimulus": 2155, "trial": 22, "rt": 1190, "response": "Beta"}, "23": {"stimulus": 1405, "trial": 23, "rt": 1372, "response": "Alpha"}, "46": {"stimulus": 374, "trial": 46, "rt": 1599, "response": "Beta"}, "47": {"stimulus": 124, "trial": 47, "rt": 1592, "response": "Beta"}, "44": {"stimulus": 2343, "trial": 44, "rt": 2103, "response": "Gamma"}, "45": {"stimulus": 1593, "trial": 45, "rt": 1353, "response": "Gamma"}, "28": {"stimulus": 937, "trial": 28, "rt": 1492, "response": "Gamma"}, "29": {"stimulus": 62, "trial": 29, "rt": 2559, "response": "Alpha"}, "40": {"stimulus": 30, "trial": 40, "rt": 989, "response": "Beta"}, "41": {"stimulus": 593, "trial": 41, "rt": 1817, "response": "Beta"}, "1": {"stimulus": 1468, "trial": 1, "rt": 1774, "response": "Alpha"}, "0": {"stimulus": 1093, "trial": 0, "rt": 2583, "response": "Alpha"}, "3": {"stimulus": 999, "trial": 3, "rt": 1844, "response": "Gamma"}, "2": {"stimulus": 1812, "trial": 2, "rt": 1743, "response": "Beta"}, "5": {"stimulus": 2218, "trial": 5, "rt": 1514, "response": "Beta"}, "4": {"stimulus": 1905, "trial": 4, "rt": 1333, "response": "Beta"}, "7": {"stimulus": 1530, "trial": 7, "rt": 2679, "response": "Gamma"}, "6": {"stimulus": 1937, "trial": 6, "rt": 1816, "response": "Gamma"}, "9": {"stimulus": 1718, "trial": 9, "rt": 1701, "response": "Beta"}, "8": {"stimulus": 2249, "trial": 8, "rt": 1960, "response": "Gamma"}, "78": {"stimulus": 1687, "trial": 78, "rt": 630, "response": "Gamma"}, "51": {"stimulus": 93, "trial": 51, "rt": 1484, "response": "Gamma"}, "39": {"stimulus": 624, "trial": 39, "rt": 3013, "response": "Beta"}, "65": {"stimulus": 562, "trial": 65, "rt": 1177, "response": "Alpha"}, "76": {"stimulus": 2312, "trial": 76, "rt": 682, "response": "Beta"}, "75": {"stimulus": 718, "trial": 75, "rt": 1005, "response": "Beta"}, "38": {"stimulus": 1999, "trial": 38, "rt": 1206, "response": "Gamma"}, "73": {"stimulus": 437, "trial": 73, "rt": 3899, "response": "Gamma"}, "72": {"stimulus": 468, "trial": 72, "rt": 722, "response": "Beta"}, "71": {"stimulus": 1062, "trial": 71, "rt": 763, "response": "Beta"}, "70": {"stimulus": 655, "trial": 70, "rt": 830, "response": "Alpha"}, "59": {"stimulus": 2030, "trial": 59, "rt": 1099, "response": "Beta"}, "79": {"stimulus": 1312, "trial": 79, "rt": 901, "response": "Beta"}, "58": {"stimulus": 530, "trial": 58, "rt": 1297, "response": "Beta"}, "11": {"stimulus": 2468, "trial": 11, "rt": 1493, "response": "Beta"}, "10": {"stimulus": 905, "trial": 10, "rt": 1189, "response": "Alpha"}, "13": {"stimulus": 874, "trial": 13, "rt": 2526, "response": "Alpha"}, "12": {"stimulus": 1499, "trial": 12, "rt": 1229, "response": "Gamma"}, "15": {"stimulus": 2062, "trial": 15, "rt": 1431, "response": "Beta"}, "14": {"stimulus": 812, "trial": 14, "rt": 1359, "response": "Alpha"}, "17": {"stimulus": 1874, "trial": 17, "rt": 1928, "response": "Beta"}, "16": {"stimulus": 1343, "trial": 16, "rt": 1839, "response": "Gamma"}, "19": {"stimulus": 1030, "trial": 19, "rt": 1475, "response": "Gamma"}, "18": {"stimulus": 1437, "trial": 18, "rt": 3164, "response": "Gamma"}, "31": {"stimulus": 312, "trial": 31, "rt": 1728, "response": "Alpha"}, "30": {"stimulus": 780, "trial": 30, "rt": 1526, "response": "Gamma"}, "37": {"stimulus": 499, "trial": 37, "rt": 1552, "response": "Gamma"}, "36": {"stimulus": 187, "trial": 36, "rt": 903, "response": "Beta"}, "35": {"stimulus": 1218, "trial": 35, "rt": 3570, "response": "Beta"}, "34": {"stimulus": 1155, "trial": 34, "rt": 1740, "response": "Alpha"}, "33": {"stimulus": 1843, "trial": 33, "rt": 2193, "response": "Gamma"}, "55": {"stimulus": 405, "trial": 55, "rt": 1260, "response": "Alpha"}, "74": {"stimulus": 1249, "trial": 74, "rt": 840, "response": "Gamma"}, "32": {"stimulus": 749, "trial": 32, "rt": 1662, "response": "Gamma"}, "57": {"stimulus": 687, "trial": 57, "rt": 2328, "response": "Gamma"}, "50": {"stimulus": 1624, "trial": 50, "rt": 896, "response": "Beta"}}, "experiment": {"Paradigm": "TACL", "Stimuli": "Size-Color Squares", "Experiment": "Generating-Multiple-Categories"}, "submit": {"timeTotal": 410573, "age": "49", "comments": "I am not sure what it was about. ", "sex": "female"}}