{"info": {"finish": 1548191951703, "participant": 409, "exposed": true, "lab": false, "start": 1548191614704, "counterbalance": 7, "gentype": 0, "condition": "Row", "browser": {"platform": "Win32", "userAgent": "Mozilla/5.0 (Windows NT 10.0; Win64; x64; rv:64.0) Gecko/20100101 Firefox/64.0"}}, "observation": {"11": {"stimulus": 612, "trial": 11, "rt": 1731}, "10": {"stimulus": 421, "trial": 10, "rt": 1509}, "1": {"stimulus": 582, "trial": 1, "rt": 1900}, "0": {"stimulus": 612, "trial": 0, "rt": 2360}, "3": {"stimulus": 493, "trial": 3, "rt": 1643}, "2": {"stimulus": 421, "trial": 2, "rt": 1806}, "5": {"stimulus": 582, "trial": 5, "rt": 1876}, "4": {"stimulus": 421, "trial": 4, "rt": 1776}, "7": {"stimulus": 493, "trial": 7, "rt": 1901}, "6": {"stimulus": 612, "trial": 6, "rt": 1659}, "9": {"stimulus": 582, "trial": 9, "rt": 1821}, "8": {"stimulus": 493, "trial": 8, "rt": 1961}}, "generation": {"1": {"category": "Not-Alpha", "trial": 1, "stimulus": 2475, "rt": 5990}, "0": {"category": "Not-Alpha", "trial": 0, "stimulus": 1649, "rt": 10684}, "3": {"category": "Not-Alpha", "trial": 3, "stimulus": 1877, "rt": 6326}, "2": {"category": "Not-Alpha", "trial": 2, "stimulus": 2499, "rt": 3576}, "5": {"category": "Not-Alpha", "trial": 5, "stimulus": 2484, "rt": 4110}, "4": {"category": "Not-Alpha", "trial": 4, "stimulus": 0, "rt": 3111}, "7": {"category": "Not-Alpha", "trial": 7, "stimulus": 2138, "rt": 2676}, "6": {"category": "Not-Alpha", "trial": 6, "stimulus": 1549, "rt": 2299}}, "generalization": {"56": {"stimulus": 1249, "trial": 56, "rt": 285, "response": "Beta"}, "77": {"stimulus": 1812, "trial": 77, "rt": 878, "response": "Alpha"}, "54": {"stimulus": 374, "trial": 54, "rt": 600, "response": "Alpha"}, "42": {"stimulus": 437, "trial": 42, "rt": 616, "response": "Beta"}, "48": {"stimulus": 2499, "trial": 48, "rt": 294, "response": "Beta"}, "43": {"stimulus": 280, "trial": 43, "rt": 550, "response": "Beta"}, "60": {"stimulus": 749, "trial": 60, "rt": 464, "response": "Beta"}, "61": {"stimulus": 30, "trial": 61, "rt": 706, "response": "Beta"}, "62": {"stimulus": 562, "trial": 62, "rt": 532, "response": "Beta"}, "63": {"stimulus": 780, "trial": 63, "rt": 698, "response": "Beta"}, "64": {"stimulus": 2374, "trial": 64, "rt": 331, "response": "Beta"}, "49": {"stimulus": 1999, "trial": 49, "rt": 371, "response": "Beta"}, "66": {"stimulus": 2124, "trial": 66, "rt": 428, "response": "Alpha"}, "67": {"stimulus": 1624, "trial": 67, "rt": 594, "response": "Alpha"}, "68": {"stimulus": 1562, "trial": 68, "rt": 678, "response": "Alpha"}, "69": {"stimulus": 2218, "trial": 69, "rt": 567, "response": "Alpha"}, "80": {"stimulus": 1780, "trial": 80, "rt": 613, "response": "Beta"}, "52": {"stimulus": 468, "trial": 52, "rt": 512, "response": "Alpha"}, "53": {"stimulus": 218, "trial": 53, "rt": 955, "response": "Beta"}, "24": {"stimulus": 2468, "trial": 24, "rt": 1150, "response": "Alpha"}, "25": {"stimulus": 874, "trial": 25, "rt": 937, "response": "Beta"}, "26": {"stimulus": 968, "trial": 26, "rt": 822, "response": "Alpha"}, "27": {"stimulus": 2249, "trial": 27, "rt": 1142, "response": "Beta"}, "20": {"stimulus": 1968, "trial": 20, "rt": 1179, "response": "Beta"}, "21": {"stimulus": 905, "trial": 21, "rt": 796, "response": "Alpha"}, "22": {"stimulus": 1343, "trial": 22, "rt": 785, "response": "Beta"}, "23": {"stimulus": 843, "trial": 23, "rt": 555, "response": "Beta"}, "46": {"stimulus": 1937, "trial": 46, "rt": 383, "response": "Beta"}, "47": {"stimulus": 937, "trial": 47, "rt": 541, "response": "Beta"}, "44": {"stimulus": 405, "trial": 44, "rt": 819, "response": "Alpha"}, "45": {"stimulus": 1530, "trial": 45, "rt": 926, "response": "Alpha"}, "28": {"stimulus": 1187, "trial": 28, "rt": 1158, "response": "Beta"}, "29": {"stimulus": 624, "trial": 29, "rt": 1018, "response": "Beta"}, "40": {"stimulus": 1499, "trial": 40, "rt": 950, "response": "Beta"}, "41": {"stimulus": 2280, "trial": 41, "rt": 625, "response": "Beta"}, "1": {"stimulus": 2062, "trial": 1, "rt": 982, "response": "Alpha"}, "0": {"stimulus": 1874, "trial": 0, "rt": 1675, "response": "Beta"}, "3": {"stimulus": 530, "trial": 3, "rt": 1093, "response": "Beta"}, "2": {"stimulus": 93, "trial": 2, "rt": 641, "response": "Beta"}, "5": {"stimulus": 1062, "trial": 5, "rt": 608, "response": "Alpha"}, "4": {"stimulus": 999, "trial": 4, "rt": 1076, "response": "Beta"}, "7": {"stimulus": 62, "trial": 7, "rt": 558, "response": "Alpha"}, "6": {"stimulus": 1312, "trial": 6, "rt": 718, "response": "Alpha"}, "9": {"stimulus": 312, "trial": 9, "rt": 614, "response": "Alpha"}, "8": {"stimulus": 1218, "trial": 8, "rt": 594, "response": "Beta"}, "78": {"stimulus": 343, "trial": 78, "rt": 748, "response": "Beta"}, "51": {"stimulus": 1718, "trial": 51, "rt": 694, "response": "Alpha"}, "39": {"stimulus": 1593, "trial": 39, "rt": 755, "response": "Beta"}, "65": {"stimulus": 2437, "trial": 65, "rt": 686, "response": "Beta"}, "76": {"stimulus": 2030, "trial": 76, "rt": 544, "response": "Beta"}, "75": {"stimulus": 1687, "trial": 75, "rt": 840, "response": "Beta"}, "38": {"stimulus": 1405, "trial": 38, "rt": 1009, "response": "Beta"}, "73": {"stimulus": 1749, "trial": 73, "rt": 545, "response": "Beta"}, "72": {"stimulus": 155, "trial": 72, "rt": 732, "response": "Beta"}, "71": {"stimulus": 1437, "trial": 71, "rt": 349, "response": "Beta"}, "70": {"stimulus": 687, "trial": 70, "rt": 712, "response": "Beta"}, "59": {"stimulus": 718, "trial": 59, "rt": 436, "response": "Beta"}, "79": {"stimulus": 1280, "trial": 79, "rt": 615, "response": "Beta"}, "58": {"stimulus": 2187, "trial": 58, "rt": 993, "response": "Beta"}, "11": {"stimulus": 1374, "trial": 11, "rt": 1065, "response": "Alpha"}, "10": {"stimulus": 2343, "trial": 10, "rt": 778, "response": "Beta"}, "13": {"stimulus": 593, "trial": 13, "rt": 726, "response": "Beta"}, "12": {"stimulus": 1124, "trial": 12, "rt": 1296, "response": "Alpha"}, "15": {"stimulus": 249, "trial": 15, "rt": 850, "response": "Beta"}, "14": {"stimulus": 1468, "trial": 14, "rt": 954, "response": "Alpha"}, "17": {"stimulus": 1155, "trial": 17, "rt": 795, "response": "Alpha"}, "16": {"stimulus": 812, "trial": 16, "rt": 700, "response": "Beta"}, "19": {"stimulus": 124, "trial": 19, "rt": 1285, "response": "Beta"}, "18": {"stimulus": 655, "trial": 18, "rt": 1430, "response": "Beta"}, "31": {"stimulus": 0, "trial": 31, "rt": 891, "response": "Beta"}, "30": {"stimulus": 2405, "trial": 30, "rt": 622, "response": "Beta"}, "37": {"stimulus": 1093, "trial": 37, "rt": 667, "response": "Beta"}, "36": {"stimulus": 499, "trial": 36, "rt": 634, "response": "Beta"}, "35": {"stimulus": 1843, "trial": 35, "rt": 747, "response": "Beta"}, "34": {"stimulus": 187, "trial": 34, "rt": 822, "response": "Beta"}, "33": {"stimulus": 2312, "trial": 33, "rt": 906, "response": "Beta"}, "55": {"stimulus": 1030, "trial": 55, "rt": 313, "response": "Beta"}, "74": {"stimulus": 2155, "trial": 74, "rt": 907, "response": "Alpha"}, "32": {"stimulus": 1655, "trial": 32, "rt": 692, "response": "Alpha"}, "57": {"stimulus": 1905, "trial": 57, "rt": 278, "response": "Beta"}, "50": {"stimulus": 2093, "trial": 50, "rt": 413, "response": "Beta"}}, "experiment": {"Paradigm": "TACL", "Stimuli": "Size-Color Squares", "Experiment": "Generating-Multiple-Categories"}, "submit": {"timeTotal": 337258, "age": "32", "comments": "", "sex": "male"}}