{"info": {"finish": 1548192152758, "participant": 410, "exposed": true, "lab": false, "start": 1548191704677, "counterbalance": 5, "gentype": 2, "condition": "Cluster", "browser": {"platform": "Win32", "userAgent": "Mozilla/5.0 (Windows NT 10.0; Win64; x64) AppleWebKit/537.36 (KHTML, like Gecko) Chrome/71.0.3578.98 Safari/537.36"}}, "observation": {"11": {"stimulus": 1083, "trial": 11, "rt": 2679}, "10": {"stimulus": 1093, "trial": 10, "rt": 2653}, "1": {"stimulus": 1083, "trial": 1, "rt": 5590}, "0": {"stimulus": 583, "trial": 0, "rt": 6090}, "3": {"stimulus": 392, "trial": 3, "rt": 2677}, "2": {"stimulus": 1093, "trial": 2, "rt": 5741}, "5": {"stimulus": 583, "trial": 5, "rt": 3487}, "4": {"stimulus": 392, "trial": 4, "rt": 2375}, "7": {"stimulus": 1093, "trial": 7, "rt": 2663}, "6": {"stimulus": 1083, "trial": 6, "rt": 2308}, "9": {"stimulus": 392, "trial": 9, "rt": 3932}, "8": {"stimulus": 583, "trial": 8, "rt": 2744}}, "generation": {"1": {"category": "Beta", "trial": 1, "stimulus": 800, "rt": 5429}, "0": {"category": "Beta", "trial": 0, "stimulus": 1450, "rt": 9396}, "3": {"category": "Beta", "trial": 3, "stimulus": 1600, "rt": 7411}, "2": {"category": "Beta", "trial": 2, "stimulus": 2150, "rt": 5100}, "5": {"category": "Gamma", "trial": 5, "stimulus": 2476, "rt": 3749}, "4": {"category": "Gamma", "trial": 4, "stimulus": 2484, "rt": 9156}, "7": {"category": "Gamma", "trial": 7, "stimulus": 2457, "rt": 3478}, "6": {"category": "Gamma", "trial": 6, "stimulus": 2466, "rt": 3950}}, "generalization": {"56": {"stimulus": 530, "trial": 56, "rt": 826, "response": "Alpha"}, "77": {"stimulus": 1968, "trial": 77, "rt": 1301, "response": "Gamma"}, "54": {"stimulus": 2280, "trial": 54, "rt": 733, "response": "Alpha"}, "42": {"stimulus": 343, "trial": 42, "rt": 725, "response": "Alpha"}, "48": {"stimulus": 2374, "trial": 48, "rt": 967, "response": "Gamma"}, "43": {"stimulus": 218, "trial": 43, "rt": 1447, "response": "Alpha"}, "60": {"stimulus": 1780, "trial": 60, "rt": 1783, "response": "Alpha"}, "61": {"stimulus": 2187, "trial": 61, "rt": 1694, "response": "Gamma"}, "62": {"stimulus": 812, "trial": 62, "rt": 1550, "response": "Alpha"}, "63": {"stimulus": 1999, "trial": 63, "rt": 1614, "response": "Alpha"}, "64": {"stimulus": 905, "trial": 64, "rt": 1390, "response": "Beta"}, "49": {"stimulus": 249, "trial": 49, "rt": 1069, "response": "Alpha"}, "66": {"stimulus": 749, "trial": 66, "rt": 774, "response": "Alpha"}, "67": {"stimulus": 312, "trial": 67, "rt": 1213, "response": "Alpha"}, "68": {"stimulus": 780, "trial": 68, "rt": 1973, "response": "Alpha"}, "69": {"stimulus": 1499, "trial": 69, "rt": 870, "response": "Alpha"}, "80": {"stimulus": 687, "trial": 80, "rt": 1286, "response": "Alpha"}, "52": {"stimulus": 62, "trial": 52, "rt": 2598, "response": "Alpha"}, "53": {"stimulus": 1530, "trial": 53, "rt": 1141, "response": "Alpha"}, "24": {"stimulus": 1655, "trial": 24, "rt": 3750, "response": "Beta"}, "25": {"stimulus": 593, "trial": 25, "rt": 1023, "response": "Alpha"}, "26": {"stimulus": 2312, "trial": 26, "rt": 975, "response": "Gamma"}, "27": {"stimulus": 1718, "trial": 27, "rt": 1374, "response": "Gamma"}, "20": {"stimulus": 1155, "trial": 20, "rt": 1358, "response": "Beta"}, "21": {"stimulus": 718, "trial": 21, "rt": 1190, "response": "Alpha"}, "22": {"stimulus": 1280, "trial": 22, "rt": 877, "response": "Alpha"}, "23": {"stimulus": 1124, "trial": 23, "rt": 1054, "response": "Alpha"}, "46": {"stimulus": 624, "trial": 46, "rt": 1205, "response": "Alpha"}, "47": {"stimulus": 2499, "trial": 47, "rt": 830, "response": "Gamma"}, "44": {"stimulus": 1187, "trial": 44, "rt": 1189, "response": "Alpha"}, "45": {"stimulus": 1218, "trial": 45, "rt": 2245, "response": "Alpha"}, "28": {"stimulus": 1937, "trial": 28, "rt": 1294, "response": "Gamma"}, "29": {"stimulus": 2437, "trial": 29, "rt": 1253, "response": "Gamma"}, "40": {"stimulus": 2155, "trial": 40, "rt": 2038, "response": "Beta"}, "41": {"stimulus": 999, "trial": 41, "rt": 854, "response": "Alpha"}, "1": {"stimulus": 2343, "trial": 1, "rt": 2068, "response": "Alpha"}, "0": {"stimulus": 2030, "trial": 0, "rt": 99814, "response": "Alpha"}, "3": {"stimulus": 655, "trial": 3, "rt": 1639, "response": "Beta"}, "2": {"stimulus": 30, "trial": 2, "rt": 3869, "response": "Alpha"}, "5": {"stimulus": 1062, "trial": 5, "rt": 3022, "response": "Beta"}, "4": {"stimulus": 968, "trial": 4, "rt": 2629, "response": "Alpha"}, "7": {"stimulus": 1249, "trial": 7, "rt": 4756, "response": "Gamma"}, "6": {"stimulus": 1687, "trial": 6, "rt": 1877, "response": "Gamma"}, "9": {"stimulus": 1437, "trial": 9, "rt": 777, "response": "Alpha"}, "8": {"stimulus": 1312, "trial": 8, "rt": 1934, "response": "Beta"}, "78": {"stimulus": 1562, "trial": 78, "rt": 3063, "response": "Alpha"}, "51": {"stimulus": 1624, "trial": 51, "rt": 1926, "response": "Alpha"}, "39": {"stimulus": 1468, "trial": 39, "rt": 1039, "response": "Alpha"}, "65": {"stimulus": 874, "trial": 65, "rt": 1087, "response": "Alpha"}, "76": {"stimulus": 280, "trial": 76, "rt": 694, "response": "Alpha"}, "75": {"stimulus": 0, "trial": 75, "rt": 1222, "response": "Beta"}, "38": {"stimulus": 468, "trial": 38, "rt": 1277, "response": "Alpha"}, "73": {"stimulus": 405, "trial": 73, "rt": 911, "response": "Beta"}, "72": {"stimulus": 1030, "trial": 72, "rt": 814, "response": "Alpha"}, "71": {"stimulus": 1905, "trial": 71, "rt": 1989, "response": "Beta"}, "70": {"stimulus": 843, "trial": 70, "rt": 815, "response": "Alpha"}, "59": {"stimulus": 937, "trial": 59, "rt": 991, "response": "Alpha"}, "79": {"stimulus": 2093, "trial": 79, "rt": 1901, "response": "Gamma"}, "58": {"stimulus": 1093, "trial": 58, "rt": 1398, "response": "Alpha"}, "11": {"stimulus": 2218, "trial": 11, "rt": 2711, "response": "Gamma"}, "10": {"stimulus": 437, "trial": 10, "rt": 783, "response": "Alpha"}, "13": {"stimulus": 2062, "trial": 13, "rt": 1415, "response": "Gamma"}, "12": {"stimulus": 499, "trial": 12, "rt": 983, "response": "Alpha"}, "15": {"stimulus": 1593, "trial": 15, "rt": 1991, "response": "Alpha"}, "14": {"stimulus": 1374, "trial": 14, "rt": 2126, "response": "Alpha"}, "17": {"stimulus": 124, "trial": 17, "rt": 1461, "response": "Alpha"}, "16": {"stimulus": 187, "trial": 16, "rt": 774, "response": "Alpha"}, "19": {"stimulus": 374, "trial": 19, "rt": 1022, "response": "Alpha"}, "18": {"stimulus": 1343, "trial": 18, "rt": 1686, "response": "Alpha"}, "31": {"stimulus": 93, "trial": 31, "rt": 1094, "response": "Alpha"}, "30": {"stimulus": 1405, "trial": 30, "rt": 1247, "response": "Beta"}, "37": {"stimulus": 1749, "trial": 37, "rt": 1911, "response": "Alpha"}, "36": {"stimulus": 2124, "trial": 36, "rt": 1086, "response": "Gamma"}, "35": {"stimulus": 1843, "trial": 35, "rt": 1813, "response": "Alpha"}, "34": {"stimulus": 562, "trial": 34, "rt": 1846, "response": "Alpha"}, "33": {"stimulus": 155, "trial": 33, "rt": 2446, "response": "Beta"}, "55": {"stimulus": 2468, "trial": 55, "rt": 767, "response": "Gamma"}, "74": {"stimulus": 1874, "trial": 74, "rt": 1199, "response": "Gamma"}, "32": {"stimulus": 2405, "trial": 32, "rt": 1061, "response": "Gamma"}, "57": {"stimulus": 1812, "trial": 57, "rt": 1757, "response": "Alpha"}, "50": {"stimulus": 2249, "trial": 50, "rt": 1006, "response": "Gamma"}}, "experiment": {"Paradigm": "TACL", "Stimuli": "Size-Color Squares", "Experiment": "Generating-Multiple-Categories"}, "submit": {"timeTotal": 448390, "age": "42", "comments": "Weird to do with such little information and no feedback. Also wish a scale of some sort was shown to be able to more accurately keep track of the sizes, not that I even know if that's relevant.", "sex": "male"}}