{"info": {"finish": 1548194070188, "participant": 417, "exposed": true, "lab": false, "start": 1548193775430, "counterbalance": 2, "gentype": 0, "condition": "Row", "browser": {"platform": "Win32", "userAgent": "Mozilla/5.0 (Windows NT 6.1; Win64; x64) AppleWebKit/537.36 (KHTML, like Gecko) Chrome/71.0.3578.98 Safari/537.36"}}, "observation": {"11": {"stimulus": 612, "trial": 11, "rt": 1373}, "10": {"stimulus": 421, "trial": 10, "rt": 1311}, "1": {"stimulus": 582, "trial": 1, "rt": 1853}, "0": {"stimulus": 612, "trial": 0, "rt": 2348}, "3": {"stimulus": 493, "trial": 3, "rt": 1552}, "2": {"stimulus": 421, "trial": 2, "rt": 1573}, "5": {"stimulus": 582, "trial": 5, "rt": 1397}, "4": {"stimulus": 421, "trial": 4, "rt": 1408}, "7": {"stimulus": 612, "trial": 7, "rt": 1449}, "6": {"stimulus": 493, "trial": 6, "rt": 1537}, "9": {"stimulus": 582, "trial": 9, "rt": 1444}, "8": {"stimulus": 493, "trial": 8, "rt": 1413}}, "generation": {"1": {"category": "Not-Alpha", "trial": 1, "stimulus": 2499, "rt": 8631}, "0": {"category": "Not-Alpha", "trial": 0, "stimulus": 2497, "rt": 8663}, "3": {"category": "Not-Alpha", "trial": 3, "stimulus": 2478, "rt": 4489}, "2": {"category": "Not-Alpha", "trial": 2, "stimulus": 2461, "rt": 4854}, "5": {"category": "Not-Alpha", "trial": 5, "stimulus": 2484, "rt": 6037}, "4": {"category": "Not-Alpha", "trial": 4, "stimulus": 2084, "rt": 4624}, "7": {"category": "Not-Alpha", "trial": 7, "stimulus": 1558, "rt": 3475}, "6": {"category": "Not-Alpha", "trial": 6, "stimulus": 2024, "rt": 4043}}, "generalization": {"56": {"stimulus": 530, "trial": 56, "rt": 629, "response": "Alpha"}, "77": {"stimulus": 905, "trial": 77, "rt": 973, "response": "Alpha"}, "54": {"stimulus": 1812, "trial": 54, "rt": 817, "response": "Beta"}, "42": {"stimulus": 124, "trial": 42, "rt": 529, "response": "Alpha"}, "48": {"stimulus": 499, "trial": 48, "rt": 672, "response": "Alpha"}, "43": {"stimulus": 2374, "trial": 43, "rt": 683, "response": "Beta"}, "60": {"stimulus": 655, "trial": 60, "rt": 654, "response": "Alpha"}, "61": {"stimulus": 437, "trial": 61, "rt": 529, "response": "Alpha"}, "62": {"stimulus": 2437, "trial": 62, "rt": 888, "response": "Beta"}, "63": {"stimulus": 374, "trial": 63, "rt": 760, "response": "Alpha"}, "64": {"stimulus": 2155, "trial": 64, "rt": 840, "response": "Beta"}, "49": {"stimulus": 405, "trial": 49, "rt": 620, "response": "Alpha"}, "66": {"stimulus": 1218, "trial": 66, "rt": 1887, "response": "Beta"}, "67": {"stimulus": 1655, "trial": 67, "rt": 1111, "response": "Beta"}, "68": {"stimulus": 1687, "trial": 68, "rt": 746, "response": "Beta"}, "69": {"stimulus": 1030, "trial": 69, "rt": 2165, "response": "Alpha"}, "80": {"stimulus": 187, "trial": 80, "rt": 1008, "response": "Alpha"}, "52": {"stimulus": 749, "trial": 52, "rt": 1061, "response": "Alpha"}, "53": {"stimulus": 2249, "trial": 53, "rt": 849, "response": "Beta"}, "24": {"stimulus": 1530, "trial": 24, "rt": 905, "response": "Beta"}, "25": {"stimulus": 1780, "trial": 25, "rt": 719, "response": "Beta"}, "26": {"stimulus": 562, "trial": 26, "rt": 845, "response": "Alpha"}, "27": {"stimulus": 624, "trial": 27, "rt": 694, "response": "Alpha"}, "20": {"stimulus": 1843, "trial": 20, "rt": 806, "response": "Beta"}, "21": {"stimulus": 1312, "trial": 21, "rt": 2183, "response": "Alpha"}, "22": {"stimulus": 2062, "trial": 22, "rt": 756, "response": "Beta"}, "23": {"stimulus": 155, "trial": 23, "rt": 753, "response": "Alpha"}, "46": {"stimulus": 1749, "trial": 46, "rt": 901, "response": "Beta"}, "47": {"stimulus": 2093, "trial": 47, "rt": 692, "response": "Beta"}, "44": {"stimulus": 968, "trial": 44, "rt": 478, "response": "Alpha"}, "45": {"stimulus": 2312, "trial": 45, "rt": 801, "response": "Beta"}, "28": {"stimulus": 0, "trial": 28, "rt": 867, "response": "Alpha"}, "29": {"stimulus": 2124, "trial": 29, "rt": 926, "response": "Beta"}, "40": {"stimulus": 93, "trial": 40, "rt": 1089, "response": "Alpha"}, "41": {"stimulus": 1937, "trial": 41, "rt": 875, "response": "Beta"}, "1": {"stimulus": 1374, "trial": 1, "rt": 1034, "response": "Beta"}, "0": {"stimulus": 2468, "trial": 0, "rt": 1543, "response": "Beta"}, "3": {"stimulus": 812, "trial": 3, "rt": 1396, "response": "Alpha"}, "2": {"stimulus": 1999, "trial": 2, "rt": 1179, "response": "Beta"}, "5": {"stimulus": 1093, "trial": 5, "rt": 2386, "response": "Alpha"}, "4": {"stimulus": 1718, "trial": 4, "rt": 883, "response": "Beta"}, "7": {"stimulus": 2343, "trial": 7, "rt": 867, "response": "Beta"}, "6": {"stimulus": 1249, "trial": 6, "rt": 1768, "response": "Alpha"}, "9": {"stimulus": 1343, "trial": 9, "rt": 1007, "response": "Alpha"}, "8": {"stimulus": 593, "trial": 8, "rt": 1536, "response": "Alpha"}, "78": {"stimulus": 1968, "trial": 78, "rt": 1081, "response": "Beta"}, "51": {"stimulus": 1562, "trial": 51, "rt": 904, "response": "Beta"}, "39": {"stimulus": 874, "trial": 39, "rt": 694, "response": "Alpha"}, "65": {"stimulus": 1593, "trial": 65, "rt": 711, "response": "Beta"}, "76": {"stimulus": 249, "trial": 76, "rt": 678, "response": "Alpha"}, "75": {"stimulus": 937, "trial": 75, "rt": 746, "response": "Alpha"}, "38": {"stimulus": 843, "trial": 38, "rt": 1051, "response": "Alpha"}, "73": {"stimulus": 687, "trial": 73, "rt": 1522, "response": "Alpha"}, "72": {"stimulus": 1280, "trial": 72, "rt": 1930, "response": "Beta"}, "71": {"stimulus": 1468, "trial": 71, "rt": 2061, "response": "Alpha"}, "70": {"stimulus": 1437, "trial": 70, "rt": 871, "response": "Beta"}, "59": {"stimulus": 2218, "trial": 59, "rt": 1261, "response": "Beta"}, "79": {"stimulus": 1062, "trial": 79, "rt": 1678, "response": "Alpha"}, "58": {"stimulus": 312, "trial": 58, "rt": 617, "response": "Alpha"}, "11": {"stimulus": 780, "trial": 11, "rt": 985, "response": "Alpha"}, "10": {"stimulus": 218, "trial": 10, "rt": 1023, "response": "Alpha"}, "13": {"stimulus": 2499, "trial": 13, "rt": 898, "response": "Beta"}, "12": {"stimulus": 62, "trial": 12, "rt": 993, "response": "Alpha"}, "15": {"stimulus": 2280, "trial": 15, "rt": 632, "response": "Beta"}, "14": {"stimulus": 1874, "trial": 14, "rt": 681, "response": "Beta"}, "17": {"stimulus": 718, "trial": 17, "rt": 598, "response": "Alpha"}, "16": {"stimulus": 1124, "trial": 16, "rt": 658, "response": "Beta"}, "19": {"stimulus": 1499, "trial": 19, "rt": 2187, "response": "Alpha"}, "18": {"stimulus": 1155, "trial": 18, "rt": 591, "response": "Alpha"}, "31": {"stimulus": 1905, "trial": 31, "rt": 864, "response": "Beta"}, "30": {"stimulus": 468, "trial": 30, "rt": 798, "response": "Alpha"}, "37": {"stimulus": 1405, "trial": 37, "rt": 796, "response": "Beta"}, "36": {"stimulus": 2030, "trial": 36, "rt": 828, "response": "Beta"}, "35": {"stimulus": 30, "trial": 35, "rt": 832, "response": "Alpha"}, "34": {"stimulus": 1624, "trial": 34, "rt": 1722, "response": "Beta"}, "33": {"stimulus": 999, "trial": 33, "rt": 1283, "response": "Alpha"}, "55": {"stimulus": 2405, "trial": 55, "rt": 776, "response": "Beta"}, "74": {"stimulus": 280, "trial": 74, "rt": 568, "response": "Alpha"}, "32": {"stimulus": 343, "trial": 32, "rt": 1093, "response": "Alpha"}, "57": {"stimulus": 2187, "trial": 57, "rt": 1079, "response": "Beta"}, "50": {"stimulus": 1187, "trial": 50, "rt": 1896, "response": "Alpha"}}, "experiment": {"Paradigm": "TACL", "Stimuli": "Size-Color Squares", "Experiment": "Generating-Multiple-Categories"}, "submit": {"timeTotal": 294946, "age": "44", "comments": "Interesting.", "sex": "Female"}}