{"info": {"finish": 1548195085411, "participant": 420, "exposed": true, "lab": false, "start": 1548194633783, "counterbalance": 1, "gentype": 2, "condition": "XOR", "browser": {"platform": "MacIntel", "userAgent": "Mozilla/5.0 (Macintosh; Intel Mac OS X 10_12_6) AppleWebKit/537.36 (KHTML, like Gecko) Chrome/71.0.3578.98 Safari/537.36"}}, "observation": {"11": {"stimulus": 818, "trial": 11, "rt": 2927}, "10": {"stimulus": 403, "trial": 10, "rt": 2653}, "1": {"stimulus": 403, "trial": 1, "rt": 2350}, "0": {"stimulus": 818, "trial": 0, "rt": 2376}, "3": {"stimulus": 1479, "trial": 3, "rt": 2038}, "2": {"stimulus": 1890, "trial": 2, "rt": 2475}, "5": {"stimulus": 1479, "trial": 5, "rt": 1814}, "4": {"stimulus": 403, "trial": 4, "rt": 2021}, "7": {"stimulus": 1890, "trial": 7, "rt": 1798}, "6": {"stimulus": 818, "trial": 6, "rt": 1910}, "9": {"stimulus": 1479, "trial": 9, "rt": 2055}, "8": {"stimulus": 1890, "trial": 8, "rt": 1830}}, "generation": {"1": {"category": "Beta", "trial": 1, "stimulus": 2095, "rt": 13774}, "0": {"category": "Beta", "trial": 0, "stimulus": 2499, "rt": 19706}, "3": {"category": "Beta", "trial": 3, "stimulus": 1945, "rt": 15263}, "2": {"category": "Beta", "trial": 2, "stimulus": 2398, "rt": 18374}, "5": {"category": "Gamma", "trial": 5, "stimulus": 2452, "rt": 15144}, "4": {"category": "Gamma", "trial": 4, "stimulus": 2450, "rt": 7551}, "7": {"category": "Gamma", "trial": 7, "stimulus": 2057, "rt": 8686}, "6": {"category": "Gamma", "trial": 6, "stimulus": 2053, "rt": 9554}}, "generalization": {"56": {"stimulus": 624, "trial": 56, "rt": 1254, "response": "Beta"}, "77": {"stimulus": 499, "trial": 77, "rt": 1638, "response": "Gamma"}, "54": {"stimulus": 749, "trial": 54, "rt": 1262, "response": "Gamma"}, "42": {"stimulus": 593, "trial": 42, "rt": 1381, "response": "Gamma"}, "48": {"stimulus": 468, "trial": 48, "rt": 1278, "response": "Alpha"}, "43": {"stimulus": 812, "trial": 43, "rt": 1486, "response": "Alpha"}, "60": {"stimulus": 1249, "trial": 60, "rt": 1670, "response": "Gamma"}, "61": {"stimulus": 2374, "trial": 61, "rt": 829, "response": "Beta"}, "62": {"stimulus": 93, "trial": 62, "rt": 1462, "response": "Gamma"}, "63": {"stimulus": 1718, "trial": 63, "rt": 1502, "response": "Beta"}, "64": {"stimulus": 1218, "trial": 64, "rt": 7549, "response": "Alpha"}, "49": {"stimulus": 155, "trial": 49, "rt": 2109, "response": "Alpha"}, "66": {"stimulus": 1655, "trial": 66, "rt": 859, "response": "Beta"}, "67": {"stimulus": 874, "trial": 67, "rt": 1878, "response": "Alpha"}, "68": {"stimulus": 1280, "trial": 68, "rt": 1686, "response": "Alpha"}, "69": {"stimulus": 2218, "trial": 69, "rt": 798, "response": "Beta"}, "80": {"stimulus": 374, "trial": 80, "rt": 17318, "response": "Alpha"}, "52": {"stimulus": 1562, "trial": 52, "rt": 829, "response": "Alpha"}, "53": {"stimulus": 1812, "trial": 53, "rt": 742, "response": "Beta"}, "24": {"stimulus": 1155, "trial": 24, "rt": 839, "response": "Alpha"}, "25": {"stimulus": 2437, "trial": 25, "rt": 837, "response": "Beta"}, "26": {"stimulus": 1937, "trial": 26, "rt": 1851, "response": "Beta"}, "27": {"stimulus": 2062, "trial": 27, "rt": 823, "response": "Beta"}, "20": {"stimulus": 1187, "trial": 20, "rt": 1590, "response": "Gamma"}, "21": {"stimulus": 2312, "trial": 21, "rt": 815, "response": "Beta"}, "22": {"stimulus": 999, "trial": 22, "rt": 1215, "response": "Gamma"}, "23": {"stimulus": 1312, "trial": 23, "rt": 1412, "response": "Alpha"}, "46": {"stimulus": 2030, "trial": 46, "rt": 510, "response": "Beta"}, "47": {"stimulus": 1624, "trial": 47, "rt": 3597, "response": "Beta"}, "44": {"stimulus": 1499, "trial": 44, "rt": 2588, "response": "Gamma"}, "45": {"stimulus": 2155, "trial": 45, "rt": 759, "response": "Beta"}, "28": {"stimulus": 437, "trial": 28, "rt": 958, "response": "Gamma"}, "29": {"stimulus": 937, "trial": 29, "rt": 735, "response": "Gamma"}, "40": {"stimulus": 2187, "trial": 40, "rt": 583, "response": "Beta"}, "41": {"stimulus": 530, "trial": 41, "rt": 1134, "response": "Alpha"}, "1": {"stimulus": 2124, "trial": 1, "rt": 3652, "response": "Beta"}, "0": {"stimulus": 780, "trial": 0, "rt": 3514, "response": "Alpha"}, "3": {"stimulus": 1030, "trial": 3, "rt": 6862, "response": "Alpha"}, "2": {"stimulus": 124, "trial": 2, "rt": 1903, "response": "Alpha"}, "5": {"stimulus": 343, "trial": 5, "rt": 8815, "response": "Gamma"}, "4": {"stimulus": 1968, "trial": 4, "rt": 2523, "response": "Beta"}, "7": {"stimulus": 905, "trial": 7, "rt": 1047, "response": "Alpha"}, "6": {"stimulus": 1843, "trial": 6, "rt": 989, "response": "Beta"}, "9": {"stimulus": 1999, "trial": 9, "rt": 1421, "response": "Beta"}, "8": {"stimulus": 1780, "trial": 8, "rt": 1091, "response": "Beta"}, "78": {"stimulus": 1593, "trial": 78, "rt": 2949, "response": "Beta"}, "51": {"stimulus": 1062, "trial": 51, "rt": 2663, "response": "Alpha"}, "39": {"stimulus": 1687, "trial": 39, "rt": 1182, "response": "Beta"}, "65": {"stimulus": 187, "trial": 65, "rt": 3350, "response": "Alpha"}, "76": {"stimulus": 1468, "trial": 76, "rt": 1750, "response": "Alpha"}, "75": {"stimulus": 1530, "trial": 75, "rt": 1938, "response": "Beta"}, "38": {"stimulus": 2249, "trial": 38, "rt": 925, "response": "Beta"}, "73": {"stimulus": 1405, "trial": 73, "rt": 3526, "response": "Beta"}, "72": {"stimulus": 1874, "trial": 72, "rt": 759, "response": "Beta"}, "71": {"stimulus": 1124, "trial": 71, "rt": 948, "response": "Alpha"}, "70": {"stimulus": 968, "trial": 70, "rt": 1342, "response": "Alpha"}, "59": {"stimulus": 687, "trial": 59, "rt": 3190, "response": "Alpha"}, "79": {"stimulus": 843, "trial": 79, "rt": 1830, "response": "Gamma"}, "58": {"stimulus": 2093, "trial": 58, "rt": 1375, "response": "Gamma"}, "11": {"stimulus": 2499, "trial": 11, "rt": 1096, "response": "Beta"}, "10": {"stimulus": 1437, "trial": 10, "rt": 2932, "response": "Gamma"}, "13": {"stimulus": 62, "trial": 13, "rt": 1294, "response": "Alpha"}, "12": {"stimulus": 2280, "trial": 12, "rt": 1779, "response": "Beta"}, "15": {"stimulus": 2405, "trial": 15, "rt": 1095, "response": "Beta"}, "14": {"stimulus": 562, "trial": 14, "rt": 899, "response": "Alpha"}, "17": {"stimulus": 280, "trial": 17, "rt": 1735, "response": "Gamma"}, "16": {"stimulus": 2468, "trial": 16, "rt": 1011, "response": "Beta"}, "19": {"stimulus": 2343, "trial": 19, "rt": 829, "response": "Beta"}, "18": {"stimulus": 218, "trial": 18, "rt": 1094, "response": "Alpha"}, "31": {"stimulus": 1905, "trial": 31, "rt": 805, "response": "Beta"}, "30": {"stimulus": 1749, "trial": 30, "rt": 927, "response": "Beta"}, "37": {"stimulus": 718, "trial": 37, "rt": 1591, "response": "Alpha"}, "36": {"stimulus": 249, "trial": 36, "rt": 3311, "response": "Gamma"}, "35": {"stimulus": 1374, "trial": 35, "rt": 2676, "response": "Gamma"}, "34": {"stimulus": 1093, "trial": 34, "rt": 3846, "response": "Gamma"}, "33": {"stimulus": 30, "trial": 33, "rt": 1350, "response": "Alpha"}, "55": {"stimulus": 655, "trial": 55, "rt": 1103, "response": "Alpha"}, "74": {"stimulus": 1343, "trial": 74, "rt": 2582, "response": "Gamma"}, "32": {"stimulus": 405, "trial": 32, "rt": 1582, "response": "Alpha"}, "57": {"stimulus": 0, "trial": 57, "rt": 1054, "response": "Alpha"}, "50": {"stimulus": 312, "trial": 50, "rt": 780, "response": "Alpha"}}, "experiment": {"Paradigm": "TACL", "Stimuli": "Size-Color Squares", "Experiment": "Generating-Multiple-Categories"}, "submit": {"timeTotal": 451770, "age": "54", "comments": "It was interesting. I'm afraid my thinking shifted or morphed during the experiment! Thank you. ", "sex": "female"}}