{"info": {"finish": 1548195559669, "participant": 421, "exposed": true, "lab": false, "start": 1548195194500, "counterbalance": 3, "gentype": 1, "condition": "XOR", "browser": {"platform": "Win32", "userAgent": "Mozilla/5.0 (Windows NT 10.0; Win64; x64) AppleWebKit/537.36 (KHTML, like Gecko) Chrome/71.0.3578.98 Safari/537.36"}}, "observation": {"11": {"stimulus": 818, "trial": 11, "rt": 1418}, "10": {"stimulus": 1479, "trial": 10, "rt": 1760}, "1": {"stimulus": 1479, "trial": 1, "rt": 2376}, "0": {"stimulus": 403, "trial": 0, "rt": 2988}, "3": {"stimulus": 1890, "trial": 3, "rt": 1832}, "2": {"stimulus": 818, "trial": 2, "rt": 1901}, "5": {"stimulus": 1479, "trial": 5, "rt": 1832}, "4": {"stimulus": 403, "trial": 4, "rt": 1940}, "7": {"stimulus": 1890, "trial": 7, "rt": 2152}, "6": {"stimulus": 818, "trial": 6, "rt": 1755}, "9": {"stimulus": 403, "trial": 9, "rt": 1698}, "8": {"stimulus": 1890, "trial": 8, "rt": 2136}}, "generation": {"1": {"category": "Beta", "trial": 1, "stimulus": 2450, "rt": 13670}, "0": {"category": "Beta", "trial": 0, "stimulus": 49, "rt": 12889}, "3": {"category": "Beta", "trial": 3, "stimulus": 2200, "rt": 9396}, "2": {"category": "Beta", "trial": 2, "stimulus": 580, "rt": 11859}, "5": {"category": "Beta", "trial": 5, "stimulus": 699, "rt": 10268}, "4": {"category": "Beta", "trial": 4, "stimulus": 0, "rt": 5293}, "7": {"category": "Beta", "trial": 7, "stimulus": 1718, "rt": 7674}, "6": {"category": "Beta", "trial": 6, "stimulus": 1307, "rt": 6148}}, "generalization": {"56": {"stimulus": 187, "trial": 56, "rt": 1872, "response": "Alpha"}, "77": {"stimulus": 2280, "trial": 77, "rt": 2044, "response": "Beta"}, "54": {"stimulus": 1530, "trial": 54, "rt": 1459, "response": "Alpha"}, "42": {"stimulus": 2468, "trial": 42, "rt": 2101, "response": "Beta"}, "48": {"stimulus": 1874, "trial": 48, "rt": 1125, "response": "Alpha"}, "43": {"stimulus": 1312, "trial": 43, "rt": 1068, "response": "Alpha"}, "60": {"stimulus": 1030, "trial": 60, "rt": 1915, "response": "Alpha"}, "61": {"stimulus": 1405, "trial": 61, "rt": 949, "response": "Alpha"}, "62": {"stimulus": 1062, "trial": 62, "rt": 1049, "response": "Alpha"}, "63": {"stimulus": 280, "trial": 63, "rt": 1208, "response": "Alpha"}, "64": {"stimulus": 1937, "trial": 64, "rt": 1409, "response": "Beta"}, "49": {"stimulus": 2343, "trial": 49, "rt": 1371, "response": "Beta"}, "66": {"stimulus": 999, "trial": 66, "rt": 1581, "response": "Beta"}, "67": {"stimulus": 968, "trial": 67, "rt": 1038, "response": "Alpha"}, "68": {"stimulus": 1812, "trial": 68, "rt": 1250, "response": "Alpha"}, "69": {"stimulus": 780, "trial": 69, "rt": 1953, "response": "Alpha"}, "80": {"stimulus": 1374, "trial": 80, "rt": 1871, "response": "Alpha"}, "52": {"stimulus": 499, "trial": 52, "rt": 2172, "response": "Beta"}, "53": {"stimulus": 343, "trial": 53, "rt": 1130, "response": "Beta"}, "24": {"stimulus": 2499, "trial": 24, "rt": 1420, "response": "Beta"}, "25": {"stimulus": 718, "trial": 25, "rt": 1086, "response": "Alpha"}, "26": {"stimulus": 530, "trial": 26, "rt": 888, "response": "Alpha"}, "27": {"stimulus": 624, "trial": 27, "rt": 906, "response": "Alpha"}, "20": {"stimulus": 1655, "trial": 20, "rt": 2083, "response": "Beta"}, "21": {"stimulus": 749, "trial": 21, "rt": 1268, "response": "Alpha"}, "22": {"stimulus": 1780, "trial": 22, "rt": 927, "response": "Alpha"}, "23": {"stimulus": 2374, "trial": 23, "rt": 1560, "response": "Beta"}, "46": {"stimulus": 1093, "trial": 46, "rt": 1077, "response": "Beta"}, "47": {"stimulus": 1218, "trial": 47, "rt": 1132, "response": "Alpha"}, "44": {"stimulus": 437, "trial": 44, "rt": 1722, "response": "Alpha"}, "45": {"stimulus": 1249, "trial": 45, "rt": 1791, "response": "Beta"}, "28": {"stimulus": 2405, "trial": 28, "rt": 1741, "response": "Beta"}, "29": {"stimulus": 1280, "trial": 29, "rt": 1571, "response": "Alpha"}, "40": {"stimulus": 30, "trial": 40, "rt": 2305, "response": "Alpha"}, "41": {"stimulus": 1124, "trial": 41, "rt": 1200, "response": "Alpha"}, "1": {"stimulus": 1187, "trial": 1, "rt": 1962, "response": "Beta"}, "0": {"stimulus": 155, "trial": 0, "rt": 2622, "response": "Beta"}, "3": {"stimulus": 1718, "trial": 3, "rt": 1248, "response": "Alpha"}, "2": {"stimulus": 93, "trial": 2, "rt": 1890, "response": "Beta"}, "5": {"stimulus": 2218, "trial": 5, "rt": 1070, "response": "Alpha"}, "4": {"stimulus": 374, "trial": 4, "rt": 1188, "response": "Alpha"}, "7": {"stimulus": 1968, "trial": 7, "rt": 1068, "response": "Alpha"}, "6": {"stimulus": 1437, "trial": 6, "rt": 1990, "response": "Beta"}, "9": {"stimulus": 1687, "trial": 9, "rt": 2181, "response": "Alpha"}, "8": {"stimulus": 1562, "trial": 8, "rt": 1891, "response": "Beta"}, "78": {"stimulus": 2187, "trial": 78, "rt": 1139, "response": "Beta"}, "51": {"stimulus": 312, "trial": 51, "rt": 1007, "response": "Alpha"}, "39": {"stimulus": 2437, "trial": 39, "rt": 1448, "response": "Beta"}, "65": {"stimulus": 468, "trial": 65, "rt": 1393, "response": "Alpha"}, "76": {"stimulus": 874, "trial": 76, "rt": 1078, "response": "Alpha"}, "75": {"stimulus": 405, "trial": 75, "rt": 1370, "response": "Alpha"}, "38": {"stimulus": 905, "trial": 38, "rt": 1652, "response": "Alpha"}, "73": {"stimulus": 593, "trial": 73, "rt": 929, "response": "Beta"}, "72": {"stimulus": 843, "trial": 72, "rt": 1951, "response": "Beta"}, "71": {"stimulus": 1499, "trial": 71, "rt": 1589, "response": "Beta"}, "70": {"stimulus": 2124, "trial": 70, "rt": 1359, "response": "Beta"}, "59": {"stimulus": 812, "trial": 59, "rt": 1097, "response": "Alpha"}, "79": {"stimulus": 2030, "trial": 79, "rt": 1049, "response": "Beta"}, "58": {"stimulus": 2155, "trial": 58, "rt": 1743, "response": "Beta"}, "11": {"stimulus": 562, "trial": 11, "rt": 1227, "response": "Alpha"}, "10": {"stimulus": 249, "trial": 10, "rt": 1350, "response": "Alpha"}, "13": {"stimulus": 1843, "trial": 13, "rt": 1681, "response": "Beta"}, "12": {"stimulus": 1593, "trial": 12, "rt": 1672, "response": "Beta"}, "15": {"stimulus": 687, "trial": 15, "rt": 1379, "response": "Beta"}, "14": {"stimulus": 2312, "trial": 14, "rt": 1249, "response": "Alpha"}, "17": {"stimulus": 62, "trial": 17, "rt": 1200, "response": "Alpha"}, "16": {"stimulus": 1999, "trial": 16, "rt": 1920, "response": "Alpha"}, "19": {"stimulus": 937, "trial": 19, "rt": 2222, "response": "Alpha"}, "18": {"stimulus": 655, "trial": 18, "rt": 1109, "response": "Alpha"}, "31": {"stimulus": 1155, "trial": 31, "rt": 3589, "response": "Alpha"}, "30": {"stimulus": 218, "trial": 30, "rt": 1005, "response": "Alpha"}, "37": {"stimulus": 1749, "trial": 37, "rt": 1712, "response": "Alpha"}, "36": {"stimulus": 124, "trial": 36, "rt": 1180, "response": "Alpha"}, "35": {"stimulus": 1905, "trial": 35, "rt": 5650, "response": "Beta"}, "34": {"stimulus": 2249, "trial": 34, "rt": 14951, "response": "Beta"}, "33": {"stimulus": 1624, "trial": 33, "rt": 2061, "response": "Alpha"}, "55": {"stimulus": 0, "trial": 55, "rt": 1038, "response": "Alpha"}, "74": {"stimulus": 1343, "trial": 74, "rt": 927, "response": "Beta"}, "32": {"stimulus": 1468, "trial": 32, "rt": 1421, "response": "Beta"}, "57": {"stimulus": 2093, "trial": 57, "rt": 1571, "response": "Beta"}, "50": {"stimulus": 2062, "trial": 50, "rt": 1832, "response": "Beta"}}, "experiment": {"Paradigm": "TACL", "Stimuli": "Size-Color Squares", "Experiment": "Generating-Multiple-Categories"}, "submit": {"timeTotal": 365467, "age": "40", "comments": "this was harder than it looks", "sex": "female"}}