{"info": {"finish": 1548195633133, "participant": 422, "exposed": true, "lab": false, "start": 1548195265077, "counterbalance": 2, "gentype": 2, "condition": "XOR", "browser": {"platform": "Win32", "userAgent": "Mozilla/5.0 (Windows NT 10.0; Win64; x64) AppleWebKit/537.36 (KHTML, like Gecko) Chrome/71.0.3578.98 Safari/537.36"}}, "observation": {"11": {"stimulus": 1479, "trial": 11, "rt": 1842}, "10": {"stimulus": 1890, "trial": 10, "rt": 1398}, "1": {"stimulus": 1890, "trial": 1, "rt": 2220}, "0": {"stimulus": 1479, "trial": 0, "rt": 2578}, "3": {"stimulus": 818, "trial": 3, "rt": 2315}, "2": {"stimulus": 403, "trial": 2, "rt": 2124}, "5": {"stimulus": 818, "trial": 5, "rt": 1676}, "4": {"stimulus": 403, "trial": 4, "rt": 2068}, "7": {"stimulus": 1890, "trial": 7, "rt": 1500}, "6": {"stimulus": 1479, "trial": 6, "rt": 1588}, "9": {"stimulus": 818, "trial": 9, "rt": 1686}, "8": {"stimulus": 403, "trial": 8, "rt": 1573}}, "generation": {"1": {"category": "Beta", "trial": 1, "stimulus": 2271, "rt": 8000}, "0": {"category": "Beta", "trial": 0, "stimulus": 2499, "rt": 11864}, "3": {"category": "Beta", "trial": 3, "stimulus": 2450, "rt": 3780}, "2": {"category": "Beta", "trial": 2, "stimulus": 2322, "rt": 7831}, "5": {"category": "Gamma", "trial": 5, "stimulus": 166, "rt": 4999}, "4": {"category": "Gamma", "trial": 4, "stimulus": 49, "rt": 5639}, "7": {"category": "Gamma", "trial": 7, "stimulus": 150, "rt": 5418}, "6": {"category": "Gamma", "trial": 6, "stimulus": 22, "rt": 5918}}, "generalization": {"56": {"stimulus": 1343, "trial": 56, "rt": 1331, "response": "Alpha"}, "77": {"stimulus": 874, "trial": 77, "rt": 780, "response": "Gamma"}, "54": {"stimulus": 624, "trial": 54, "rt": 943, "response": "Gamma"}, "42": {"stimulus": 2405, "trial": 42, "rt": 1495, "response": "Beta"}, "48": {"stimulus": 2030, "trial": 48, "rt": 1138, "response": "Beta"}, "43": {"stimulus": 2437, "trial": 43, "rt": 612, "response": "Beta"}, "60": {"stimulus": 749, "trial": 60, "rt": 633, "response": "Gamma"}, "61": {"stimulus": 468, "trial": 61, "rt": 498, "response": "Gamma"}, "62": {"stimulus": 2499, "trial": 62, "rt": 2474, "response": "Beta"}, "63": {"stimulus": 1780, "trial": 63, "rt": 1242, "response": "Alpha"}, "64": {"stimulus": 687, "trial": 64, "rt": 1292, "response": "Gamma"}, "49": {"stimulus": 1655, "trial": 49, "rt": 1209, "response": "Alpha"}, "66": {"stimulus": 1093, "trial": 66, "rt": 2203, "response": "Alpha"}, "67": {"stimulus": 2374, "trial": 67, "rt": 820, "response": "Beta"}, "68": {"stimulus": 124, "trial": 68, "rt": 768, "response": "Gamma"}, "69": {"stimulus": 1062, "trial": 69, "rt": 1232, "response": "Alpha"}, "80": {"stimulus": 218, "trial": 80, "rt": 532, "response": "Gamma"}, "52": {"stimulus": 1030, "trial": 52, "rt": 2426, "response": "Gamma"}, "53": {"stimulus": 812, "trial": 53, "rt": 1154, "response": "Gamma"}, "24": {"stimulus": 2343, "trial": 24, "rt": 1051, "response": "Beta"}, "25": {"stimulus": 2312, "trial": 25, "rt": 740, "response": "Beta"}, "26": {"stimulus": 2218, "trial": 26, "rt": 647, "response": "Beta"}, "27": {"stimulus": 1593, "trial": 27, "rt": 1247, "response": "Alpha"}, "20": {"stimulus": 1280, "trial": 20, "rt": 985, "response": "Alpha"}, "21": {"stimulus": 1562, "trial": 21, "rt": 964, "response": "Alpha"}, "22": {"stimulus": 249, "trial": 22, "rt": 893, "response": "Gamma"}, "23": {"stimulus": 1749, "trial": 23, "rt": 1829, "response": "Alpha"}, "46": {"stimulus": 62, "trial": 46, "rt": 790, "response": "Gamma"}, "47": {"stimulus": 280, "trial": 47, "rt": 690, "response": "Gamma"}, "44": {"stimulus": 1437, "trial": 44, "rt": 1101, "response": "Alpha"}, "45": {"stimulus": 2249, "trial": 45, "rt": 1524, "response": "Beta"}, "28": {"stimulus": 30, "trial": 28, "rt": 868, "response": "Gamma"}, "29": {"stimulus": 1468, "trial": 29, "rt": 931, "response": "Beta"}, "40": {"stimulus": 1530, "trial": 40, "rt": 1148, "response": "Alpha"}, "41": {"stimulus": 937, "trial": 41, "rt": 1003, "response": "Gamma"}, "1": {"stimulus": 1405, "trial": 1, "rt": 3656, "response": "Alpha"}, "0": {"stimulus": 155, "trial": 0, "rt": 4057, "response": "Gamma"}, "3": {"stimulus": 2280, "trial": 3, "rt": 807, "response": "Beta"}, "2": {"stimulus": 2093, "trial": 2, "rt": 2197, "response": "Beta"}, "5": {"stimulus": 1687, "trial": 5, "rt": 1962, "response": "Alpha"}, "4": {"stimulus": 1718, "trial": 4, "rt": 4212, "response": "Alpha"}, "7": {"stimulus": 905, "trial": 7, "rt": 1247, "response": "Gamma"}, "6": {"stimulus": 0, "trial": 6, "rt": 1145, "response": "Gamma"}, "9": {"stimulus": 405, "trial": 9, "rt": 905, "response": "Gamma"}, "8": {"stimulus": 1374, "trial": 8, "rt": 2913, "response": "Alpha"}, "78": {"stimulus": 562, "trial": 78, "rt": 608, "response": "Gamma"}, "51": {"stimulus": 1249, "trial": 51, "rt": 10043, "response": "Beta"}, "39": {"stimulus": 1968, "trial": 39, "rt": 2189, "response": "Beta"}, "65": {"stimulus": 1937, "trial": 65, "rt": 2473, "response": "Alpha"}, "76": {"stimulus": 999, "trial": 76, "rt": 1008, "response": "Gamma"}, "75": {"stimulus": 2155, "trial": 75, "rt": 863, "response": "Beta"}, "38": {"stimulus": 1218, "trial": 38, "rt": 2324, "response": "Beta"}, "73": {"stimulus": 1812, "trial": 73, "rt": 1451, "response": "Alpha"}, "72": {"stimulus": 2124, "trial": 72, "rt": 937, "response": "Beta"}, "71": {"stimulus": 1999, "trial": 71, "rt": 1166, "response": "Beta"}, "70": {"stimulus": 1499, "trial": 70, "rt": 1002, "response": "Beta"}, "59": {"stimulus": 593, "trial": 59, "rt": 973, "response": "Gamma"}, "79": {"stimulus": 343, "trial": 79, "rt": 553, "response": "Gamma"}, "58": {"stimulus": 968, "trial": 58, "rt": 2246, "response": "Beta"}, "11": {"stimulus": 374, "trial": 11, "rt": 935, "response": "Gamma"}, "10": {"stimulus": 2062, "trial": 10, "rt": 3103, "response": "Beta"}, "13": {"stimulus": 187, "trial": 13, "rt": 540, "response": "Gamma"}, "12": {"stimulus": 93, "trial": 12, "rt": 3995, "response": "Gamma"}, "15": {"stimulus": 1624, "trial": 15, "rt": 2464, "response": "Alpha"}, "14": {"stimulus": 530, "trial": 14, "rt": 821, "response": "Gamma"}, "17": {"stimulus": 1124, "trial": 17, "rt": 2773, "response": "Beta"}, "16": {"stimulus": 437, "trial": 16, "rt": 823, "response": "Gamma"}, "19": {"stimulus": 2468, "trial": 19, "rt": 2146, "response": "Beta"}, "18": {"stimulus": 843, "trial": 18, "rt": 790, "response": "Beta"}, "31": {"stimulus": 655, "trial": 31, "rt": 1439, "response": "Gamma"}, "30": {"stimulus": 1187, "trial": 30, "rt": 505, "response": "Beta"}, "37": {"stimulus": 1874, "trial": 37, "rt": 1727, "response": "Alpha"}, "36": {"stimulus": 780, "trial": 36, "rt": 1097, "response": "Gamma"}, "35": {"stimulus": 1155, "trial": 35, "rt": 1170, "response": "Gamma"}, "34": {"stimulus": 1905, "trial": 34, "rt": 1728, "response": "Alpha"}, "33": {"stimulus": 2187, "trial": 33, "rt": 4378, "response": "Beta"}, "55": {"stimulus": 1843, "trial": 55, "rt": 3948, "response": "Alpha"}, "74": {"stimulus": 1312, "trial": 74, "rt": 1975, "response": "Alpha"}, "32": {"stimulus": 312, "trial": 32, "rt": 726, "response": "Gamma"}, "57": {"stimulus": 499, "trial": 57, "rt": 1347, "response": "Gamma"}, "50": {"stimulus": 718, "trial": 50, "rt": 916, "response": "Gamma"}}, "experiment": {"Paradigm": "TACL", "Stimuli": "Size-Color Squares", "Experiment": "Generating-Multiple-Categories"}, "submit": {"timeTotal": 368308, "age": "23", "comments": "the experiment was great!", "sex": "female"}}