{"info": {"finish": 1548199696765, "participant": 430, "exposed": true, "lab": false, "start": 1548199242566, "counterbalance": 6, "gentype": 0, "condition": "Cluster", "browser": {"platform": "Win32", "userAgent": "Mozilla/5.0 (Windows NT 10.0; Win64; x64; rv:64.0) Gecko/20100101 Firefox/64.0"}}, "observation": {"11": {"stimulus": 1093, "trial": 11, "rt": 1589}, "10": {"stimulus": 392, "trial": 10, "rt": 1510}, "1": {"stimulus": 1093, "trial": 1, "rt": 1726}, "0": {"stimulus": 392, "trial": 0, "rt": 3924}, "3": {"stimulus": 1083, "trial": 3, "rt": 1599}, "2": {"stimulus": 583, "trial": 2, "rt": 1777}, "5": {"stimulus": 392, "trial": 5, "rt": 1571}, "4": {"stimulus": 1083, "trial": 4, "rt": 1801}, "7": {"stimulus": 583, "trial": 7, "rt": 1491}, "6": {"stimulus": 1093, "trial": 6, "rt": 1511}, "9": {"stimulus": 1083, "trial": 9, "rt": 1393}, "8": {"stimulus": 583, "trial": 8, "rt": 1424}}, "generation": {"1": {"category": "Not-Alpha", "trial": 1, "stimulus": 2049, "rt": 5811}, "0": {"category": "Not-Alpha", "trial": 0, "stimulus": 2453, "rt": 16570}, "3": {"category": "Not-Alpha", "trial": 3, "stimulus": 1200, "rt": 11912}, "2": {"category": "Not-Alpha", "trial": 2, "stimulus": 1710, "rt": 6846}, "5": {"category": "Not-Alpha", "trial": 5, "stimulus": 1362, "rt": 25201}, "4": {"category": "Not-Alpha", "trial": 4, "stimulus": 1749, "rt": 10325}, "7": {"category": "Not-Alpha", "trial": 7, "stimulus": 2462, "rt": 4919}, "6": {"category": "Not-Alpha", "trial": 6, "stimulus": 1761, "rt": 5544}}, "generalization": {"56": {"stimulus": 1780, "trial": 56, "rt": 3958, "response": "Alpha"}, "77": {"stimulus": 2218, "trial": 77, "rt": 645, "response": "Beta"}, "54": {"stimulus": 1905, "trial": 54, "rt": 607, "response": "Beta"}, "42": {"stimulus": 1593, "trial": 42, "rt": 2510, "response": "Alpha"}, "48": {"stimulus": 1187, "trial": 48, "rt": 4053, "response": "Alpha"}, "43": {"stimulus": 2405, "trial": 43, "rt": 886, "response": "Beta"}, "60": {"stimulus": 437, "trial": 60, "rt": 769, "response": "Alpha"}, "61": {"stimulus": 1437, "trial": 61, "rt": 763, "response": "Alpha"}, "62": {"stimulus": 1530, "trial": 62, "rt": 524, "response": "Alpha"}, "63": {"stimulus": 1343, "trial": 63, "rt": 829, "response": "Alpha"}, "64": {"stimulus": 1280, "trial": 64, "rt": 687, "response": "Alpha"}, "49": {"stimulus": 718, "trial": 49, "rt": 2488, "response": "Alpha"}, "66": {"stimulus": 1468, "trial": 66, "rt": 1121, "response": "Beta"}, "67": {"stimulus": 218, "trial": 67, "rt": 689, "response": "Beta"}, "68": {"stimulus": 280, "trial": 68, "rt": 1151, "response": "Alpha"}, "69": {"stimulus": 1312, "trial": 69, "rt": 725, "response": "Beta"}, "80": {"stimulus": 1249, "trial": 80, "rt": 851, "response": "Beta"}, "52": {"stimulus": 1030, "trial": 52, "rt": 970, "response": "Alpha"}, "53": {"stimulus": 0, "trial": 53, "rt": 1631, "response": "Beta"}, "24": {"stimulus": 405, "trial": 24, "rt": 649, "response": "Beta"}, "25": {"stimulus": 530, "trial": 25, "rt": 846, "response": "Alpha"}, "26": {"stimulus": 249, "trial": 26, "rt": 749, "response": "Beta"}, "27": {"stimulus": 1405, "trial": 27, "rt": 689, "response": "Beta"}, "20": {"stimulus": 1812, "trial": 20, "rt": 934, "response": "Beta"}, "21": {"stimulus": 374, "trial": 21, "rt": 871, "response": "Alpha"}, "22": {"stimulus": 999, "trial": 22, "rt": 979, "response": "Beta"}, "23": {"stimulus": 1155, "trial": 23, "rt": 738, "response": "Beta"}, "46": {"stimulus": 1718, "trial": 46, "rt": 1330, "response": "Beta"}, "47": {"stimulus": 1999, "trial": 47, "rt": 3230, "response": "Beta"}, "44": {"stimulus": 1499, "trial": 44, "rt": 1997, "response": "Beta"}, "45": {"stimulus": 62, "trial": 45, "rt": 1713, "response": "Beta"}, "28": {"stimulus": 2437, "trial": 28, "rt": 1071, "response": "Beta"}, "29": {"stimulus": 2280, "trial": 29, "rt": 10489, "response": "Beta"}, "40": {"stimulus": 30, "trial": 40, "rt": 5783, "response": "Alpha"}, "41": {"stimulus": 343, "trial": 41, "rt": 7547, "response": "Alpha"}, "1": {"stimulus": 812, "trial": 1, "rt": 2082, "response": "Alpha"}, "0": {"stimulus": 687, "trial": 0, "rt": 1402, "response": "Alpha"}, "3": {"stimulus": 187, "trial": 3, "rt": 1023, "response": "Alpha"}, "2": {"stimulus": 1062, "trial": 2, "rt": 3554, "response": "Beta"}, "5": {"stimulus": 2468, "trial": 5, "rt": 1625, "response": "Beta"}, "4": {"stimulus": 93, "trial": 4, "rt": 764, "response": "Alpha"}, "7": {"stimulus": 874, "trial": 7, "rt": 907, "response": "Alpha"}, "6": {"stimulus": 2499, "trial": 6, "rt": 1132, "response": "Beta"}, "9": {"stimulus": 1093, "trial": 9, "rt": 1271, "response": "Alpha"}, "8": {"stimulus": 655, "trial": 8, "rt": 806, "response": "Beta"}, "78": {"stimulus": 1968, "trial": 78, "rt": 834, "response": "Beta"}, "51": {"stimulus": 562, "trial": 51, "rt": 1758, "response": "Beta"}, "39": {"stimulus": 499, "trial": 39, "rt": 2220, "response": "Beta"}, "65": {"stimulus": 749, "trial": 65, "rt": 962, "response": "Beta"}, "76": {"stimulus": 2312, "trial": 76, "rt": 603, "response": "Beta"}, "75": {"stimulus": 1124, "trial": 75, "rt": 872, "response": "Alpha"}, "38": {"stimulus": 2187, "trial": 38, "rt": 2280, "response": "Beta"}, "73": {"stimulus": 1749, "trial": 73, "rt": 755, "response": "Beta"}, "72": {"stimulus": 312, "trial": 72, "rt": 861, "response": "Beta"}, "71": {"stimulus": 2124, "trial": 71, "rt": 2451, "response": "Beta"}, "70": {"stimulus": 2155, "trial": 70, "rt": 633, "response": "Beta"}, "59": {"stimulus": 1655, "trial": 59, "rt": 677, "response": "Beta"}, "79": {"stimulus": 593, "trial": 79, "rt": 790, "response": "Alpha"}, "58": {"stimulus": 937, "trial": 58, "rt": 891, "response": "Alpha"}, "11": {"stimulus": 2093, "trial": 11, "rt": 1562, "response": "Beta"}, "10": {"stimulus": 1624, "trial": 10, "rt": 1482, "response": "Beta"}, "13": {"stimulus": 1562, "trial": 13, "rt": 1479, "response": "Beta"}, "12": {"stimulus": 2343, "trial": 12, "rt": 783, "response": "Beta"}, "15": {"stimulus": 624, "trial": 15, "rt": 5412, "response": "Alpha"}, "14": {"stimulus": 2374, "trial": 14, "rt": 1088, "response": "Beta"}, "17": {"stimulus": 468, "trial": 17, "rt": 1911, "response": "Beta"}, "16": {"stimulus": 968, "trial": 16, "rt": 1007, "response": "Beta"}, "19": {"stimulus": 2249, "trial": 19, "rt": 862, "response": "Beta"}, "18": {"stimulus": 1687, "trial": 18, "rt": 855, "response": "Alpha"}, "31": {"stimulus": 1874, "trial": 31, "rt": 3996, "response": "Beta"}, "30": {"stimulus": 155, "trial": 30, "rt": 1398, "response": "Beta"}, "37": {"stimulus": 1374, "trial": 37, "rt": 1653, "response": "Alpha"}, "36": {"stimulus": 1843, "trial": 36, "rt": 759, "response": "Beta"}, "35": {"stimulus": 2030, "trial": 35, "rt": 2072, "response": "Beta"}, "34": {"stimulus": 780, "trial": 34, "rt": 23159, "response": "Alpha"}, "33": {"stimulus": 2062, "trial": 33, "rt": 670, "response": "Beta"}, "55": {"stimulus": 843, "trial": 55, "rt": 1305, "response": "Alpha"}, "74": {"stimulus": 905, "trial": 74, "rt": 623, "response": "Beta"}, "32": {"stimulus": 1937, "trial": 32, "rt": 720, "response": "Beta"}, "57": {"stimulus": 124, "trial": 57, "rt": 768, "response": "Alpha"}, "50": {"stimulus": 1218, "trial": 50, "rt": 19706, "response": "Alpha"}}, "experiment": {"Paradigm": "TACL", "Stimuli": "Size-Color Squares", "Experiment": "Generating-Multiple-Categories"}, "submit": {"timeTotal": 454433, "age": "28", "comments": "Was I right? ", "sex": "male"}}