{"info": {"finish": 1548200438487, "participant": 431, "exposed": true, "lab": false, "start": 1548200005686, "counterbalance": 4, "gentype": 1, "condition": "Row", "browser": {"platform": "Win32", "userAgent": "Mozilla/5.0 (Windows NT 10.0; Win64; x64; rv:64.0) Gecko/20100101 Firefox/64.0"}}, "observation": {"11": {"stimulus": 582, "trial": 11, "rt": 17204}, "10": {"stimulus": 612, "trial": 10, "rt": 1898}, "1": {"stimulus": 612, "trial": 1, "rt": 2892}, "0": {"stimulus": 582, "trial": 0, "rt": 4036}, "3": {"stimulus": 421, "trial": 3, "rt": 2796}, "2": {"stimulus": 493, "trial": 2, "rt": 2056}, "5": {"stimulus": 582, "trial": 5, "rt": 1671}, "4": {"stimulus": 612, "trial": 4, "rt": 5612}, "7": {"stimulus": 421, "trial": 7, "rt": 2057}, "6": {"stimulus": 493, "trial": 6, "rt": 1601}, "9": {"stimulus": 421, "trial": 9, "rt": 1552}, "8": {"stimulus": 493, "trial": 8, "rt": 2375}}, "generation": {"1": {"category": "Beta", "trial": 1, "stimulus": 2249, "rt": 16310}, "0": {"category": "Beta", "trial": 0, "stimulus": 1550, "rt": 8511}, "3": {"category": "Beta", "trial": 3, "stimulus": 2150, "rt": 5256}, "2": {"category": "Beta", "trial": 2, "stimulus": 2462, "rt": 49268}, "5": {"category": "Beta", "trial": 5, "stimulus": 2316, "rt": 4857}, "4": {"category": "Beta", "trial": 4, "stimulus": 2473, "rt": 4064}, "7": {"category": "Beta", "trial": 7, "stimulus": 1930, "rt": 5480}, "6": {"category": "Beta", "trial": 6, "stimulus": 2442, "rt": 6273}}, "generalization": {"56": {"stimulus": 999, "trial": 56, "rt": 818, "response": "Alpha"}, "77": {"stimulus": 0, "trial": 77, "rt": 940, "response": "Alpha"}, "54": {"stimulus": 1249, "trial": 54, "rt": 2432, "response": "Beta"}, "42": {"stimulus": 2155, "trial": 42, "rt": 1184, "response": "Beta"}, "48": {"stimulus": 655, "trial": 48, "rt": 992, "response": "Alpha"}, "43": {"stimulus": 562, "trial": 43, "rt": 832, "response": "Alpha"}, "60": {"stimulus": 2280, "trial": 60, "rt": 885, "response": "Beta"}, "61": {"stimulus": 905, "trial": 61, "rt": 865, "response": "Alpha"}, "62": {"stimulus": 2312, "trial": 62, "rt": 1671, "response": "Beta"}, "63": {"stimulus": 1093, "trial": 63, "rt": 1036, "response": "Alpha"}, "64": {"stimulus": 1280, "trial": 64, "rt": 1137, "response": "Alpha"}, "49": {"stimulus": 2187, "trial": 49, "rt": 850, "response": "Beta"}, "66": {"stimulus": 624, "trial": 66, "rt": 960, "response": "Alpha"}, "67": {"stimulus": 1062, "trial": 67, "rt": 2153, "response": "Alpha"}, "68": {"stimulus": 1218, "trial": 68, "rt": 1311, "response": "Alpha"}, "69": {"stimulus": 124, "trial": 69, "rt": 985, "response": "Alpha"}, "80": {"stimulus": 280, "trial": 80, "rt": 1061, "response": "Alpha"}, "52": {"stimulus": 1374, "trial": 52, "rt": 878, "response": "Alpha"}, "53": {"stimulus": 1843, "trial": 53, "rt": 1051, "response": "Beta"}, "24": {"stimulus": 1687, "trial": 24, "rt": 876, "response": "Beta"}, "25": {"stimulus": 2249, "trial": 25, "rt": 613, "response": "Beta"}, "26": {"stimulus": 1780, "trial": 26, "rt": 477, "response": "Beta"}, "27": {"stimulus": 2405, "trial": 27, "rt": 583, "response": "Beta"}, "20": {"stimulus": 437, "trial": 20, "rt": 713, "response": "Alpha"}, "21": {"stimulus": 405, "trial": 21, "rt": 669, "response": "Alpha"}, "22": {"stimulus": 499, "trial": 22, "rt": 674, "response": "Alpha"}, "23": {"stimulus": 93, "trial": 23, "rt": 848, "response": "Alpha"}, "46": {"stimulus": 1593, "trial": 46, "rt": 1049, "response": "Beta"}, "47": {"stimulus": 1437, "trial": 47, "rt": 1483, "response": "Alpha"}, "44": {"stimulus": 749, "trial": 44, "rt": 1694, "response": "Alpha"}, "45": {"stimulus": 874, "trial": 45, "rt": 724, "response": "Alpha"}, "28": {"stimulus": 1187, "trial": 28, "rt": 1210, "response": "Alpha"}, "29": {"stimulus": 2093, "trial": 29, "rt": 545, "response": "Beta"}, "40": {"stimulus": 2437, "trial": 40, "rt": 874, "response": "Beta"}, "41": {"stimulus": 718, "trial": 41, "rt": 960, "response": "Alpha"}, "1": {"stimulus": 1562, "trial": 1, "rt": 913, "response": "Beta"}, "0": {"stimulus": 530, "trial": 0, "rt": 1510, "response": "Alpha"}, "3": {"stimulus": 1468, "trial": 3, "rt": 771, "response": "Beta"}, "2": {"stimulus": 1030, "trial": 2, "rt": 964, "response": "Alpha"}, "5": {"stimulus": 2468, "trial": 5, "rt": 819, "response": "Beta"}, "4": {"stimulus": 1655, "trial": 4, "rt": 968, "response": "Beta"}, "7": {"stimulus": 155, "trial": 7, "rt": 1169, "response": "Alpha"}, "6": {"stimulus": 1499, "trial": 6, "rt": 629, "response": "Alpha"}, "9": {"stimulus": 1530, "trial": 9, "rt": 1633, "response": "Beta"}, "8": {"stimulus": 1812, "trial": 8, "rt": 643, "response": "Beta"}, "78": {"stimulus": 1749, "trial": 78, "rt": 1392, "response": "Beta"}, "51": {"stimulus": 937, "trial": 51, "rt": 854, "response": "Alpha"}, "39": {"stimulus": 1968, "trial": 39, "rt": 1221, "response": "Beta"}, "65": {"stimulus": 593, "trial": 65, "rt": 888, "response": "Alpha"}, "76": {"stimulus": 1874, "trial": 76, "rt": 771, "response": "Beta"}, "75": {"stimulus": 968, "trial": 75, "rt": 931, "response": "Alpha"}, "38": {"stimulus": 1155, "trial": 38, "rt": 1908, "response": "Beta"}, "73": {"stimulus": 1718, "trial": 73, "rt": 877, "response": "Beta"}, "72": {"stimulus": 2499, "trial": 72, "rt": 741, "response": "Beta"}, "71": {"stimulus": 2374, "trial": 71, "rt": 645, "response": "Beta"}, "70": {"stimulus": 2062, "trial": 70, "rt": 864, "response": "Beta"}, "59": {"stimulus": 1343, "trial": 59, "rt": 897, "response": "Beta"}, "79": {"stimulus": 312, "trial": 79, "rt": 915, "response": "Alpha"}, "58": {"stimulus": 218, "trial": 58, "rt": 2049, "response": "Alpha"}, "11": {"stimulus": 187, "trial": 11, "rt": 711, "response": "Alpha"}, "10": {"stimulus": 1905, "trial": 10, "rt": 954, "response": "Beta"}, "13": {"stimulus": 780, "trial": 13, "rt": 1042, "response": "Alpha"}, "12": {"stimulus": 812, "trial": 12, "rt": 707, "response": "Alpha"}, "15": {"stimulus": 62, "trial": 15, "rt": 643, "response": "Alpha"}, "14": {"stimulus": 687, "trial": 14, "rt": 927, "response": "Alpha"}, "17": {"stimulus": 1124, "trial": 17, "rt": 1607, "response": "Alpha"}, "16": {"stimulus": 1937, "trial": 16, "rt": 1030, "response": "Beta"}, "19": {"stimulus": 343, "trial": 19, "rt": 1073, "response": "Alpha"}, "18": {"stimulus": 2343, "trial": 18, "rt": 856, "response": "Beta"}, "31": {"stimulus": 1405, "trial": 31, "rt": 1148, "response": "Alpha"}, "30": {"stimulus": 249, "trial": 30, "rt": 595, "response": "Alpha"}, "37": {"stimulus": 374, "trial": 37, "rt": 596, "response": "Alpha"}, "36": {"stimulus": 1624, "trial": 36, "rt": 2358, "response": "Beta"}, "35": {"stimulus": 843, "trial": 35, "rt": 1099, "response": "Alpha"}, "34": {"stimulus": 2124, "trial": 34, "rt": 1032, "response": "Beta"}, "33": {"stimulus": 1999, "trial": 33, "rt": 808, "response": "Beta"}, "55": {"stimulus": 1312, "trial": 55, "rt": 1435, "response": "Beta"}, "74": {"stimulus": 2218, "trial": 74, "rt": 624, "response": "Beta"}, "32": {"stimulus": 30, "trial": 32, "rt": 1144, "response": "Alpha"}, "57": {"stimulus": 468, "trial": 57, "rt": 993, "response": "Alpha"}, "50": {"stimulus": 2030, "trial": 50, "rt": 1229, "response": "Beta"}}, "experiment": {"Paradigm": "TACL", "Stimuli": "Size-Color Squares", "Experiment": "Generating-Multiple-Categories"}, "submit": {"timeTotal": 433216, "age": "39", "comments": "", "sex": "F"}}