{"info": {"finish": 1548200355811, "participant": 432, "exposed": true, "lab": false, "start": 1548200008180, "counterbalance": 1, "gentype": 0, "condition": "XOR", "browser": {"platform": "Win32", "userAgent": "Mozilla/5.0 (Windows NT 6.3; Win64; x64; rv:64.0) Gecko/20100101 Firefox/64.0"}}, "observation": {"11": {"stimulus": 403, "trial": 11, "rt": 2542}, "10": {"stimulus": 1479, "trial": 10, "rt": 1670}, "1": {"stimulus": 1479, "trial": 1, "rt": 2911}, "0": {"stimulus": 1890, "trial": 0, "rt": 4879}, "3": {"stimulus": 403, "trial": 3, "rt": 2567}, "2": {"stimulus": 818, "trial": 2, "rt": 3615}, "5": {"stimulus": 1890, "trial": 5, "rt": 3160}, "4": {"stimulus": 403, "trial": 4, "rt": 2464}, "7": {"stimulus": 818, "trial": 7, "rt": 1927}, "6": {"stimulus": 1479, "trial": 6, "rt": 2256}, "9": {"stimulus": 1890, "trial": 9, "rt": 1760}, "8": {"stimulus": 818, "trial": 8, "rt": 2040}}, "generation": {"1": {"category": "Not-Alpha", "trial": 1, "stimulus": 2499, "rt": 10343}, "0": {"category": "Not-Alpha", "trial": 0, "stimulus": 2450, "rt": 15791}, "3": {"category": "Not-Alpha", "trial": 3, "stimulus": 1998, "rt": 8471}, "2": {"category": "Not-Alpha", "trial": 2, "stimulus": 2496, "rt": 6920}, "5": {"category": "Not-Alpha", "trial": 5, "stimulus": 0, "rt": 5863}, "4": {"category": "Not-Alpha", "trial": 4, "stimulus": 2150, "rt": 7550}, "7": {"category": "Not-Alpha", "trial": 7, "stimulus": 249, "rt": 6880}, "6": {"category": "Not-Alpha", "trial": 6, "stimulus": 49, "rt": 5214}}, "generalization": {"56": {"stimulus": 1437, "trial": 56, "rt": 520, "response": "Alpha"}, "77": {"stimulus": 124, "trial": 77, "rt": 470, "response": "Alpha"}, "54": {"stimulus": 405, "trial": 54, "rt": 511, "response": "Alpha"}, "42": {"stimulus": 780, "trial": 42, "rt": 712, "response": "Alpha"}, "48": {"stimulus": 812, "trial": 48, "rt": 471, "response": "Alpha"}, "43": {"stimulus": 187, "trial": 43, "rt": 2431, "response": "Beta"}, "60": {"stimulus": 1812, "trial": 60, "rt": 1007, "response": "Beta"}, "61": {"stimulus": 1874, "trial": 61, "rt": 735, "response": "Beta"}, "62": {"stimulus": 2312, "trial": 62, "rt": 783, "response": "Beta"}, "63": {"stimulus": 2468, "trial": 63, "rt": 687, "response": "Beta"}, "64": {"stimulus": 1499, "trial": 64, "rt": 974, "response": "Alpha"}, "49": {"stimulus": 874, "trial": 49, "rt": 696, "response": "Alpha"}, "66": {"stimulus": 1593, "trial": 66, "rt": 2224, "response": "Beta"}, "67": {"stimulus": 2374, "trial": 67, "rt": 823, "response": "Beta"}, "68": {"stimulus": 2343, "trial": 68, "rt": 687, "response": "Beta"}, "69": {"stimulus": 312, "trial": 69, "rt": 1358, "response": "Alpha"}, "80": {"stimulus": 905, "trial": 80, "rt": 951, "response": "Alpha"}, "52": {"stimulus": 249, "trial": 52, "rt": 1112, "response": "Beta"}, "53": {"stimulus": 749, "trial": 53, "rt": 606, "response": "Alpha"}, "24": {"stimulus": 1999, "trial": 24, "rt": 1200, "response": "Alpha"}, "25": {"stimulus": 2437, "trial": 25, "rt": 910, "response": "Beta"}, "26": {"stimulus": 1687, "trial": 26, "rt": 791, "response": "Alpha"}, "27": {"stimulus": 968, "trial": 27, "rt": 776, "response": "Alpha"}, "20": {"stimulus": 2030, "trial": 20, "rt": 2414, "response": "Alpha"}, "21": {"stimulus": 2249, "trial": 21, "rt": 856, "response": "Beta"}, "22": {"stimulus": 937, "trial": 22, "rt": 967, "response": "Alpha"}, "23": {"stimulus": 93, "trial": 23, "rt": 935, "response": "Beta"}, "46": {"stimulus": 374, "trial": 46, "rt": 1095, "response": "Beta"}, "47": {"stimulus": 1187, "trial": 47, "rt": 557, "response": "Alpha"}, "44": {"stimulus": 1280, "trial": 44, "rt": 648, "response": "Alpha"}, "45": {"stimulus": 2218, "trial": 45, "rt": 959, "response": "Beta"}, "28": {"stimulus": 843, "trial": 28, "rt": 615, "response": "Alpha"}, "29": {"stimulus": 1468, "trial": 29, "rt": 590, "response": "Alpha"}, "40": {"stimulus": 1405, "trial": 40, "rt": 704, "response": "Beta"}, "41": {"stimulus": 687, "trial": 41, "rt": 806, "response": "Alpha"}, "1": {"stimulus": 562, "trial": 1, "rt": 1288, "response": "Alpha"}, "0": {"stimulus": 62, "trial": 0, "rt": 4966, "response": "Beta"}, "3": {"stimulus": 1718, "trial": 3, "rt": 2575, "response": "Alpha"}, "2": {"stimulus": 30, "trial": 2, "rt": 1335, "response": "Beta"}, "5": {"stimulus": 593, "trial": 5, "rt": 992, "response": "Alpha"}, "4": {"stimulus": 2062, "trial": 4, "rt": 1080, "response": "Beta"}, "7": {"stimulus": 2280, "trial": 7, "rt": 1063, "response": "Beta"}, "6": {"stimulus": 2155, "trial": 6, "rt": 2254, "response": "Beta"}, "9": {"stimulus": 1937, "trial": 9, "rt": 871, "response": "Alpha"}, "8": {"stimulus": 1343, "trial": 8, "rt": 919, "response": "Alpha"}, "78": {"stimulus": 1530, "trial": 78, "rt": 519, "response": "Alpha"}, "51": {"stimulus": 2124, "trial": 51, "rt": 1023, "response": "Beta"}, "39": {"stimulus": 1905, "trial": 39, "rt": 735, "response": "Beta"}, "65": {"stimulus": 1312, "trial": 65, "rt": 759, "response": "Alpha"}, "76": {"stimulus": 468, "trial": 76, "rt": 527, "response": "Alpha"}, "75": {"stimulus": 1624, "trial": 75, "rt": 688, "response": "Alpha"}, "38": {"stimulus": 1124, "trial": 38, "rt": 759, "response": "Alpha"}, "73": {"stimulus": 1030, "trial": 73, "rt": 552, "response": "Alpha"}, "72": {"stimulus": 1155, "trial": 72, "rt": 743, "response": "Alpha"}, "71": {"stimulus": 2499, "trial": 71, "rt": 888, "response": "Beta"}, "70": {"stimulus": 1749, "trial": 70, "rt": 2319, "response": "Alpha"}, "59": {"stimulus": 1655, "trial": 59, "rt": 992, "response": "Alpha"}, "79": {"stimulus": 155, "trial": 79, "rt": 839, "response": "Beta"}, "58": {"stimulus": 655, "trial": 58, "rt": 671, "response": "Alpha"}, "11": {"stimulus": 1093, "trial": 11, "rt": 958, "response": "Alpha"}, "10": {"stimulus": 499, "trial": 10, "rt": 904, "response": "Alpha"}, "13": {"stimulus": 624, "trial": 13, "rt": 854, "response": "Alpha"}, "12": {"stimulus": 1968, "trial": 12, "rt": 1783, "response": "Alpha"}, "15": {"stimulus": 1249, "trial": 15, "rt": 1023, "response": "Alpha"}, "14": {"stimulus": 343, "trial": 14, "rt": 1543, "response": "Beta"}, "17": {"stimulus": 2405, "trial": 17, "rt": 823, "response": "Beta"}, "16": {"stimulus": 1374, "trial": 16, "rt": 711, "response": "Alpha"}, "19": {"stimulus": 999, "trial": 19, "rt": 871, "response": "Alpha"}, "18": {"stimulus": 2093, "trial": 18, "rt": 943, "response": "Beta"}, "31": {"stimulus": 0, "trial": 31, "rt": 880, "response": "Beta"}, "30": {"stimulus": 280, "trial": 30, "rt": 1584, "response": "Beta"}, "37": {"stimulus": 218, "trial": 37, "rt": 919, "response": "Beta"}, "36": {"stimulus": 1780, "trial": 36, "rt": 591, "response": "Alpha"}, "35": {"stimulus": 1218, "trial": 35, "rt": 575, "response": "Alpha"}, "34": {"stimulus": 718, "trial": 34, "rt": 631, "response": "Alpha"}, "33": {"stimulus": 1562, "trial": 33, "rt": 584, "response": "Alpha"}, "55": {"stimulus": 437, "trial": 55, "rt": 526, "response": "Alpha"}, "74": {"stimulus": 1843, "trial": 74, "rt": 1287, "response": "Alpha"}, "32": {"stimulus": 530, "trial": 32, "rt": 1104, "response": "Alpha"}, "57": {"stimulus": 1062, "trial": 57, "rt": 656, "response": "Alpha"}, "50": {"stimulus": 2187, "trial": 50, "rt": 968, "response": "Beta"}}, "experiment": {"Paradigm": "TACL", "Stimuli": "Size-Color Squares", "Experiment": "Generating-Multiple-Categories"}, "submit": {"timeTotal": 347873, "age": "57", "comments": "", "sex": "male"}}