{"info": {"finish": 1548201419313, "participant": 434, "exposed": true, "lab": false, "start": 1548200787776, "counterbalance": 1, "gentype": 2, "condition": "Cluster", "browser": {"platform": "Win32", "userAgent": "Mozilla/5.0 (Windows NT 6.1) AppleWebKit/537.36 (KHTML, like Gecko) Chrome/71.0.3578.98 Safari/537.36"}}, "observation": {"11": {"stimulus": 1093, "trial": 11, "rt": 67011}, "10": {"stimulus": 392, "trial": 10, "rt": 2510}, "1": {"stimulus": 1093, "trial": 1, "rt": 13064}, "0": {"stimulus": 392, "trial": 0, "rt": 21158}, "3": {"stimulus": 1083, "trial": 3, "rt": 2429}, "2": {"stimulus": 583, "trial": 2, "rt": 6873}, "5": {"stimulus": 1093, "trial": 5, "rt": 2200}, "4": {"stimulus": 1083, "trial": 4, "rt": 2926}, "7": {"stimulus": 392, "trial": 7, "rt": 2246}, "6": {"stimulus": 583, "trial": 6, "rt": 2207}, "9": {"stimulus": 1083, "trial": 9, "rt": 2683}, "8": {"stimulus": 583, "trial": 8, "rt": 2182}}, "generation": {"1": {"category": "Beta", "trial": 1, "stimulus": 1761, "rt": 13431}, "0": {"category": "Beta", "trial": 0, "stimulus": 1654, "rt": 23802}, "3": {"category": "Beta", "trial": 3, "stimulus": 1344, "rt": 30036}, "2": {"category": "Beta", "trial": 2, "stimulus": 1662, "rt": 8939}, "5": {"category": "Gamma", "trial": 5, "stimulus": 779, "rt": 14441}, "4": {"category": "Gamma", "trial": 4, "stimulus": 425, "rt": 10959}, "7": {"category": "Gamma", "trial": 7, "stimulus": 928, "rt": 8819}, "6": {"category": "Gamma", "trial": 6, "stimulus": 878, "rt": 8129}}, "generalization": {"56": {"stimulus": 1843, "trial": 56, "rt": 722, "response": "Beta"}, "77": {"stimulus": 1187, "trial": 77, "rt": 813, "response": "Beta"}, "54": {"stimulus": 1155, "trial": 54, "rt": 2862, "response": "Beta"}, "42": {"stimulus": 655, "trial": 42, "rt": 3421, "response": "Alpha"}, "48": {"stimulus": 280, "trial": 48, "rt": 2274, "response": "Gamma"}, "43": {"stimulus": 905, "trial": 43, "rt": 1148, "response": "Alpha"}, "60": {"stimulus": 843, "trial": 60, "rt": 908, "response": "Beta"}, "61": {"stimulus": 1124, "trial": 61, "rt": 904, "response": "Beta"}, "62": {"stimulus": 1093, "trial": 62, "rt": 1121, "response": "Beta"}, "63": {"stimulus": 1437, "trial": 63, "rt": 968, "response": "Beta"}, "64": {"stimulus": 405, "trial": 64, "rt": 1365, "response": "Alpha"}, "49": {"stimulus": 1280, "trial": 49, "rt": 1644, "response": "Beta"}, "66": {"stimulus": 1874, "trial": 66, "rt": 1339, "response": "Beta"}, "67": {"stimulus": 1562, "trial": 67, "rt": 941, "response": "Beta"}, "68": {"stimulus": 687, "trial": 68, "rt": 1241, "response": "Beta"}, "69": {"stimulus": 1530, "trial": 69, "rt": 945, "response": "Beta"}, "80": {"stimulus": 2280, "trial": 80, "rt": 1374, "response": "Beta"}, "52": {"stimulus": 718, "trial": 52, "rt": 1431, "response": "Beta"}, "53": {"stimulus": 1343, "trial": 53, "rt": 1450, "response": "Beta"}, "24": {"stimulus": 2030, "trial": 24, "rt": 1122, "response": "Beta"}, "25": {"stimulus": 1718, "trial": 25, "rt": 921, "response": "Beta"}, "26": {"stimulus": 999, "trial": 26, "rt": 948, "response": "Beta"}, "27": {"stimulus": 312, "trial": 27, "rt": 2108, "response": "Gamma"}, "20": {"stimulus": 2405, "trial": 20, "rt": 1245, "response": "Beta"}, "21": {"stimulus": 1655, "trial": 21, "rt": 1928, "response": "Beta"}, "22": {"stimulus": 468, "trial": 22, "rt": 1613, "response": "Gamma"}, "23": {"stimulus": 1249, "trial": 23, "rt": 1159, "response": "Beta"}, "46": {"stimulus": 155, "trial": 46, "rt": 642, "response": "Alpha"}, "47": {"stimulus": 749, "trial": 47, "rt": 3211, "response": "Gamma"}, "44": {"stimulus": 374, "trial": 44, "rt": 1554, "response": "Beta"}, "45": {"stimulus": 62, "trial": 45, "rt": 3328, "response": "Alpha"}, "28": {"stimulus": 2218, "trial": 28, "rt": 1888, "response": "Beta"}, "29": {"stimulus": 1812, "trial": 29, "rt": 834, "response": "Beta"}, "40": {"stimulus": 1468, "trial": 40, "rt": 1117, "response": "Beta"}, "41": {"stimulus": 937, "trial": 41, "rt": 1422, "response": "Beta"}, "1": {"stimulus": 2249, "trial": 1, "rt": 4982, "response": "Beta"}, "0": {"stimulus": 2374, "trial": 0, "rt": 6195, "response": "Alpha"}, "3": {"stimulus": 1312, "trial": 3, "rt": 2204, "response": "Gamma"}, "2": {"stimulus": 624, "trial": 2, "rt": 2268, "response": "Gamma"}, "5": {"stimulus": 187, "trial": 5, "rt": 1781, "response": "Gamma"}, "4": {"stimulus": 1374, "trial": 4, "rt": 1660, "response": "Gamma"}, "7": {"stimulus": 2343, "trial": 7, "rt": 1432, "response": "Beta"}, "6": {"stimulus": 1499, "trial": 6, "rt": 5001, "response": "Gamma"}, "9": {"stimulus": 2187, "trial": 9, "rt": 6993, "response": "Gamma"}, "8": {"stimulus": 812, "trial": 8, "rt": 2121, "response": "Gamma"}, "78": {"stimulus": 2312, "trial": 78, "rt": 947, "response": "Beta"}, "51": {"stimulus": 1937, "trial": 51, "rt": 1036, "response": "Beta"}, "39": {"stimulus": 530, "trial": 39, "rt": 2160, "response": "Gamma"}, "65": {"stimulus": 437, "trial": 65, "rt": 1503, "response": "Gamma"}, "76": {"stimulus": 1780, "trial": 76, "rt": 756, "response": "Beta"}, "75": {"stimulus": 2499, "trial": 75, "rt": 1162, "response": "Beta"}, "38": {"stimulus": 2124, "trial": 38, "rt": 1985, "response": "Beta"}, "73": {"stimulus": 30, "trial": 73, "rt": 26800, "response": "Gamma"}, "72": {"stimulus": 1905, "trial": 72, "rt": 6553, "response": "Beta"}, "71": {"stimulus": 0, "trial": 71, "rt": 23824, "response": "Alpha"}, "70": {"stimulus": 1405, "trial": 70, "rt": 3234, "response": "Alpha"}, "59": {"stimulus": 874, "trial": 59, "rt": 1557, "response": "Beta"}, "79": {"stimulus": 218, "trial": 79, "rt": 1587, "response": "Gamma"}, "58": {"stimulus": 780, "trial": 58, "rt": 2289, "response": "Beta"}, "11": {"stimulus": 2468, "trial": 11, "rt": 763, "response": "Beta"}, "10": {"stimulus": 1999, "trial": 10, "rt": 2161, "response": "Beta"}, "13": {"stimulus": 1749, "trial": 13, "rt": 1939, "response": "Beta"}, "12": {"stimulus": 93, "trial": 12, "rt": 2502, "response": "Alpha"}, "15": {"stimulus": 1624, "trial": 15, "rt": 1093, "response": "Beta"}, "14": {"stimulus": 1062, "trial": 14, "rt": 1407, "response": "Gamma"}, "17": {"stimulus": 1593, "trial": 17, "rt": 682, "response": "Beta"}, "16": {"stimulus": 1687, "trial": 16, "rt": 851, "response": "Beta"}, "19": {"stimulus": 562, "trial": 19, "rt": 1737, "response": "Gamma"}, "18": {"stimulus": 968, "trial": 18, "rt": 2798, "response": "Gamma"}, "31": {"stimulus": 1968, "trial": 31, "rt": 971, "response": "Beta"}, "30": {"stimulus": 2093, "trial": 30, "rt": 1034, "response": "Beta"}, "37": {"stimulus": 593, "trial": 37, "rt": 1314, "response": "Alpha"}, "36": {"stimulus": 1218, "trial": 36, "rt": 861, "response": "Beta"}, "35": {"stimulus": 124, "trial": 35, "rt": 1397, "response": "Beta"}, "34": {"stimulus": 2155, "trial": 34, "rt": 2035, "response": "Beta"}, "33": {"stimulus": 249, "trial": 33, "rt": 1350, "response": "Gamma"}, "55": {"stimulus": 499, "trial": 55, "rt": 959, "response": "Beta"}, "74": {"stimulus": 2062, "trial": 74, "rt": 1380, "response": "Beta"}, "32": {"stimulus": 2437, "trial": 32, "rt": 827, "response": "Beta"}, "57": {"stimulus": 343, "trial": 57, "rt": 1296, "response": "Beta"}, "50": {"stimulus": 1030, "trial": 50, "rt": 2071, "response": "Beta"}}, "experiment": {"Paradigm": "TACL", "Stimuli": "Size-Color Squares", "Experiment": "Generating-Multiple-Categories"}, "submit": {"timeTotal": 632901, "age": "31", "comments": "IT'S LITTLE DIFFCULT ", "sex": "MALE"}}