{"info": {"finish": 1548202268506, "participant": 436, "exposed": true, "lab": false, "start": 1548201594438, "counterbalance": 7, "gentype": 1, "condition": "Row", "browser": {"platform": "Win32", "userAgent": "Mozilla/5.0 (Windows NT 6.1; Win64; x64) AppleWebKit/537.36 (KHTML, like Gecko) Chrome/71.0.3578.98 Safari/537.36"}}, "observation": {"11": {"stimulus": 582, "trial": 11, "rt": 10268}, "10": {"stimulus": 612, "trial": 10, "rt": 7411}, "1": {"stimulus": 582, "trial": 1, "rt": 6846}, "0": {"stimulus": 421, "trial": 0, "rt": 8799}, "3": {"stimulus": 612, "trial": 3, "rt": 7540}, "2": {"stimulus": 493, "trial": 2, "rt": 7718}, "5": {"stimulus": 421, "trial": 5, "rt": 5919}, "4": {"stimulus": 582, "trial": 4, "rt": 7494}, "7": {"stimulus": 493, "trial": 7, "rt": 8348}, "6": {"stimulus": 612, "trial": 6, "rt": 7225}, "9": {"stimulus": 493, "trial": 9, "rt": 7409}, "8": {"stimulus": 421, "trial": 8, "rt": 6914}}, "generation": {"1": {"category": "Beta", "trial": 1, "stimulus": 2056, "rt": 7315}, "0": {"category": "Beta", "trial": 0, "stimulus": 2100, "rt": 40390}, "3": {"category": "Beta", "trial": 3, "stimulus": 2025, "rt": 5529}, "2": {"category": "Beta", "trial": 2, "stimulus": 2115, "rt": 9205}, "5": {"category": "Beta", "trial": 5, "stimulus": 2085, "rt": 5822}, "4": {"category": "Beta", "trial": 4, "stimulus": 1979, "rt": 5577}, "7": {"category": "Beta", "trial": 7, "stimulus": 2099, "rt": 6788}, "6": {"category": "Beta", "trial": 6, "stimulus": 2091, "rt": 5193}}, "generalization": {"56": {"stimulus": 2093, "trial": 56, "rt": 708, "response": "Beta"}, "77": {"stimulus": 280, "trial": 77, "rt": 770, "response": "Alpha"}, "54": {"stimulus": 249, "trial": 54, "rt": 1510, "response": "Alpha"}, "42": {"stimulus": 624, "trial": 42, "rt": 540, "response": "Alpha"}, "48": {"stimulus": 2187, "trial": 48, "rt": 650, "response": "Beta"}, "43": {"stimulus": 2218, "trial": 43, "rt": 841, "response": "Beta"}, "60": {"stimulus": 968, "trial": 60, "rt": 967, "response": "Alpha"}, "61": {"stimulus": 2124, "trial": 61, "rt": 674, "response": "Beta"}, "62": {"stimulus": 1843, "trial": 62, "rt": 548, "response": "Beta"}, "63": {"stimulus": 1468, "trial": 63, "rt": 557, "response": "Beta"}, "64": {"stimulus": 0, "trial": 64, "rt": 722, "response": "Alpha"}, "49": {"stimulus": 905, "trial": 49, "rt": 3243, "response": "Alpha"}, "66": {"stimulus": 405, "trial": 66, "rt": 909, "response": "Alpha"}, "67": {"stimulus": 1655, "trial": 67, "rt": 888, "response": "Beta"}, "68": {"stimulus": 1999, "trial": 68, "rt": 469, "response": "Beta"}, "69": {"stimulus": 1905, "trial": 69, "rt": 438, "response": "Beta"}, "80": {"stimulus": 437, "trial": 80, "rt": 825, "response": "Alpha"}, "52": {"stimulus": 1405, "trial": 52, "rt": 1101, "response": "Beta"}, "53": {"stimulus": 2062, "trial": 53, "rt": 494, "response": "Beta"}, "24": {"stimulus": 530, "trial": 24, "rt": 926, "response": "Alpha"}, "25": {"stimulus": 343, "trial": 25, "rt": 864, "response": "Alpha"}, "26": {"stimulus": 2499, "trial": 26, "rt": 786, "response": "Beta"}, "27": {"stimulus": 312, "trial": 27, "rt": 840, "response": "Alpha"}, "20": {"stimulus": 2343, "trial": 20, "rt": 738, "response": "Beta"}, "21": {"stimulus": 1968, "trial": 21, "rt": 705, "response": "Beta"}, "22": {"stimulus": 2468, "trial": 22, "rt": 611, "response": "Beta"}, "23": {"stimulus": 1624, "trial": 23, "rt": 792, "response": "Alpha"}, "46": {"stimulus": 749, "trial": 46, "rt": 2439, "response": "Alpha"}, "47": {"stimulus": 1093, "trial": 47, "rt": 1047, "response": "Beta"}, "44": {"stimulus": 468, "trial": 44, "rt": 755, "response": "Alpha"}, "45": {"stimulus": 62, "trial": 45, "rt": 527, "response": "Alpha"}, "28": {"stimulus": 1937, "trial": 28, "rt": 650, "response": "Beta"}, "29": {"stimulus": 1124, "trial": 29, "rt": 1124, "response": "Beta"}, "40": {"stimulus": 1374, "trial": 40, "rt": 576, "response": "Beta"}, "41": {"stimulus": 874, "trial": 41, "rt": 1753, "response": "Alpha"}, "1": {"stimulus": 1187, "trial": 1, "rt": 944, "response": "Alpha"}, "0": {"stimulus": 2405, "trial": 0, "rt": 1937, "response": "Beta"}, "3": {"stimulus": 1593, "trial": 3, "rt": 800, "response": "Alpha"}, "2": {"stimulus": 1812, "trial": 2, "rt": 1004, "response": "Beta"}, "5": {"stimulus": 937, "trial": 5, "rt": 732, "response": "Alpha"}, "4": {"stimulus": 1874, "trial": 4, "rt": 722, "response": "Beta"}, "7": {"stimulus": 1343, "trial": 7, "rt": 699, "response": "Beta"}, "6": {"stimulus": 93, "trial": 6, "rt": 865, "response": "Alpha"}, "9": {"stimulus": 374, "trial": 9, "rt": 912, "response": "Alpha"}, "8": {"stimulus": 1218, "trial": 8, "rt": 1130, "response": "Beta"}, "78": {"stimulus": 1718, "trial": 78, "rt": 942, "response": "Beta"}, "51": {"stimulus": 843, "trial": 51, "rt": 849, "response": "Alpha"}, "39": {"stimulus": 1562, "trial": 39, "rt": 635, "response": "Beta"}, "65": {"stimulus": 2312, "trial": 65, "rt": 1148, "response": "Beta"}, "76": {"stimulus": 2155, "trial": 76, "rt": 596, "response": "Beta"}, "75": {"stimulus": 999, "trial": 75, "rt": 532, "response": "Alpha"}, "38": {"stimulus": 2249, "trial": 38, "rt": 685, "response": "Beta"}, "73": {"stimulus": 124, "trial": 73, "rt": 707, "response": "Alpha"}, "72": {"stimulus": 2030, "trial": 72, "rt": 518, "response": "Beta"}, "71": {"stimulus": 2437, "trial": 71, "rt": 494, "response": "Beta"}, "70": {"stimulus": 1280, "trial": 70, "rt": 424, "response": "Beta"}, "59": {"stimulus": 718, "trial": 59, "rt": 872, "response": "Alpha"}, "79": {"stimulus": 1749, "trial": 79, "rt": 927, "response": "Beta"}, "58": {"stimulus": 187, "trial": 58, "rt": 785, "response": "Alpha"}, "11": {"stimulus": 218, "trial": 11, "rt": 1146, "response": "Alpha"}, "10": {"stimulus": 499, "trial": 10, "rt": 580, "response": "Alpha"}, "13": {"stimulus": 1530, "trial": 13, "rt": 682, "response": "Beta"}, "12": {"stimulus": 1499, "trial": 12, "rt": 746, "response": "Beta"}, "15": {"stimulus": 1687, "trial": 15, "rt": 849, "response": "Beta"}, "14": {"stimulus": 593, "trial": 14, "rt": 691, "response": "Alpha"}, "17": {"stimulus": 2374, "trial": 17, "rt": 692, "response": "Beta"}, "16": {"stimulus": 562, "trial": 16, "rt": 736, "response": "Alpha"}, "19": {"stimulus": 2280, "trial": 19, "rt": 878, "response": "Beta"}, "18": {"stimulus": 687, "trial": 18, "rt": 739, "response": "Alpha"}, "31": {"stimulus": 1437, "trial": 31, "rt": 1015, "response": "Beta"}, "30": {"stimulus": 1030, "trial": 30, "rt": 849, "response": "Beta"}, "37": {"stimulus": 1312, "trial": 37, "rt": 920, "response": "Beta"}, "36": {"stimulus": 655, "trial": 36, "rt": 690, "response": "Alpha"}, "35": {"stimulus": 1155, "trial": 35, "rt": 2896, "response": "Beta"}, "34": {"stimulus": 1780, "trial": 34, "rt": 1357, "response": "Beta"}, "33": {"stimulus": 812, "trial": 33, "rt": 482, "response": "Alpha"}, "55": {"stimulus": 1062, "trial": 55, "rt": 1524, "response": "Beta"}, "74": {"stimulus": 155, "trial": 74, "rt": 596, "response": "Alpha"}, "32": {"stimulus": 780, "trial": 32, "rt": 800, "response": "Alpha"}, "57": {"stimulus": 1249, "trial": 57, "rt": 791, "response": "Beta"}, "50": {"stimulus": 30, "trial": 50, "rt": 636, "response": "Alpha"}}, "experiment": {"Paradigm": "TACL", "Stimuli": "Size-Color Squares", "Experiment": "Generating-Multiple-Categories"}, "submit": {"timeTotal": 674403, "age": "43", "comments": "It was very interesting.", "sex": "Male"}}