{"info": {"finish": 1548203116008, "participant": 440, "exposed": true, "lab": false, "start": 1548202882647, "counterbalance": 1, "gentype": 1, "condition": "Row", "browser": {"platform": "Win32", "userAgent": "Mozilla/5.0 (Windows NT 6.1; Win64; x64) AppleWebKit/537.36 (KHTML, like Gecko) Chrome/71.0.3578.98 Safari/537.36"}}, "observation": {"11": {"stimulus": 493, "trial": 11, "rt": 1409}, "10": {"stimulus": 582, "trial": 10, "rt": 1216}, "1": {"stimulus": 493, "trial": 1, "rt": 1880}, "0": {"stimulus": 612, "trial": 0, "rt": 2724}, "3": {"stimulus": 582, "trial": 3, "rt": 1574}, "2": {"stimulus": 421, "trial": 2, "rt": 1519}, "5": {"stimulus": 612, "trial": 5, "rt": 1461}, "4": {"stimulus": 493, "trial": 4, "rt": 1365}, "7": {"stimulus": 421, "trial": 7, "rt": 1368}, "6": {"stimulus": 582, "trial": 6, "rt": 1497}, "9": {"stimulus": 612, "trial": 9, "rt": 2389}, "8": {"stimulus": 421, "trial": 8, "rt": 1416}}, "generation": {"1": {"category": "Beta", "trial": 1, "stimulus": 2235, "rt": 2774}, "0": {"category": "Beta", "trial": 0, "stimulus": 2211, "rt": 8005}, "3": {"category": "Beta", "trial": 3, "stimulus": 2244, "rt": 1920}, "2": {"category": "Beta", "trial": 2, "stimulus": 2200, "rt": 3781}, "5": {"category": "Beta", "trial": 5, "stimulus": 2224, "rt": 1434}, "4": {"category": "Beta", "trial": 4, "stimulus": 2227, "rt": 2227}, "7": {"category": "Beta", "trial": 7, "stimulus": 2222, "rt": 1205}, "6": {"category": "Beta", "trial": 6, "stimulus": 2230, "rt": 1416}}, "generalization": {"56": {"stimulus": 30, "trial": 56, "rt": 563, "response": "Alpha"}, "77": {"stimulus": 624, "trial": 77, "rt": 484, "response": "Alpha"}, "54": {"stimulus": 1468, "trial": 54, "rt": 460, "response": "Beta"}, "42": {"stimulus": 562, "trial": 42, "rt": 486, "response": "Alpha"}, "48": {"stimulus": 405, "trial": 48, "rt": 705, "response": "Alpha"}, "43": {"stimulus": 62, "trial": 43, "rt": 549, "response": "Alpha"}, "60": {"stimulus": 1249, "trial": 60, "rt": 636, "response": "Beta"}, "61": {"stimulus": 468, "trial": 61, "rt": 799, "response": "Alpha"}, "62": {"stimulus": 312, "trial": 62, "rt": 741, "response": "Alpha"}, "63": {"stimulus": 374, "trial": 63, "rt": 851, "response": "Alpha"}, "64": {"stimulus": 93, "trial": 64, "rt": 635, "response": "Alpha"}, "49": {"stimulus": 687, "trial": 49, "rt": 710, "response": "Alpha"}, "66": {"stimulus": 1030, "trial": 66, "rt": 499, "response": "Beta"}, "67": {"stimulus": 1687, "trial": 67, "rt": 450, "response": "Beta"}, "68": {"stimulus": 1905, "trial": 68, "rt": 458, "response": "Beta"}, "69": {"stimulus": 1718, "trial": 69, "rt": 421, "response": "Beta"}, "80": {"stimulus": 280, "trial": 80, "rt": 753, "response": "Alpha"}, "52": {"stimulus": 2249, "trial": 52, "rt": 419, "response": "Beta"}, "53": {"stimulus": 968, "trial": 53, "rt": 1000, "response": "Beta"}, "24": {"stimulus": 1780, "trial": 24, "rt": 497, "response": "Beta"}, "25": {"stimulus": 1093, "trial": 25, "rt": 411, "response": "Beta"}, "26": {"stimulus": 1187, "trial": 26, "rt": 521, "response": "Beta"}, "27": {"stimulus": 249, "trial": 27, "rt": 787, "response": "Alpha"}, "20": {"stimulus": 999, "trial": 20, "rt": 931, "response": "Beta"}, "21": {"stimulus": 1062, "trial": 21, "rt": 642, "response": "Beta"}, "22": {"stimulus": 1437, "trial": 22, "rt": 567, "response": "Beta"}, "23": {"stimulus": 1218, "trial": 23, "rt": 591, "response": "Beta"}, "46": {"stimulus": 905, "trial": 46, "rt": 1047, "response": "Beta"}, "47": {"stimulus": 1499, "trial": 47, "rt": 574, "response": "Beta"}, "44": {"stimulus": 1405, "trial": 44, "rt": 704, "response": "Beta"}, "45": {"stimulus": 437, "trial": 45, "rt": 707, "response": "Alpha"}, "28": {"stimulus": 2093, "trial": 28, "rt": 731, "response": "Beta"}, "29": {"stimulus": 843, "trial": 29, "rt": 645, "response": "Alpha"}, "40": {"stimulus": 1968, "trial": 40, "rt": 670, "response": "Beta"}, "41": {"stimulus": 187, "trial": 41, "rt": 792, "response": "Alpha"}, "1": {"stimulus": 1343, "trial": 1, "rt": 673, "response": "Alpha"}, "0": {"stimulus": 1312, "trial": 0, "rt": 943, "response": "Alpha"}, "3": {"stimulus": 2155, "trial": 3, "rt": 787, "response": "Beta"}, "2": {"stimulus": 812, "trial": 2, "rt": 592, "response": "Alpha"}, "5": {"stimulus": 343, "trial": 5, "rt": 487, "response": "Alpha"}, "4": {"stimulus": 874, "trial": 4, "rt": 540, "response": "Alpha"}, "7": {"stimulus": 1530, "trial": 7, "rt": 1879, "response": "Beta"}, "6": {"stimulus": 2499, "trial": 6, "rt": 839, "response": "Beta"}, "9": {"stimulus": 2187, "trial": 9, "rt": 1221, "response": "Beta"}, "8": {"stimulus": 1124, "trial": 8, "rt": 946, "response": "Beta"}, "78": {"stimulus": 1155, "trial": 78, "rt": 1538, "response": "Beta"}, "51": {"stimulus": 2312, "trial": 51, "rt": 455, "response": "Beta"}, "39": {"stimulus": 2062, "trial": 39, "rt": 509, "response": "Beta"}, "65": {"stimulus": 780, "trial": 65, "rt": 1734, "response": "Beta"}, "76": {"stimulus": 718, "trial": 76, "rt": 483, "response": "Alpha"}, "75": {"stimulus": 499, "trial": 75, "rt": 795, "response": "Alpha"}, "38": {"stimulus": 1280, "trial": 38, "rt": 763, "response": "Beta"}, "73": {"stimulus": 1655, "trial": 73, "rt": 470, "response": "Beta"}, "72": {"stimulus": 1593, "trial": 72, "rt": 608, "response": "Beta"}, "71": {"stimulus": 1749, "trial": 71, "rt": 353, "response": "Beta"}, "70": {"stimulus": 2124, "trial": 70, "rt": 391, "response": "Beta"}, "59": {"stimulus": 2280, "trial": 59, "rt": 602, "response": "Beta"}, "79": {"stimulus": 1374, "trial": 79, "rt": 526, "response": "Beta"}, "58": {"stimulus": 655, "trial": 58, "rt": 799, "response": "Alpha"}, "11": {"stimulus": 2343, "trial": 11, "rt": 1023, "response": "Beta"}, "10": {"stimulus": 155, "trial": 10, "rt": 738, "response": "Alpha"}, "13": {"stimulus": 2374, "trial": 13, "rt": 602, "response": "Beta"}, "12": {"stimulus": 2468, "trial": 12, "rt": 723, "response": "Beta"}, "15": {"stimulus": 1937, "trial": 15, "rt": 1571, "response": "Beta"}, "14": {"stimulus": 593, "trial": 14, "rt": 795, "response": "Alpha"}, "17": {"stimulus": 0, "trial": 17, "rt": 729, "response": "Alpha"}, "16": {"stimulus": 1874, "trial": 16, "rt": 536, "response": "Beta"}, "19": {"stimulus": 1624, "trial": 19, "rt": 1512, "response": "Beta"}, "18": {"stimulus": 2437, "trial": 18, "rt": 814, "response": "Beta"}, "31": {"stimulus": 2218, "trial": 31, "rt": 690, "response": "Beta"}, "30": {"stimulus": 2405, "trial": 30, "rt": 687, "response": "Beta"}, "37": {"stimulus": 1843, "trial": 37, "rt": 720, "response": "Beta"}, "36": {"stimulus": 937, "trial": 36, "rt": 556, "response": "Alpha"}, "35": {"stimulus": 749, "trial": 35, "rt": 820, "response": "Alpha"}, "34": {"stimulus": 124, "trial": 34, "rt": 743, "response": "Alpha"}, "33": {"stimulus": 530, "trial": 33, "rt": 783, "response": "Alpha"}, "55": {"stimulus": 218, "trial": 55, "rt": 1370, "response": "Alpha"}, "74": {"stimulus": 1562, "trial": 74, "rt": 402, "response": "Beta"}, "32": {"stimulus": 1812, "trial": 32, "rt": 880, "response": "Beta"}, "57": {"stimulus": 1999, "trial": 57, "rt": 647, "response": "Beta"}, "50": {"stimulus": 2030, "trial": 50, "rt": 743, "response": "Beta"}}, "experiment": {"Paradigm": "TACL", "Stimuli": "Size-Color Squares", "Experiment": "Generating-Multiple-Categories"}, "submit": {"timeTotal": 233618, "age": "24", "comments": "Fun experiment", "sex": "Male"}}