{"info": {"finish": 1548203631544, "participant": 441, "exposed": true, "lab": false, "start": 1548203274481, "counterbalance": 4, "gentype": 0, "condition": "Row", "browser": {"platform": "Win32", "userAgent": "Mozilla/5.0 (Windows NT 10.0; Win64; x64) AppleWebKit/537.36 (KHTML, like Gecko) Chrome/71.0.3578.98 Safari/537.36"}}, "observation": {"11": {"stimulus": 421, "trial": 11, "rt": 2183}, "10": {"stimulus": 612, "trial": 10, "rt": 1880}, "1": {"stimulus": 421, "trial": 1, "rt": 3242}, "0": {"stimulus": 582, "trial": 0, "rt": 3822}, "3": {"stimulus": 612, "trial": 3, "rt": 2865}, "2": {"stimulus": 493, "trial": 2, "rt": 3842}, "5": {"stimulus": 421, "trial": 5, "rt": 2481}, "4": {"stimulus": 582, "trial": 4, "rt": 2443}, "7": {"stimulus": 612, "trial": 7, "rt": 2112}, "6": {"stimulus": 493, "trial": 6, "rt": 2513}, "9": {"stimulus": 493, "trial": 9, "rt": 2424}, "8": {"stimulus": 582, "trial": 8, "rt": 2238}}, "generation": {"1": {"category": "Not-Alpha", "trial": 1, "stimulus": 299, "rt": 6782}, "0": {"category": "Not-Alpha", "trial": 0, "stimulus": 2155, "rt": 15029}, "3": {"category": "Not-Alpha", "trial": 3, "stimulus": 5, "rt": 4374}, "2": {"category": "Not-Alpha", "trial": 2, "stimulus": 1343, "rt": 14127}, "5": {"category": "Not-Alpha", "trial": 5, "stimulus": 2455, "rt": 3912}, "4": {"category": "Not-Alpha", "trial": 4, "stimulus": 20, "rt": 6140}, "7": {"category": "Not-Alpha", "trial": 7, "stimulus": 49, "rt": 6032}, "6": {"category": "Not-Alpha", "trial": 6, "stimulus": 2499, "rt": 4535}}, "generalization": {"56": {"stimulus": 124, "trial": 56, "rt": 1136, "response": "Beta"}, "77": {"stimulus": 655, "trial": 77, "rt": 1735, "response": "Beta"}, "54": {"stimulus": 1343, "trial": 54, "rt": 1093, "response": "Alpha"}, "42": {"stimulus": 718, "trial": 42, "rt": 1212, "response": "Beta"}, "48": {"stimulus": 1749, "trial": 48, "rt": 1172, "response": "Alpha"}, "43": {"stimulus": 1280, "trial": 43, "rt": 993, "response": "Alpha"}, "60": {"stimulus": 1468, "trial": 60, "rt": 1126, "response": "Alpha"}, "61": {"stimulus": 93, "trial": 61, "rt": 845, "response": "Beta"}, "62": {"stimulus": 1655, "trial": 62, "rt": 1761, "response": "Alpha"}, "63": {"stimulus": 1812, "trial": 63, "rt": 1093, "response": "Beta"}, "64": {"stimulus": 874, "trial": 64, "rt": 1203, "response": "Alpha"}, "49": {"stimulus": 249, "trial": 49, "rt": 1064, "response": "Beta"}, "66": {"stimulus": 1718, "trial": 66, "rt": 1101, "response": "Beta"}, "67": {"stimulus": 624, "trial": 67, "rt": 1228, "response": "Alpha"}, "68": {"stimulus": 1843, "trial": 68, "rt": 1360, "response": "Beta"}, "69": {"stimulus": 593, "trial": 69, "rt": 5078, "response": "Beta"}, "80": {"stimulus": 1780, "trial": 80, "rt": 1259, "response": "Beta"}, "52": {"stimulus": 2030, "trial": 52, "rt": 875, "response": "Beta"}, "53": {"stimulus": 1030, "trial": 53, "rt": 1479, "response": "Alpha"}, "24": {"stimulus": 1374, "trial": 24, "rt": 776, "response": "Alpha"}, "25": {"stimulus": 2405, "trial": 25, "rt": 1135, "response": "Beta"}, "26": {"stimulus": 1499, "trial": 26, "rt": 1471, "response": "Alpha"}, "27": {"stimulus": 343, "trial": 27, "rt": 1127, "response": "Beta"}, "20": {"stimulus": 2437, "trial": 20, "rt": 1204, "response": "Beta"}, "21": {"stimulus": 2062, "trial": 21, "rt": 1180, "response": "Beta"}, "22": {"stimulus": 2343, "trial": 22, "rt": 1267, "response": "Beta"}, "23": {"stimulus": 1405, "trial": 23, "rt": 1789, "response": "Alpha"}, "46": {"stimulus": 530, "trial": 46, "rt": 970, "response": "Beta"}, "47": {"stimulus": 780, "trial": 47, "rt": 1120, "response": "Beta"}, "44": {"stimulus": 187, "trial": 44, "rt": 1109, "response": "Beta"}, "45": {"stimulus": 1999, "trial": 45, "rt": 1456, "response": "Beta"}, "28": {"stimulus": 30, "trial": 28, "rt": 647, "response": "Beta"}, "29": {"stimulus": 999, "trial": 29, "rt": 1158, "response": "Alpha"}, "40": {"stimulus": 405, "trial": 40, "rt": 1235, "response": "Beta"}, "41": {"stimulus": 2499, "trial": 41, "rt": 1151, "response": "Beta"}, "1": {"stimulus": 62, "trial": 1, "rt": 1687, "response": "Beta"}, "0": {"stimulus": 2187, "trial": 0, "rt": 7283, "response": "Beta"}, "3": {"stimulus": 968, "trial": 3, "rt": 2713, "response": "Alpha"}, "2": {"stimulus": 1593, "trial": 2, "rt": 6164, "response": "Alpha"}, "5": {"stimulus": 937, "trial": 5, "rt": 1565, "response": "Alpha"}, "4": {"stimulus": 2218, "trial": 4, "rt": 1243, "response": "Beta"}, "7": {"stimulus": 1562, "trial": 7, "rt": 774, "response": "Beta"}, "6": {"stimulus": 2468, "trial": 6, "rt": 1292, "response": "Beta"}, "9": {"stimulus": 1249, "trial": 9, "rt": 1093, "response": "Alpha"}, "8": {"stimulus": 2374, "trial": 8, "rt": 868, "response": "Beta"}, "78": {"stimulus": 155, "trial": 78, "rt": 1040, "response": "Beta"}, "51": {"stimulus": 2124, "trial": 51, "rt": 970, "response": "Beta"}, "39": {"stimulus": 1968, "trial": 39, "rt": 1050, "response": "Beta"}, "65": {"stimulus": 1124, "trial": 65, "rt": 947, "response": "Alpha"}, "76": {"stimulus": 2155, "trial": 76, "rt": 979, "response": "Beta"}, "75": {"stimulus": 1062, "trial": 75, "rt": 758, "response": "Alpha"}, "38": {"stimulus": 1155, "trial": 38, "rt": 1048, "response": "Alpha"}, "73": {"stimulus": 1218, "trial": 73, "rt": 892, "response": "Alpha"}, "72": {"stimulus": 2093, "trial": 72, "rt": 1032, "response": "Beta"}, "71": {"stimulus": 312, "trial": 71, "rt": 1345, "response": "Beta"}, "70": {"stimulus": 687, "trial": 70, "rt": 1266, "response": "Alpha"}, "59": {"stimulus": 0, "trial": 59, "rt": 1074, "response": "Beta"}, "79": {"stimulus": 1687, "trial": 79, "rt": 2432, "response": "Beta"}, "58": {"stimulus": 1312, "trial": 58, "rt": 1711, "response": "Alpha"}, "11": {"stimulus": 2280, "trial": 11, "rt": 1089, "response": "Beta"}, "10": {"stimulus": 2312, "trial": 10, "rt": 1040, "response": "Beta"}, "13": {"stimulus": 843, "trial": 13, "rt": 835, "response": "Alpha"}, "12": {"stimulus": 218, "trial": 12, "rt": 1282, "response": "Beta"}, "15": {"stimulus": 374, "trial": 15, "rt": 1204, "response": "Beta"}, "14": {"stimulus": 1874, "trial": 14, "rt": 1112, "response": "Beta"}, "17": {"stimulus": 1624, "trial": 17, "rt": 1011, "response": "Alpha"}, "16": {"stimulus": 280, "trial": 16, "rt": 1062, "response": "Beta"}, "19": {"stimulus": 905, "trial": 19, "rt": 1925, "response": "Alpha"}, "18": {"stimulus": 499, "trial": 18, "rt": 2730, "response": "Beta"}, "31": {"stimulus": 562, "trial": 31, "rt": 2558, "response": "Beta"}, "30": {"stimulus": 437, "trial": 30, "rt": 1182, "response": "Beta"}, "37": {"stimulus": 2249, "trial": 37, "rt": 1157, "response": "Beta"}, "36": {"stimulus": 1187, "trial": 36, "rt": 635, "response": "Alpha"}, "35": {"stimulus": 1437, "trial": 35, "rt": 866, "response": "Alpha"}, "34": {"stimulus": 749, "trial": 34, "rt": 3740, "response": "Beta"}, "33": {"stimulus": 1530, "trial": 33, "rt": 1503, "response": "Beta"}, "55": {"stimulus": 1937, "trial": 55, "rt": 1119, "response": "Beta"}, "74": {"stimulus": 1905, "trial": 74, "rt": 1103, "response": "Beta"}, "32": {"stimulus": 812, "trial": 32, "rt": 789, "response": "Alpha"}, "57": {"stimulus": 468, "trial": 57, "rt": 577, "response": "Beta"}, "50": {"stimulus": 1093, "trial": 50, "rt": 1110, "response": "Alpha"}}, "experiment": {"Paradigm": "TACL", "Stimuli": "Size-Color Squares", "Experiment": "Generating-Multiple-Categories"}, "submit": {"timeTotal": 357313, "age": "59", "comments": "Fun and interesting.", "sex": "female"}}