{"generation": {"1": {"stimulus": 47, "trial": 1, "rt": 1926}, "0": {"stimulus": 40, "trial": 0, "rt": 3119}, "3": {"stimulus": 46, "trial": 3, "rt": 2330}, "2": {"stimulus": 50, "trial": 2, "rt": 2009}}, "info": {"participant": 2, "exposed": true, "lab": true, "start": 1520150955780, "counterbalance": 5, "condition": "Bottom", "browser": {"platform": "MacIntel", "userAgent": "Mozilla/5.0 (Macintosh; Intel Mac OS X 10_12_6) AppleWebKit/537.36 (KHTML, like Gecko) Chrome/64.0.3282.167 Safari/537.36"}}, "experiment": {"Paradigm": "TACL", "Stimuli": "Size-Color Squares", "Experiment": "Generating-Categories"}, "observation": {"11": {"stimulus": 14, "trial": 11, "rt": 670}, "10": {"stimulus": 32, "trial": 10, "rt": 788}, "1": {"stimulus": 32, "trial": 1, "rt": 915}, "0": {"stimulus": 12, "trial": 0, "rt": 2410}, "3": {"stimulus": 14, "trial": 3, "rt": 713}, "2": {"stimulus": 30, "trial": 2, "rt": 849}, "5": {"stimulus": 14, "trial": 5, "rt": 847}, "4": {"stimulus": 32, "trial": 4, "rt": 848}, "7": {"stimulus": 12, "trial": 7, "rt": 879}, "6": {"stimulus": 30, "trial": 6, "rt": 1037}, "9": {"stimulus": 30, "trial": 9, "rt": 837}, "8": {"stimulus": 12, "trial": 8, "rt": 833}}, "generalization": {"56": {"stimulus": 1, "trial": 56, "rt": 450, "response": "Beta"}, "77": {"stimulus": 30, "trial": 77, "rt": 338, "response": "Beta"}, "54": {"stimulus": 62, "trial": 54, "rt": 495, "response": "Beta"}, "42": {"stimulus": 48, "trial": 42, "rt": 274, "response": "Beta"}, "48": {"stimulus": 61, "trial": 48, "rt": 308, "response": "Beta"}, "43": {"stimulus": 20, "trial": 43, "rt": 353, "response": "Beta"}, "60": {"stimulus": 74, "trial": 60, "rt": 354, "response": "Beta"}, "61": {"stimulus": 19, "trial": 61, "rt": 319, "response": "Beta"}, "62": {"stimulus": 60, "trial": 62, "rt": 319, "response": "Beta"}, "63": {"stimulus": 36, "trial": 63, "rt": 318, "response": "Beta"}, "64": {"stimulus": 58, "trial": 64, "rt": 5807, "response": "Beta"}, "49": {"stimulus": 43, "trial": 49, "rt": 319, "response": "Beta"}, "66": {"stimulus": 32, "trial": 66, "rt": 399, "response": "Beta"}, "67": {"stimulus": 75, "trial": 67, "rt": 353, "response": "Beta"}, "68": {"stimulus": 67, "trial": 68, "rt": 656, "response": "Beta"}, "69": {"stimulus": 71, "trial": 69, "rt": 455, "response": "Beta"}, "80": {"stimulus": 55, "trial": 80, "rt": 555, "response": "Beta"}, "52": {"stimulus": 44, "trial": 52, "rt": 242, "response": "Beta"}, "53": {"stimulus": 11, "trial": 53, "rt": 354, "response": "Beta"}, "24": {"stimulus": 41, "trial": 24, "rt": 216, "response": "Beta"}, "25": {"stimulus": 38, "trial": 25, "rt": 274, "response": "Beta"}, "26": {"stimulus": 33, "trial": 26, "rt": 293, "response": "Beta"}, "27": {"stimulus": 34, "trial": 27, "rt": 567, "response": "Beta"}, "20": {"stimulus": 73, "trial": 20, "rt": 277, "response": "Beta"}, "21": {"stimulus": 65, "trial": 21, "rt": 230, "response": "Beta"}, "22": {"stimulus": 35, "trial": 22, "rt": 328, "response": "Beta"}, "23": {"stimulus": 70, "trial": 23, "rt": 195, "response": "Beta"}, "46": {"stimulus": 68, "trial": 46, "rt": 260, "response": "Beta"}, "47": {"stimulus": 39, "trial": 47, "rt": 205, "response": "Beta"}, "44": {"stimulus": 37, "trial": 44, "rt": 294, "response": "Beta"}, "45": {"stimulus": 52, "trial": 45, "rt": 1037, "response": "Beta"}, "28": {"stimulus": 3, "trial": 28, "rt": 363, "response": "Beta"}, "29": {"stimulus": 5, "trial": 29, "rt": 295, "response": "Beta"}, "40": {"stimulus": 49, "trial": 40, "rt": 329, "response": "Beta"}, "41": {"stimulus": 56, "trial": 41, "rt": 304, "response": "Beta"}, "1": {"stimulus": 50, "trial": 1, "rt": 364, "response": "Alpha"}, "0": {"stimulus": 76, "trial": 0, "rt": 925, "response": "Alpha"}, "3": {"stimulus": 72, "trial": 3, "rt": 385, "response": "Alpha"}, "2": {"stimulus": 51, "trial": 2, "rt": 341, "response": "Alpha"}, "5": {"stimulus": 22, "trial": 5, "rt": 24077, "response": "Alpha"}, "4": {"stimulus": 2, "trial": 4, "rt": 407, "response": "Alpha"}, "7": {"stimulus": 27, "trial": 7, "rt": 4242, "response": "Alpha"}, "6": {"stimulus": 47, "trial": 6, "rt": 307, "response": "Alpha"}, "9": {"stimulus": 15, "trial": 9, "rt": 262, "response": "Alpha"}, "8": {"stimulus": 64, "trial": 8, "rt": 308, "response": "Alpha"}, "78": {"stimulus": 16, "trial": 78, "rt": 333, "response": "Beta"}, "51": {"stimulus": 79, "trial": 51, "rt": 285, "response": "Beta"}, "39": {"stimulus": 26, "trial": 39, "rt": 262, "response": "Beta"}, "65": {"stimulus": 17, "trial": 65, "rt": 476, "response": "Beta"}, "76": {"stimulus": 7, "trial": 76, "rt": 510, "response": "Beta"}, "75": {"stimulus": 53, "trial": 75, "rt": 565, "response": "Beta"}, "38": {"stimulus": 9, "trial": 38, "rt": 354, "response": "Beta"}, "73": {"stimulus": 0, "trial": 73, "rt": 409, "response": "Beta"}, "72": {"stimulus": 46, "trial": 72, "rt": 172, "response": "Beta"}, "71": {"stimulus": 21, "trial": 71, "rt": 252, "response": "Beta"}, "70": {"stimulus": 10, "trial": 70, "rt": 1913, "response": "Beta"}, "59": {"stimulus": 14, "trial": 59, "rt": 216, "response": "Beta"}, "79": {"stimulus": 24, "trial": 79, "rt": 407, "response": "Beta"}, "58": {"stimulus": 77, "trial": 58, "rt": 398, "response": "Beta"}, "11": {"stimulus": 63, "trial": 11, "rt": 327, "response": "Alpha"}, "10": {"stimulus": 78, "trial": 10, "rt": 310, "response": "Alpha"}, "13": {"stimulus": 29, "trial": 13, "rt": 377, "response": "Alpha"}, "12": {"stimulus": 69, "trial": 12, "rt": 295, "response": "Alpha"}, "15": {"stimulus": 13, "trial": 15, "rt": 254, "response": "Alpha"}, "14": {"stimulus": 66, "trial": 14, "rt": 350, "response": "Alpha"}, "17": {"stimulus": 42, "trial": 17, "rt": 184, "response": "Alpha"}, "16": {"stimulus": 57, "trial": 16, "rt": 344, "response": "Alpha"}, "19": {"stimulus": 40, "trial": 19, "rt": 261, "response": "Alpha"}, "18": {"stimulus": 28, "trial": 18, "rt": 433, "response": "Alpha"}, "31": {"stimulus": 25, "trial": 31, "rt": 304, "response": "Beta"}, "30": {"stimulus": 45, "trial": 30, "rt": 343, "response": "Beta"}, "37": {"stimulus": 23, "trial": 37, "rt": 231, "response": "Beta"}, "36": {"stimulus": 80, "trial": 36, "rt": 273, "response": "Beta"}, "35": {"stimulus": 18, "trial": 35, "rt": 272, "response": "Beta"}, "34": {"stimulus": 4, "trial": 34, "rt": 272, "response": "Beta"}, "33": {"stimulus": 8, "trial": 33, "rt": 243, "response": "Beta"}, "55": {"stimulus": 6, "trial": 55, "rt": 520, "response": "Beta"}, "74": {"stimulus": 59, "trial": 74, "rt": 328, "response": "Beta"}, "32": {"stimulus": 12, "trial": 32, "rt": 350, "response": "Beta"}, "57": {"stimulus": 54, "trial": 57, "rt": 432, "response": "Beta"}, "50": {"stimulus": 31, "trial": 50, "rt": 308, "response": "Beta"}}}08, "response": "Beta"}}}