{"generation": [{"1": {"category": "b", "trial": 1, "stimulus": 50, "rt": 1235}, "0": {"category": "b", "trial": 0, "stimulus": 47, "rt": 1567}, "3": {"category": "b", "trial": 3, "stimulus": 46, "rt": 1255}, "2": {"category": "b", "trial": 2, "stimulus": 45, "rt": 1259}, "5": {"category": "b", "trial": 5, "stimulus": 12, "rt": 2613}, "4": {"category": "b", "trial": 4, "stimulus": 28, "rt": 4640}, "7": {"category": "b", "trial": 7, "stimulus": 53, "rt": 3434}, "6": {"category": "b", "trial": 6, "stimulus": 37, "rt": 4163}}, {"1": {"category": "b", "trial": 1, "stimulus": 12, "rt": 2018}, "0": {"category": "b", "trial": 0, "stimulus": 51, "rt": 3015}, "3": {"category": "b", "trial": 3, "stimulus": 50, "rt": 1576}, "2": {"category": "b", "trial": 2, "stimulus": 52, "rt": 2650}, "5": {"category": "c", "trial": 1, "stimulus": 46, "rt": 3984}, "4": {"category": "c", "trial": 0, "stimulus": 47, "rt": 1969}, "7": {"category": "c", "trial": 3, "stimulus": 39, "rt": 3070}, "6": {"category": "c", "trial": 2, "stimulus": 21, "rt": 1453}}], "info": {"sessionorder": "b-bc", "participant": 24, "exposed": true, "lab": true, "start": 1534200322648, "counterbalance": 5, "condition": "Middle", "browser": {"platform": "MacIntel", "userAgent": "Mozilla/5.0 (Macintosh; Intel Mac OS X 10.13; rv:61.0) Gecko/20100101 Firefox/61.0"}}, "experiment": {"Paradigm": "TACL", "Stimuli": "Size-Color Squares", "Experiment": "Generating-Multiple-Categories"}, "observation": [{"1": {"stimulus": 50, "trial": 1, "rt": 787}, "0": {"stimulus": 32, "trial": 0, "rt": 1932}, "3": {"stimulus": 48, "trial": 3, "rt": 934}, "2": {"stimulus": 30, "trial": 2, "rt": 928}}, {"1": {"stimulus": 50, "trial": 1, "rt": 956}, "0": {"stimulus": 48, "trial": 0, "rt": 857}, "3": {"stimulus": 32, "trial": 3, "rt": 901}, "2": {"stimulus": 30, "trial": 2, "rt": 986}}], "generalization": [{"stimulus": 36, "trial": 0, "rt": 51385, "response": "Gamma"}, {"stimulus": 44, "trial": 1, "rt": 681, "response": "Beta"}, {"stimulus": 71, "trial": 2, "rt": 673, "response": "Alpha"}, {"stimulus": 5, "trial": 3, "rt": 2052, "response": "Beta"}, {"stimulus": 3, "trial": 4, "rt": 2824, "response": "Beta"}, {"stimulus": 61, "trial": 5, "rt": 502, "response": "Beta"}, {"stimulus": 53, "trial": 6, "rt": 513, "response": "Alpha"}, {"stimulus": 14, "trial": 7, "rt": 346, "response": "Alpha"}, {"stimulus": 15, "trial": 8, "rt": 348, "response": "Alpha"}, {"stimulus": 76, "trial": 9, "rt": 330, "response": "Alpha"}, {"stimulus": 45, "trial": 10, "rt": 342, "response": "Alpha"}, {"stimulus": 56, "trial": 11, "rt": 21395, "response": "Gamma"}, {"stimulus": 40, "trial": 12, "rt": 303, "response": "Gamma"}, {"stimulus": 64, "trial": 13, "rt": 322, "response": "Beta"}, {"stimulus": 77, "trial": 14, "rt": 332, "response": "Beta"}, {"stimulus": 72, "trial": 15, "rt": 330, "response": "Beta"}, {"stimulus": 34, "trial": 16, "rt": 332, "response": "Beta"}, {"stimulus": 22, "trial": 17, "rt": 293, "response": "Alpha"}, {"stimulus": 66, "trial": 18, "rt": 363, "response": "Alpha"}, {"stimulus": 65, "trial": 19, "rt": 332, "response": "Alpha"}, {"stimulus": 62, "trial": 20, "rt": 345, "response": "Alpha"}, {"stimulus": 52, "trial": 21, "rt": 363, "response": "Alpha"}, {"stimulus": 59, "trial": 22, "rt": 391, "response": "Alpha"}, {"stimulus": 78, "trial": 23, "rt": 298, "response": "Alpha"}, {"stimulus": 30, "trial": 24, "rt": 303, "response": "Alpha"}, {"stimulus": 69, "trial": 25, "rt": 315, "response": "Alpha"}, {"stimulus": 42, "trial": 26, "rt": 295, "response": "Alpha"}, {"stimulus": 74, "trial": 27, "rt": 288, "response": "Alpha"}, {"stimulus": 16, "trial": 28, "rt": 303, "response": "Alpha"}, {"stimulus": 80, "trial": 29, "rt": 341, "response": "Alpha"}, {"stimulus": 63, "trial": 30, "rt": 289, "response": "Alpha"}, {"stimulus": 79, "trial": 31, "rt": 317, "response": "Alpha"}, {"stimulus": 2, "trial": 32, "rt": 253, "response": "Beta"}, {"stimulus": 41, "trial": 33, "rt": 254, "response": "Gamma"}, {"stimulus": 21, "trial": 34, "rt": 251, "response": "Beta"}, {"stimulus": 49, "trial": 35, "rt": 277, "response": "Alpha"}, {"stimulus": 17, "trial": 36, "rt": 317, "response": "Gamma"}, {"stimulus": 70, "trial": 37, "rt": 356, "response": "Beta"}, {"stimulus": 12, "trial": 38, "rt": 773, "response": "Gamma"}, {"stimulus": 0, "trial": 39, "rt": 451, "response": "Alpha"}, {"stimulus": 13, "trial": 40, "rt": 363, "response": "Beta"}, {"stimulus": 26, "trial": 41, "rt": 263, "response": "Gamma"}, {"stimulus": 8, "trial": 42, "rt": 478, "response": "Beta"}, {"stimulus": 20, "trial": 43, "rt": 258, "response": "Gamma"}, {"stimulus": 9, "trial": 44, "rt": 331, "response": "Beta"}, {"stimulus": 48, "trial": 45, "rt": 303, "response": "Gamma"}, {"stimulus": 39, "trial": 46, "rt": 314, "response": "Alpha"}, {"stimulus": 32, "trial": 47, "rt": 412, "response": "Beta"}, {"stimulus": 38, "trial": 48, "rt": 292, "response": "Gamma"}, {"stimulus": 29, "trial": 49, "rt": 324, "response": "Beta"}, {"stimulus": 24, "trial": 50, "rt": 330, "response": "Alpha"}, {"stimulus": 55, "trial": 51, "rt": 408, "response": "Beta"}, {"stimulus": 75, "trial": 52, "rt": 291, "response": "Gamma"}, {"stimulus": 23, "trial": 53, "rt": 301, "response": "Beta"}, {"stimulus": 6, "trial": 54, "rt": 344, "response": "Alpha"}, {"stimulus": 7, "trial": 55, "rt": 340, "response": "Beta"}, {"stimulus": 73, "trial": 56, "rt": 262, "response": "Gamma"}, {"stimulus": 1, "trial": 57, "rt": 313, "response": "Beta"}, {"stimulus": 60, "trial": 58, "rt": 321, "response": "Alpha"}, {"stimulus": 11, "trial": 59, "rt": 333, "response": "Gamma"}, {"stimulus": 10, "trial": 60, "rt": 284, "response": "Alpha"}, {"stimulus": 47, "trial": 61, "rt": 314, "response": "Gamma"}, {"stimulus": 37, "trial": 62, "rt": 300, "response": "Alpha"}, {"stimulus": 28, "trial": 63, "rt": 309, "response": "Gamma"}, {"stimulus": 27, "trial": 64, "rt": 303, "response": "Beta"}, {"stimulus": 67, "trial": 65, "rt": 327, "response": "Gamma"}, {"stimulus": 31, "trial": 66, "rt": 289, "response": "Beta"}, {"stimulus": 25, "trial": 67, "rt": 292, "response": "Gamma"}, {"stimulus": 54, "trial": 68, "rt": 694, "response": "Alpha"}, {"stimulus": 58, "trial": 69, "rt": 296, "response": "Beta"}, {"stimulus": 57, "trial": 70, "rt": 271, "response": "Gamma"}, {"stimulus": 51, "trial": 71, "rt": 281, "response": "Beta"}, {"stimulus": 35, "trial": 72, "rt": 269, "response": "Alpha"}, {"stimulus": 50, "trial": 73, "rt": 250, "response": "Beta"}, {"stimulus": 46, "trial": 74, "rt": 280, "response": "Gamma"}, {"stimulus": 68, "trial": 75, "rt": 250, "response": "Beta"}, {"stimulus": 19, "trial": 76, "rt": 245, "response": "Alpha"}, {"stimulus": 33, "trial": 77, "rt": 334, "response": "Beta"}, {"stimulus": 4, "trial": 78, "rt": 373, "response": "Gamma"}, {"stimulus": 43, "trial": 79, "rt": 485, "response": "Beta"}, {"stimulus": 18, "trial": 80, "rt": 354, "response": "Alpha"}]}4, "response": "Alpha"}]}