{"generation": [{"1": {"category": "b", "trial": 1, "stimulus": 59, "rt": 1291}, "0": {"category": "b", "trial": 0, "stimulus": 30, "rt": 1828}, "3": {"category": "b", "trial": 3, "stimulus": 34, "rt": 1157}, "2": {"category": "b", "trial": 2, "stimulus": 29, "rt": 2082}, "5": {"category": "b", "trial": 5, "stimulus": 28, "rt": 3225}, "4": {"category": "b", "trial": 4, "stimulus": 35, "rt": 2513}, "7": {"category": "b", "trial": 7, "stimulus": 61, "rt": 2226}, "6": {"category": "b", "trial": 6, "stimulus": 31, "rt": 1290}}, {"1": {"category": "b", "trial": 1, "stimulus": 33, "rt": 1606}, "0": {"category": "b", "trial": 0, "stimulus": 28, "rt": 2309}, "3": {"category": "b", "trial": 3, "stimulus": 60, "rt": 2139}, "2": {"category": "b", "trial": 2, "stimulus": 55, "rt": 1988}, "5": {"category": "c", "trial": 5, "stimulus": 31, "rt": 1192}, "4": {"category": "c", "trial": 4, "stimulus": 68, "rt": 3203}, "7": {"category": "c", "trial": 7, "stimulus": 14, "rt": 1126}, "6": {"category": "c", "trial": 6, "stimulus": 51, "rt": 2390}}], "info": {"sessionorder": "b-bc", "finish": 1534211141949, "participant": 25, "exposed": true, "lab": true, "start": 1534210961195, "counterbalance": 6, "condition": "Bottom", "browser": {"platform": "MacIntel", "userAgent": "Mozilla/5.0 (Macintosh; Intel Mac OS X 10.13; rv:61.0) Gecko/20100101 Firefox/61.0"}}, "experiment": {"Paradigm": "TACL", "Stimuli": "Size-Color Squares", "Experiment": "Generating-Multiple-Categories"}, "observation": [{"1": {"stimulus": 14, "trial": 1, "rt": 773}, "0": {"stimulus": 12, "trial": 0, "rt": 1035}, "3": {"stimulus": 30, "trial": 3, "rt": 870}, "2": {"stimulus": 32, "trial": 2, "rt": 898}}, {"1": {"stimulus": 32, "trial": 1, "rt": 737}, "0": {"stimulus": 12, "trial": 0, "rt": 2246}, "3": {"stimulus": 30, "trial": 3, "rt": 824}, "2": {"stimulus": 14, "trial": 2, "rt": 622}}], "generalization": [{"stimulus": 33, "trial": 0, "rt": 1145, "response": "Gamma"}, {"stimulus": 38, "trial": 1, "rt": 331, "response": "Gamma"}, {"stimulus": 4, "trial": 2, "rt": 322, "response": "Alpha"}, {"stimulus": 22, "trial": 3, "rt": 330, "response": "Beta"}, {"stimulus": 31, "trial": 4, "rt": 268, "response": "Alpha"}, {"stimulus": 80, "trial": 5, "rt": 272, "response": "Gamma"}, {"stimulus": 5, "trial": 6, "rt": 301, "response": "Beta"}, {"stimulus": 8, "trial": 7, "rt": 307, "response": "Gamma"}, {"stimulus": 12, "trial": 8, "rt": 323, "response": "Beta"}, {"stimulus": 75, "trial": 9, "rt": 313, "response": "Alpha"}, {"stimulus": 54, "trial": 10, "rt": 528, "response": "Beta"}, {"stimulus": 28, "trial": 11, "rt": 481, "response": "Gamma"}, {"stimulus": 69, "trial": 12, "rt": 468, "response": "Alpha"}, {"stimulus": 72, "trial": 13, "rt": 415, "response": "Beta"}, {"stimulus": 44, "trial": 14, "rt": 384, "response": "Gamma"}, {"stimulus": 6, "trial": 15, "rt": 692, "response": "Beta"}, {"stimulus": 68, "trial": 16, "rt": 322, "response": "Alpha"}, {"stimulus": 49, "trial": 17, "rt": 376, "response": "Beta"}, {"stimulus": 51, "trial": 18, "rt": 470, "response": "Alpha"}, {"stimulus": 16, "trial": 19, "rt": 953, "response": "Beta"}, {"stimulus": 74, "trial": 20, "rt": 694, "response": "Gamma"}, {"stimulus": 9, "trial": 21, "rt": 821, "response": "Beta"}, {"stimulus": 19, "trial": 22, "rt": 322, "response": "Alpha"}, {"stimulus": 15, "trial": 23, "rt": 534, "response": "Beta"}, {"stimulus": 43, "trial": 24, "rt": 437, "response": "Gamma"}, {"stimulus": 39, "trial": 25, "rt": 339, "response": "Beta"}, {"stimulus": 21, "trial": 26, "rt": 391, "response": "Alpha"}, {"stimulus": 61, "trial": 27, "rt": 381, "response": "Beta"}, {"stimulus": 53, "trial": 28, "rt": 584, "response": "Beta"}, {"stimulus": 57, "trial": 29, "rt": 565, "response": "Beta"}, {"stimulus": 3, "trial": 30, "rt": 352, "response": "Beta"}, {"stimulus": 47, "trial": 31, "rt": 316, "response": "Beta"}, {"stimulus": 60, "trial": 32, "rt": 293, "response": "Beta"}, {"stimulus": 70, "trial": 33, "rt": 502, "response": "Beta"}, {"stimulus": 59, "trial": 34, "rt": 409, "response": "Beta"}, {"stimulus": 37, "trial": 35, "rt": 439, "response": "Beta"}, {"stimulus": 71, "trial": 36, "rt": 471, "response": "Beta"}, {"stimulus": 66, "trial": 37, "rt": 616, "response": "Beta"}, {"stimulus": 26, "trial": 38, "rt": 488, "response": "Beta"}, {"stimulus": 29, "trial": 39, "rt": 486, "response": "Beta"}, {"stimulus": 23, "trial": 40, "rt": 494, "response": "Beta"}, {"stimulus": 77, "trial": 41, "rt": 432, "response": "Beta"}, {"stimulus": 35, "trial": 42, "rt": 278, "response": "Beta"}, {"stimulus": 78, "trial": 43, "rt": 348, "response": "Beta"}, {"stimulus": 25, "trial": 44, "rt": 321, "response": "Beta"}, {"stimulus": 58, "trial": 45, "rt": 638, "response": "Beta"}, {"stimulus": 40, "trial": 46, "rt": 546, "response": "Gamma"}, {"stimulus": 34, "trial": 47, "rt": 388, "response": "Beta"}, {"stimulus": 63, "trial": 48, "rt": 317, "response": "Alpha"}, {"stimulus": 13, "trial": 49, "rt": 324, "response": "Gamma"}, {"stimulus": 17, "trial": 50, "rt": 360, "response": "Alpha"}, {"stimulus": 1, "trial": 51, "rt": 347, "response": "Gamma"}, {"stimulus": 79, "trial": 52, "rt": 289, "response": "Gamma"}, {"stimulus": 24, "trial": 53, "rt": 451, "response": "Gamma"}, {"stimulus": 41, "trial": 54, "rt": 414, "response": "Gamma"}, {"stimulus": 11, "trial": 55, "rt": 382, "response": "Gamma"}, {"stimulus": 30, "trial": 56, "rt": 411, "response": "Gamma"}, {"stimulus": 64, "trial": 57, "rt": 360, "response": "Gamma"}, {"stimulus": 67, "trial": 58, "rt": 301, "response": "Gamma"}, {"stimulus": 65, "trial": 59, "rt": 332, "response": "Gamma"}, {"stimulus": 42, "trial": 60, "rt": 335, "response": "Gamma"}, {"stimulus": 52, "trial": 61, "rt": 292, "response": "Gamma"}, {"stimulus": 10, "trial": 62, "rt": 337, "response": "Gamma"}, {"stimulus": 46, "trial": 63, "rt": 361, "response": "Gamma"}, {"stimulus": 36, "trial": 64, "rt": 457, "response": "Gamma"}, {"stimulus": 14, "trial": 65, "rt": 467, "response": "Gamma"}, {"stimulus": 48, "trial": 66, "rt": 322, "response": "Gamma"}, {"stimulus": 2, "trial": 67, "rt": 342, "response": "Gamma"}, {"stimulus": 45, "trial": 68, "rt": 385, "response": "Gamma"}, {"stimulus": 50, "trial": 69, "rt": 423, "response": "Gamma"}, {"stimulus": 32, "trial": 70, "rt": 357, "response": "Gamma"}, {"stimulus": 20, "trial": 71, "rt": 363, "response": "Gamma"}, {"stimulus": 62, "trial": 72, "rt": 301, "response": "Gamma"}, {"stimulus": 7, "trial": 73, "rt": 375, "response": "Gamma"}, {"stimulus": 55, "trial": 74, "rt": 294, "response": "Gamma"}, {"stimulus": 56, "trial": 75, "rt": 373, "response": "Gamma"}, {"stimulus": 27, "trial": 76, "rt": 11168, "response": "Gamma"}, {"stimulus": 76, "trial": 77, "rt": 382, "response": "Gamma"}, {"stimulus": 73, "trial": 78, "rt": 605, "response": "Gamma"}, {"stimulus": 0, "trial": 79, "rt": 511, "response": "Gamma"}, {"stimulus": 18, "trial": 80, "rt": 764, "response": "Gamma"}]}