{"info": {"finish": 1520922115291, "participant": 10, "exposed": true, "stimuli": [30, 32, 48, 50, 8, 80, 72, 0], "lab": false, "pptmatch": 10, "start": 1520921884364, "catflip": false, "categories": [0, 0, 0, 0, 1, 1, 1, 1], "counterbalance": 0, "condition": "Middle", "browser": {"platform": "Win32", "userAgent": "Mozilla/5.0 (Windows NT 10.0; Win64; x64) AppleWebKit/537.36 (KHTML, like Gecko) Chrome/64.0.3282.186 Safari/537.36"}}, "assignment": {"24": {"stimulus": 80, "trial": 24, "rt": 748, "correctcat": 1, "response": 1}, "25": {"stimulus": 8, "trial": 25, "rt": 776, "correctcat": 1, "response": 1}, "26": {"stimulus": 50, "trial": 26, "rt": 702, "correctcat": 0, "response": 0}, "27": {"stimulus": 30, "trial": 27, "rt": 1385, "correctcat": 0, "response": 0}, "20": {"stimulus": 32, "trial": 20, "rt": 675, "correctcat": 0, "response": 0}, "21": {"stimulus": 0, "trial": 21, "rt": 723, "correctcat": 1, "response": 1}, "22": {"stimulus": 50, "trial": 22, "rt": 888, "correctcat": 0, "response": 0}, "23": {"stimulus": 30, "trial": 23, "rt": 1122, "correctcat": 0, "response": 0}, "28": {"stimulus": 72, "trial": 28, "rt": 655, "correctcat": 1, "response": 1}, "29": {"stimulus": 32, "trial": 29, "rt": 1069, "correctcat": 0, "response": 0}, "1": {"stimulus": 72, "trial": 1, "rt": 1241, "correctcat": 1, "response": 1}, "0": {"stimulus": 32, "trial": 0, "rt": 1733, "correctcat": 0, "response": 0}, "3": {"stimulus": 50, "trial": 3, "rt": 1458, "correctcat": 0, "response": 0}, "2": {"stimulus": 30, "trial": 2, "rt": 859, "correctcat": 0, "response": 0}, "5": {"stimulus": 8, "trial": 5, "rt": 752, "correctcat": 1, "response": 0}, "4": {"stimulus": 80, "trial": 4, "rt": 723, "correctcat": 1, "response": 1}, "7": {"stimulus": 0, "trial": 7, "rt": 678, "correctcat": 1, "response": 1}, "6": {"stimulus": 48, "trial": 6, "rt": 1159, "correctcat": 0, "response": 0}, "9": {"stimulus": 80, "trial": 9, "rt": 1689, "correctcat": 1, "response": 1}, "8": {"stimulus": 8, "trial": 8, "rt": 1000, "correctcat": 1, "response": 1}, "11": {"stimulus": 30, "trial": 11, "rt": 986, "correctcat": 0, "response": 0}, "10": {"stimulus": 72, "trial": 10, "rt": 1013, "correctcat": 1, "response": 1}, "13": {"stimulus": 0, "trial": 13, "rt": 686, "correctcat": 1, "response": 1}, "12": {"stimulus": 50, "trial": 12, "rt": 842, "correctcat": 0, "response": 0}, "15": {"stimulus": 48, "trial": 15, "rt": 1119, "correctcat": 0, "response": 0}, "14": {"stimulus": 32, "trial": 14, "rt": 1432, "correctcat": 0, "response": 0}, "17": {"stimulus": 48, "trial": 17, "rt": 819, "correctcat": 0, "response": 0}, "16": {"stimulus": 80, "trial": 16, "rt": 850, "correctcat": 1, "response": 1}, "19": {"stimulus": 8, "trial": 19, "rt": 2151, "correctcat": 1, "response": 1}, "18": {"stimulus": 72, "trial": 18, "rt": 1307, "correctcat": 1, "response": 1}, "31": {"stimulus": 0, "trial": 31, "rt": 826, "correctcat": 1, "response": 1}, "30": {"stimulus": 48, "trial": 30, "rt": 1253, "correctcat": 0, "response": 0}}, "experiment": {"Paradigm": "TACL", "Stimuli": "Size-Color Squares", "Experiment": "Assigning-Generated-Categories"}, "goodness": {"1": {"stimulus": 30, "trial": 1, "categoryRate": "NA", "rt": 3049, "rating": 8}, "0": {"stimulus": 0, "trial": 0, "categoryRate": "NA", "rt": 5365, "rating": 0}, "3": {"stimulus": 32, "trial": 3, "categoryRate": "NA", "rt": 2876, "rating": 9}, "2": {"stimulus": 72, "trial": 2, "categoryRate": "NA", "rt": 2403, "rating": 8}, "5": {"stimulus": 50, "trial": 5, "categoryRate": "NA", "rt": 4863, "rating": 6}, "4": {"stimulus": 80, "trial": 4, "categoryRate": "NA", "rt": 2915, "rating": 9}, "7": {"stimulus": 48, "trial": 7, "categoryRate": "NA", "rt": 3072, "rating": 6}, "6": {"stimulus": 8, "trial": 6, "categoryRate": "NA", "rt": 1997, "rating": 0}, "9": {"stimulus": -1, "trial": 9, "categoryRate": "Beta", "rt": 24553, "rating": 5}, "8": {"stimulus": -1, "trial": 8, "categoryRate": "Alpha", "rt": 16215, "rating": 2}}, "submit": {"timeTotal": 238852, "age": "33", "comments": "", "sex": "m"}}