{"info": {"finish": 1521101485055, "participant": 106, "exposed": true, "stimuli": [30, 32, 48, 50, 70, 1, 0, 72], "lab": false, "pptmatch": 106, "start": 1521101238361, "catflip": false, "categories": [0, 0, 0, 0, 1, 1, 1, 1], "counterbalance": 6, "condition": "Middle", "browser": {"platform": "Win32", "userAgent": "Mozilla/5.0 (Windows NT 10.0; Win64; x64) AppleWebKit/537.36 (KHTML, like Gecko) Chrome/64.0.3282.186 Safari/537.36"}}, "assignment": {"24": {"stimulus": 0, "trial": 24, "rt": 919, "correctcat": 1, "response": 1}, "25": {"stimulus": 70, "trial": 25, "rt": 662, "correctcat": 1, "response": 1}, "26": {"stimulus": 30, "trial": 26, "rt": 1114, "correctcat": 0, "response": 0}, "27": {"stimulus": 50, "trial": 27, "rt": 710, "correctcat": 0, "response": 0}, "20": {"stimulus": 32, "trial": 20, "rt": 1042, "correctcat": 0, "response": 0}, "21": {"stimulus": 48, "trial": 21, "rt": 907, "correctcat": 0, "response": 0}, "22": {"stimulus": 50, "trial": 22, "rt": 887, "correctcat": 0, "response": 0}, "23": {"stimulus": 30, "trial": 23, "rt": 890, "correctcat": 0, "response": 0}, "28": {"stimulus": 1, "trial": 28, "rt": 932, "correctcat": 1, "response": 1}, "29": {"stimulus": 72, "trial": 29, "rt": 727, "correctcat": 1, "response": 1}, "1": {"stimulus": 32, "trial": 1, "rt": 1497, "correctcat": 0, "response": 0}, "0": {"stimulus": 1, "trial": 0, "rt": 2493, "correctcat": 1, "response": 0}, "3": {"stimulus": 48, "trial": 3, "rt": 1102, "correctcat": 0, "response": 0}, "2": {"stimulus": 0, "trial": 2, "rt": 1174, "correctcat": 1, "response": 1}, "5": {"stimulus": 70, "trial": 5, "rt": 1650, "correctcat": 1, "response": 0}, "4": {"stimulus": 30, "trial": 4, "rt": 949, "correctcat": 0, "response": 0}, "7": {"stimulus": 72, "trial": 7, "rt": 1431, "correctcat": 1, "response": 1}, "6": {"stimulus": 50, "trial": 6, "rt": 1224, "correctcat": 0, "response": 0}, "9": {"stimulus": 1, "trial": 9, "rt": 1032, "correctcat": 1, "response": 1}, "8": {"stimulus": 70, "trial": 8, "rt": 1080, "correctcat": 1, "response": 1}, "11": {"stimulus": 48, "trial": 11, "rt": 1092, "correctcat": 0, "response": 0}, "10": {"stimulus": 50, "trial": 10, "rt": 1653, "correctcat": 0, "response": 0}, "13": {"stimulus": 0, "trial": 13, "rt": 1041, "correctcat": 1, "response": 1}, "12": {"stimulus": 30, "trial": 12, "rt": 1060, "correctcat": 0, "response": 0}, "15": {"stimulus": 32, "trial": 15, "rt": 1262, "correctcat": 0, "response": 0}, "14": {"stimulus": 72, "trial": 14, "rt": 821, "correctcat": 1, "response": 1}, "17": {"stimulus": 0, "trial": 17, "rt": 903, "correctcat": 1, "response": 1}, "16": {"stimulus": 70, "trial": 16, "rt": 976, "correctcat": 1, "response": 1}, "19": {"stimulus": 72, "trial": 19, "rt": 737, "correctcat": 1, "response": 1}, "18": {"stimulus": 1, "trial": 18, "rt": 753, "correctcat": 1, "response": 1}, "31": {"stimulus": 48, "trial": 31, "rt": 883, "correctcat": 0, "response": 0}, "30": {"stimulus": 32, "trial": 30, "rt": 788, "correctcat": 0, "response": 0}}, "experiment": {"Paradigm": "TACL", "Stimuli": "Size-Color Squares", "Experiment": "Assigning-Generated-Categories"}, "goodness": {"1": {"stimulus": 32, "trial": 1, "categoryRate": "NA", "rt": 2698, "rating": 9}, "0": {"stimulus": 50, "trial": 0, "categoryRate": "NA", "rt": 12026, "rating": 7}, "3": {"stimulus": 0, "trial": 3, "categoryRate": "NA", "rt": 12651, "rating": 8}, "2": {"stimulus": 30, "trial": 2, "categoryRate": "NA", "rt": 3406, "rating": 8}, "5": {"stimulus": 48, "trial": 5, "categoryRate": "NA", "rt": 3685, "rating": 7}, "4": {"stimulus": 72, "trial": 4, "categoryRate": "NA", "rt": 2699, "rating": 8}, "7": {"stimulus": 1, "trial": 7, "categoryRate": "NA", "rt": 5448, "rating": 9}, "6": {"stimulus": 70, "trial": 6, "categoryRate": "NA", "rt": 2567, "rating": 3}, "9": {"stimulus": -1, "trial": 9, "categoryRate": "Beta", "rt": 6725, "rating": 7}, "8": {"stimulus": -1, "trial": 8, "categoryRate": "Alpha", "rt": 15708, "rating": 8}}, "submit": {"timeTotal": 246959, "age": "33", "comments": "", "sex": "female"}}