{"info": {"finish": 1521106258626, "participant": 117, "exposed": true, "stimuli": [12, 14, 30, 32, 12, 44, 72, 73], "lab": false, "pptmatch": 117, "start": 1521105966651, "catflip": false, "categories": [0, 0, 0, 0, 1, 1, 1, 1], "counterbalance": 2, "condition": "Bottom", "browser": {"platform": "Win32", "userAgent": "Mozilla/5.0 (Windows NT 10.0; Win64; x64) AppleWebKit/537.36 (KHTML, like Gecko) Chrome/64.0.3282.186 Safari/537.36"}}, "assignment": {"24": {"stimulus": 14, "trial": 24, "rt": 3434, "correctcat": 0, "response": 0}, "25": {"stimulus": 32, "trial": 25, "rt": 2430, "correctcat": 0, "response": 1}, "26": {"stimulus": 44, "trial": 26, "rt": 1410, "correctcat": 1, "response": 0}, "27": {"stimulus": 30, "trial": 27, "rt": 1620, "correctcat": 0, "response": 1}, "20": {"stimulus": 30, "trial": 20, "rt": 2491, "correctcat": 0, "response": 0}, "21": {"stimulus": 32, "trial": 21, "rt": 1640, "correctcat": 0, "response": 0}, "22": {"stimulus": 73, "trial": 22, "rt": 2151, "correctcat": 1, "response": 0}, "23": {"stimulus": 14, "trial": 23, "rt": 5307, "correctcat": 0, "response": 1}, "28": {"stimulus": 12, "trial": 28, "rt": 1384, "correctcat": 0, "response": 1}, "29": {"stimulus": 12, "trial": 29, "rt": 1585, "correctcat": 1, "response": 0}, "1": {"stimulus": 72, "trial": 1, "rt": 4748, "correctcat": 1, "response": 0}, "0": {"stimulus": 12, "trial": 0, "rt": 5283, "correctcat": 0, "response": 1}, "3": {"stimulus": 32, "trial": 3, "rt": 1941, "correctcat": 0, "response": 0}, "2": {"stimulus": 30, "trial": 2, "rt": 1966, "correctcat": 0, "response": 1}, "5": {"stimulus": 44, "trial": 5, "rt": 1405, "correctcat": 1, "response": 0}, "4": {"stimulus": 12, "trial": 4, "rt": 3636, "correctcat": 1, "response": 1}, "7": {"stimulus": 14, "trial": 7, "rt": 1390, "correctcat": 0, "response": 0}, "6": {"stimulus": 73, "trial": 6, "rt": 2033, "correctcat": 1, "response": 1}, "9": {"stimulus": 73, "trial": 9, "rt": 1473, "correctcat": 1, "response": 1}, "8": {"stimulus": 30, "trial": 8, "rt": 2144, "correctcat": 0, "response": 0}, "11": {"stimulus": 44, "trial": 11, "rt": 2102, "correctcat": 1, "response": 1}, "10": {"stimulus": 12, "trial": 10, "rt": 1578, "correctcat": 1, "response": 0}, "13": {"stimulus": 32, "trial": 13, "rt": 2359, "correctcat": 0, "response": 1}, "12": {"stimulus": 14, "trial": 12, "rt": 1291, "correctcat": 0, "response": 1}, "15": {"stimulus": 72, "trial": 15, "rt": 2026, "correctcat": 1, "response": 0}, "14": {"stimulus": 12, "trial": 14, "rt": 1851, "correctcat": 0, "response": 1}, "17": {"stimulus": 72, "trial": 17, "rt": 1788, "correctcat": 1, "response": 0}, "16": {"stimulus": 12, "trial": 16, "rt": 2995, "correctcat": 1, "response": 1}, "19": {"stimulus": 12, "trial": 19, "rt": 2206, "correctcat": 0, "response": 1}, "18": {"stimulus": 44, "trial": 18, "rt": 1322, "correctcat": 1, "response": 1}, "31": {"stimulus": 73, "trial": 31, "rt": 1355, "correctcat": 1, "response": 1}, "30": {"stimulus": 72, "trial": 30, "rt": 1323, "correctcat": 1, "response": 1}}, "experiment": {"Paradigm": "TACL", "Stimuli": "Size-Color Squares", "Experiment": "Assigning-Generated-Categories"}, "goodness": {"1": {"stimulus": 14, "trial": 1, "categoryRate": "NA", "rt": 2834, "rating": 3}, "0": {"stimulus": 44, "trial": 0, "categoryRate": "NA", "rt": 12264, "rating": 7}, "3": {"stimulus": 72, "trial": 3, "categoryRate": "NA", "rt": 2231, "rating": 6}, "2": {"stimulus": 30, "trial": 2, "categoryRate": "NA", "rt": 2130, "rating": 7}, "5": {"stimulus": 12, "trial": 5, "categoryRate": "NA", "rt": 3668, "rating": 2}, "4": {"stimulus": 12, "trial": 4, "categoryRate": "NA", "rt": 3525, "rating": 3}, "7": {"stimulus": 32, "trial": 7, "categoryRate": "NA", "rt": 3809, "rating": 4}, "6": {"stimulus": 73, "trial": 6, "categoryRate": "NA", "rt": 2580, "rating": 7}, "9": {"stimulus": -1, "trial": 9, "categoryRate": "Beta", "rt": 3098, "rating": 4}, "8": {"stimulus": -1, "trial": 8, "categoryRate": "Alpha", "rt": 13812, "rating": 6}}, "submit": {"timeTotal": 292188, "age": "56", "comments": "no idea, I swear you were changing the criteria...LOL", "sex": "female"}}