{"info": {"finish": 1521106189576, "participant": 118, "exposed": true, "stimuli": [12, 14, 30, 32, 74, 77, 64, 72], "lab": false, "pptmatch": 118, "start": 1521105969320, "catflip": false, "categories": [0, 0, 0, 0, 1, 1, 1, 1], "counterbalance": 0, "condition": "Bottom", "browser": {"platform": "Win32", "userAgent": "Mozilla/5.0 (Windows NT 6.1) AppleWebKit/537.36 (KHTML, like Gecko) Chrome/64.0.3282.186 Safari/537.36"}}, "assignment": {"24": {"stimulus": 30, "trial": 24, "rt": 894, "correctcat": 0, "response": 0}, "25": {"stimulus": 64, "trial": 25, "rt": 714, "correctcat": 1, "response": 1}, "26": {"stimulus": 32, "trial": 26, "rt": 654, "correctcat": 0, "response": 0}, "27": {"stimulus": 14, "trial": 27, "rt": 559, "correctcat": 0, "response": 0}, "20": {"stimulus": 32, "trial": 20, "rt": 768, "correctcat": 0, "response": 0}, "21": {"stimulus": 74, "trial": 21, "rt": 754, "correctcat": 1, "response": 1}, "22": {"stimulus": 77, "trial": 22, "rt": 725, "correctcat": 1, "response": 1}, "23": {"stimulus": 14, "trial": 23, "rt": 700, "correctcat": 0, "response": 0}, "28": {"stimulus": 77, "trial": 28, "rt": 633, "correctcat": 1, "response": 1}, "29": {"stimulus": 72, "trial": 29, "rt": 631, "correctcat": 1, "response": 1}, "1": {"stimulus": 72, "trial": 1, "rt": 1162, "correctcat": 1, "response": 1}, "0": {"stimulus": 77, "trial": 0, "rt": 1636, "correctcat": 1, "response": 0}, "3": {"stimulus": 14, "trial": 3, "rt": 869, "correctcat": 0, "response": 0}, "2": {"stimulus": 30, "trial": 2, "rt": 717, "correctcat": 0, "response": 0}, "5": {"stimulus": 12, "trial": 5, "rt": 733, "correctcat": 0, "response": 0}, "4": {"stimulus": 32, "trial": 4, "rt": 844, "correctcat": 0, "response": 0}, "7": {"stimulus": 74, "trial": 7, "rt": 1322, "correctcat": 1, "response": 1}, "6": {"stimulus": 64, "trial": 6, "rt": 940, "correctcat": 1, "response": 1}, "9": {"stimulus": 12, "trial": 9, "rt": 755, "correctcat": 0, "response": 0}, "8": {"stimulus": 30, "trial": 8, "rt": 934, "correctcat": 0, "response": 0}, "11": {"stimulus": 77, "trial": 11, "rt": 1033, "correctcat": 1, "response": 1}, "10": {"stimulus": 64, "trial": 10, "rt": 854, "correctcat": 1, "response": 1}, "13": {"stimulus": 14, "trial": 13, "rt": 619, "correctcat": 0, "response": 0}, "12": {"stimulus": 32, "trial": 12, "rt": 869, "correctcat": 0, "response": 0}, "15": {"stimulus": 72, "trial": 15, "rt": 782, "correctcat": 1, "response": 1}, "14": {"stimulus": 74, "trial": 14, "rt": 889, "correctcat": 1, "response": 1}, "17": {"stimulus": 72, "trial": 17, "rt": 801, "correctcat": 1, "response": 1}, "16": {"stimulus": 30, "trial": 16, "rt": 596, "correctcat": 0, "response": 0}, "19": {"stimulus": 12, "trial": 19, "rt": 684, "correctcat": 0, "response": 0}, "18": {"stimulus": 64, "trial": 18, "rt": 796, "correctcat": 1, "response": 1}, "31": {"stimulus": 74, "trial": 31, "rt": 700, "correctcat": 1, "response": 1}, "30": {"stimulus": 12, "trial": 30, "rt": 596, "correctcat": 0, "response": 0}}, "experiment": {"Paradigm": "TACL", "Stimuli": "Size-Color Squares", "Experiment": "Assigning-Generated-Categories"}, "goodness": {"1": {"stimulus": 72, "trial": 1, "categoryRate": "NA", "rt": 3087, "rating": 0}, "0": {"stimulus": 12, "trial": 0, "categoryRate": "NA", "rt": 10909, "rating": 10}, "3": {"stimulus": 30, "trial": 3, "categoryRate": "NA", "rt": 1727, "rating": 10}, "2": {"stimulus": 32, "trial": 2, "categoryRate": "NA", "rt": 1658, "rating": 10}, "5": {"stimulus": 64, "trial": 5, "categoryRate": "NA", "rt": 1775, "rating": 0}, "4": {"stimulus": 74, "trial": 4, "categoryRate": "NA", "rt": 2503, "rating": 0}, "7": {"stimulus": 14, "trial": 7, "categoryRate": "NA", "rt": 1390, "rating": 10}, "6": {"stimulus": 77, "trial": 6, "categoryRate": "NA", "rt": 1751, "rating": 0}, "9": {"stimulus": -1, "trial": 9, "categoryRate": "Beta", "rt": 4503, "rating": 10}, "8": {"stimulus": -1, "trial": 8, "categoryRate": "Alpha", "rt": 8452, "rating": 10}}, "submit": {"timeTotal": 220538, "age": "27", "comments": "ok", "sex": "M"}}