{"info": {"finish": 1521108398072, "participant": 128, "exposed": true, "stimuli": [12, 14, 30, 32, 73, 72, 75, 74], "lab": false, "pptmatch": 4, "start": 1521107783979, "catflip": true, "categories": [1, 1, 1, 1, 0, 0, 0, 0], "counterbalance": 0, "condition": "Bottom", "browser": {"platform": "Win32", "userAgent": "Mozilla/5.0 (Windows NT 10.0; Win64; x64) AppleWebKit/537.36 (KHTML, like Gecko) Chrome/64.0.3282.186 Safari/537.36"}}, "assignment": {"24": {"stimulus": 72, "trial": 24, "rt": 1459, "correctcat": 0, "response": 0}, "25": {"stimulus": 30, "trial": 25, "rt": 986, "correctcat": 1, "response": 1}, "26": {"stimulus": 32, "trial": 26, "rt": 1310, "correctcat": 1, "response": 1}, "27": {"stimulus": 74, "trial": 27, "rt": 1036, "correctcat": 0, "response": 0}, "20": {"stimulus": 72, "trial": 20, "rt": 1091, "correctcat": 0, "response": 0}, "21": {"stimulus": 12, "trial": 21, "rt": 1501, "correctcat": 1, "response": 1}, "22": {"stimulus": 32, "trial": 22, "rt": 1696, "correctcat": 1, "response": 1}, "23": {"stimulus": 75, "trial": 23, "rt": 1012, "correctcat": 0, "response": 0}, "28": {"stimulus": 75, "trial": 28, "rt": 1093, "correctcat": 0, "response": 0}, "29": {"stimulus": 12, "trial": 29, "rt": 1156, "correctcat": 1, "response": 1}, "1": {"stimulus": 75, "trial": 1, "rt": 1933, "correctcat": 0, "response": 0}, "0": {"stimulus": 14, "trial": 0, "rt": 4484, "correctcat": 1, "response": 1}, "3": {"stimulus": 12, "trial": 3, "rt": 980, "correctcat": 1, "response": 1}, "2": {"stimulus": 32, "trial": 2, "rt": 1959, "correctcat": 1, "response": 1}, "5": {"stimulus": 73, "trial": 5, "rt": 1226, "correctcat": 0, "response": 0}, "4": {"stimulus": 30, "trial": 4, "rt": 1459, "correctcat": 1, "response": 1}, "7": {"stimulus": 72, "trial": 7, "rt": 1002, "correctcat": 0, "response": 0}, "6": {"stimulus": 74, "trial": 6, "rt": 981, "correctcat": 0, "response": 0}, "9": {"stimulus": 12, "trial": 9, "rt": 1583, "correctcat": 1, "response": 1}, "8": {"stimulus": 14, "trial": 8, "rt": 1390, "correctcat": 1, "response": 1}, "11": {"stimulus": 32, "trial": 11, "rt": 1985, "correctcat": 1, "response": 1}, "10": {"stimulus": 72, "trial": 10, "rt": 1759, "correctcat": 0, "response": 0}, "13": {"stimulus": 75, "trial": 13, "rt": 969, "correctcat": 0, "response": 0}, "12": {"stimulus": 73, "trial": 12, "rt": 1325, "correctcat": 0, "response": 0}, "15": {"stimulus": 74, "trial": 15, "rt": 1029, "correctcat": 0, "response": 0}, "14": {"stimulus": 30, "trial": 14, "rt": 1260, "correctcat": 1, "response": 1}, "17": {"stimulus": 14, "trial": 17, "rt": 829, "correctcat": 1, "response": 1}, "16": {"stimulus": 74, "trial": 16, "rt": 1028, "correctcat": 0, "response": 0}, "19": {"stimulus": 73, "trial": 19, "rt": 1008, "correctcat": 0, "response": 0}, "18": {"stimulus": 30, "trial": 18, "rt": 1932, "correctcat": 1, "response": 1}, "31": {"stimulus": 14, "trial": 31, "rt": 2324, "correctcat": 1, "response": 1}, "30": {"stimulus": 73, "trial": 30, "rt": 1644, "correctcat": 0, "response": 0}}, "experiment": {"Paradigm": "TACL", "Stimuli": "Size-Color Squares", "Experiment": "Assigning-Generated-Categories"}, "goodness": {"1": {"stimulus": 74, "trial": 1, "categoryRate": "NA", "rt": 4353, "rating": 1}, "0": {"stimulus": 30, "trial": 0, "categoryRate": "NA", "rt": 18122, "rating": 9}, "3": {"stimulus": 12, "trial": 3, "categoryRate": "NA", "rt": 3262, "rating": 10}, "2": {"stimulus": 75, "trial": 2, "categoryRate": "NA", "rt": 2699, "rating": 2}, "5": {"stimulus": 73, "trial": 5, "categoryRate": "NA", "rt": 2277, "rating": 1}, "4": {"stimulus": 14, "trial": 4, "categoryRate": "NA", "rt": 2821, "rating": 9}, "7": {"stimulus": 32, "trial": 7, "categoryRate": "NA", "rt": 3890, "rating": 8}, "6": {"stimulus": 72, "trial": 6, "categoryRate": "NA", "rt": 2458, "rating": 1}, "9": {"stimulus": -1, "trial": 9, "categoryRate": "Alpha", "rt": 5136, "rating": 0}, "8": {"stimulus": -1, "trial": 8, "categoryRate": "Beta", "rt": 9554, "rating": 9}}, "submit": {"timeTotal": 614391, "age": "52", "comments": "I enjoyed doing this", "sex": "male"}}