{"info": {"finish": 1521124558815, "participant": 186, "exposed": true, "stimuli": [12, 14, 30, 32, 27, 63, 0, 9], "lab": false, "pptmatch": 56, "start": 1521124373099, "catflip": true, "categories": [1, 1, 1, 1, 0, 0, 0, 0], "counterbalance": 7, "condition": "Bottom", "browser": {"platform": "Win32", "userAgent": "Mozilla/5.0 (Windows NT 6.3; Win64; x64) AppleWebKit/537.36 (KHTML, like Gecko) Chrome/64.0.3282.140 Safari/537.36"}}, "assignment": {"24": {"stimulus": 30, "trial": 24, "rt": 864, "correctcat": 1, "response": 1}, "25": {"stimulus": 27, "trial": 25, "rt": 1987, "correctcat": 0, "response": 0}, "26": {"stimulus": 0, "trial": 26, "rt": 1134, "correctcat": 0, "response": 0}, "27": {"stimulus": 32, "trial": 27, "rt": 1448, "correctcat": 1, "response": 1}, "20": {"stimulus": 27, "trial": 20, "rt": 1009, "correctcat": 0, "response": 0}, "21": {"stimulus": 32, "trial": 21, "rt": 754, "correctcat": 1, "response": 1}, "22": {"stimulus": 0, "trial": 22, "rt": 875, "correctcat": 0, "response": 0}, "23": {"stimulus": 63, "trial": 23, "rt": 760, "correctcat": 0, "response": 0}, "28": {"stimulus": 63, "trial": 28, "rt": 1099, "correctcat": 0, "response": 0}, "29": {"stimulus": 9, "trial": 29, "rt": 705, "correctcat": 0, "response": 0}, "1": {"stimulus": 30, "trial": 1, "rt": 1395, "correctcat": 1, "response": 0}, "0": {"stimulus": 32, "trial": 0, "rt": 1815, "correctcat": 1, "response": 0}, "3": {"stimulus": 14, "trial": 3, "rt": 2076, "correctcat": 1, "response": 1}, "2": {"stimulus": 12, "trial": 2, "rt": 1075, "correctcat": 1, "response": 1}, "5": {"stimulus": 27, "trial": 5, "rt": 567, "correctcat": 0, "response": 0}, "4": {"stimulus": 0, "trial": 4, "rt": 1111, "correctcat": 0, "response": 0}, "7": {"stimulus": 63, "trial": 7, "rt": 553, "correctcat": 0, "response": 0}, "6": {"stimulus": 9, "trial": 6, "rt": 975, "correctcat": 0, "response": 0}, "9": {"stimulus": 12, "trial": 9, "rt": 799, "correctcat": 1, "response": 1}, "8": {"stimulus": 9, "trial": 8, "rt": 549, "correctcat": 0, "response": 0}, "11": {"stimulus": 27, "trial": 11, "rt": 724, "correctcat": 0, "response": 0}, "10": {"stimulus": 0, "trial": 10, "rt": 798, "correctcat": 0, "response": 0}, "13": {"stimulus": 14, "trial": 13, "rt": 470, "correctcat": 1, "response": 1}, "12": {"stimulus": 30, "trial": 12, "rt": 723, "correctcat": 1, "response": 1}, "15": {"stimulus": 32, "trial": 15, "rt": 642, "correctcat": 1, "response": 1}, "14": {"stimulus": 63, "trial": 14, "rt": 723, "correctcat": 0, "response": 0}, "17": {"stimulus": 9, "trial": 17, "rt": 852, "correctcat": 0, "response": 0}, "16": {"stimulus": 14, "trial": 16, "rt": 711, "correctcat": 1, "response": 1}, "19": {"stimulus": 30, "trial": 19, "rt": 960, "correctcat": 1, "response": 1}, "18": {"stimulus": 12, "trial": 18, "rt": 813, "correctcat": 1, "response": 1}, "31": {"stimulus": 14, "trial": 31, "rt": 3194, "correctcat": 1, "response": 1}, "30": {"stimulus": 12, "trial": 30, "rt": 1597, "correctcat": 1, "response": 1}}, "experiment": {"Paradigm": "TACL", "Stimuli": "Size-Color Squares", "Experiment": "Assigning-Generated-Categories"}, "goodness": {"1": {"stimulus": 30, "trial": 1, "categoryRate": "NA", "rt": 2046, "rating": 6}, "0": {"stimulus": 32, "trial": 0, "categoryRate": "NA", "rt": 18153, "rating": 7}, "3": {"stimulus": 63, "trial": 3, "categoryRate": "NA", "rt": 1899, "rating": 7}, "2": {"stimulus": 14, "trial": 2, "categoryRate": "NA", "rt": 3140, "rating": 9}, "5": {"stimulus": 27, "trial": 5, "categoryRate": "NA", "rt": 2117, "rating": 8}, "4": {"stimulus": 12, "trial": 4, "categoryRate": "NA", "rt": 3723, "rating": 4}, "7": {"stimulus": 9, "trial": 7, "categoryRate": "NA", "rt": 1761, "rating": 7}, "6": {"stimulus": 0, "trial": 6, "categoryRate": "NA", "rt": 3294, "rating": 7}, "9": {"stimulus": -1, "trial": 9, "categoryRate": "Beta", "rt": 2232, "rating": 6}, "8": {"stimulus": -1, "trial": 8, "categoryRate": "Alpha", "rt": 4481, "rating": 8}}, "submit": {"timeTotal": 185864, "age": "27", "comments": "", "sex": "male"}}