{"info": {"finish": 1520831389706, "participant": 189, "exposed": true, "stimuli": [12, 14, 30, 32, 71, 80, 52, 8], "lab": true, "pptmatch": 101, "start": 1520831294591, "catflip": false, "categories": [0, 0, 0, 0, 1, 1, 1, 1], "counterbalance": 4, "condition": "Bottom", "browser": {"platform": "MacIntel", "userAgent": "Mozilla/5.0 (Macintosh; Intel Mac OS X 10_12_6) AppleWebKit/537.36 (KHTML, like Gecko) Chrome/64.0.3282.186 Safari/537.36"}}, "assignment": {"24": {"stimulus": 30, "trial": 24, "rt": 294, "correctcat": 0, "response": 1}, "25": {"stimulus": 12, "trial": 25, "rt": 351, "correctcat": 0, "response": 1}, "26": {"stimulus": 71, "trial": 26, "rt": 341, "correctcat": 1, "response": 0}, "27": {"stimulus": 32, "trial": 27, "rt": 406, "correctcat": 0, "response": 1}, "20": {"stimulus": 12, "trial": 20, "rt": 301, "correctcat": 0, "response": 1}, "21": {"stimulus": 71, "trial": 21, "rt": 358, "correctcat": 1, "response": 0}, "22": {"stimulus": 80, "trial": 22, "rt": 397, "correctcat": 1, "response": 1}, "23": {"stimulus": 32, "trial": 23, "rt": 359, "correctcat": 0, "response": 0}, "28": {"stimulus": 52, "trial": 28, "rt": 374, "correctcat": 1, "response": 1}, "29": {"stimulus": 8, "trial": 29, "rt": 436, "correctcat": 1, "response": 1}, "1": {"stimulus": 80, "trial": 1, "rt": 812, "correctcat": 1, "response": 0}, "0": {"stimulus": 52, "trial": 0, "rt": 935, "correctcat": 1, "response": 1}, "3": {"stimulus": 12, "trial": 3, "rt": 756, "correctcat": 0, "response": 1}, "2": {"stimulus": 32, "trial": 2, "rt": 975, "correctcat": 0, "response": 1}, "5": {"stimulus": 71, "trial": 5, "rt": 410, "correctcat": 1, "response": 0}, "4": {"stimulus": 14, "trial": 4, "rt": 341, "correctcat": 0, "response": 1}, "7": {"stimulus": 30, "trial": 7, "rt": 439, "correctcat": 0, "response": 0}, "6": {"stimulus": 8, "trial": 6, "rt": 1509, "correctcat": 1, "response": 1}, "9": {"stimulus": 71, "trial": 9, "rt": 376, "correctcat": 1, "response": 1}, "8": {"stimulus": 14, "trial": 8, "rt": 488, "correctcat": 0, "response": 0}, "11": {"stimulus": 52, "trial": 11, "rt": 821, "correctcat": 1, "response": 1}, "10": {"stimulus": 30, "trial": 10, "rt": 371, "correctcat": 0, "response": 0}, "13": {"stimulus": 80, "trial": 13, "rt": 365, "correctcat": 1, "response": 1}, "12": {"stimulus": 8, "trial": 12, "rt": 372, "correctcat": 1, "response": 1}, "15": {"stimulus": 12, "trial": 15, "rt": 330, "correctcat": 0, "response": 1}, "14": {"stimulus": 32, "trial": 14, "rt": 447, "correctcat": 0, "response": 1}, "17": {"stimulus": 52, "trial": 17, "rt": 377, "correctcat": 1, "response": 1}, "16": {"stimulus": 8, "trial": 16, "rt": 435, "correctcat": 1, "response": 0}, "19": {"stimulus": 14, "trial": 19, "rt": 1321, "correctcat": 0, "response": 1}, "18": {"stimulus": 30, "trial": 18, "rt": 468, "correctcat": 0, "response": 0}, "31": {"stimulus": 14, "trial": 31, "rt": 383, "correctcat": 0, "response": 1}, "30": {"stimulus": 80, "trial": 30, "rt": 429, "correctcat": 1, "response": 1}}, "experiment": {"Paradigm": "TACL", "Stimuli": "Size-Color Squares", "Experiment": "Assigning-Generated-Categories"}, "goodness": {"1": {"stimulus": 14, "trial": 1, "categoryRate": "NA", "rt": 1486, "rating": 8}, "0": {"stimulus": 32, "trial": 0, "categoryRate": "NA", "rt": 1938, "rating": 7}, "3": {"stimulus": 30, "trial": 3, "categoryRate": "NA", "rt": 1805, "rating": 8}, "2": {"stimulus": 12, "trial": 2, "categoryRate": "NA", "rt": 1073, "rating": 8}, "5": {"stimulus": 71, "trial": 5, "categoryRate": "NA", "rt": 928, "rating": 8}, "4": {"stimulus": 52, "trial": 4, "categoryRate": "NA", "rt": 1219, "rating": 8}, "7": {"stimulus": 80, "trial": 7, "categoryRate": "NA", "rt": 1267, "rating": 8}, "6": {"stimulus": 8, "trial": 6, "categoryRate": "NA", "rt": 1262, "rating": 8}, "9": {"stimulus": -1, "trial": 9, "categoryRate": "Beta", "rt": 759, "rating": 7}, "8": {"stimulus": -1, "trial": 8, "categoryRate": "Alpha", "rt": 7707, "rating": 7}}, "submit": {}}