{"info": {"finish": 1521132066697, "participant": 194, "exposed": true, "stimuli": [30, 32, 48, 50, 80, 75, 8, 0], "lab": false, "pptmatch": 32, "start": 1521130666403, "catflip": false, "categories": [0, 0, 0, 0, 1, 1, 1, 1], "counterbalance": 3, "condition": "Middle", "browser": {"platform": "Win32", "userAgent": "Mozilla/5.0 (Windows NT 6.1; Win64; x64) AppleWebKit/537.36 (KHTML, like Gecko) Chrome/65.0.3325.162 Safari/537.36"}}, "assignment": {"24": {"stimulus": 75, "trial": 24, "rt": 1099, "correctcat": 1, "response": 1}, "25": {"stimulus": 48, "trial": 25, "rt": 1841, "correctcat": 0, "response": 1}, "26": {"stimulus": 30, "trial": 26, "rt": 1174, "correctcat": 0, "response": 0}, "27": {"stimulus": 0, "trial": 27, "rt": 1102, "correctcat": 1, "response": 0}, "20": {"stimulus": 75, "trial": 20, "rt": 871, "correctcat": 1, "response": 1}, "21": {"stimulus": 48, "trial": 21, "rt": 7325, "correctcat": 0, "response": 1}, "22": {"stimulus": 30, "trial": 22, "rt": 2493, "correctcat": 0, "response": 0}, "23": {"stimulus": 8, "trial": 23, "rt": 3639, "correctcat": 1, "response": 0}, "28": {"stimulus": 50, "trial": 28, "rt": 565, "correctcat": 0, "response": 1}, "29": {"stimulus": 80, "trial": 29, "rt": 4012, "correctcat": 1, "response": 1}, "1": {"stimulus": 80, "trial": 1, "rt": 1124, "correctcat": 1, "response": 1}, "0": {"stimulus": 30, "trial": 0, "rt": 1474, "correctcat": 0, "response": 0}, "3": {"stimulus": 48, "trial": 3, "rt": 1399, "correctcat": 0, "response": 0}, "2": {"stimulus": 50, "trial": 2, "rt": 1021, "correctcat": 0, "response": 0}, "5": {"stimulus": 8, "trial": 5, "rt": 806, "correctcat": 1, "response": 0}, "4": {"stimulus": 0, "trial": 4, "rt": 942, "correctcat": 1, "response": 0}, "7": {"stimulus": 32, "trial": 7, "rt": 974, "correctcat": 0, "response": 0}, "6": {"stimulus": 75, "trial": 6, "rt": 4790, "correctcat": 1, "response": 1}, "9": {"stimulus": 80, "trial": 9, "rt": 974, "correctcat": 1, "response": 1}, "8": {"stimulus": 8, "trial": 8, "rt": 1253, "correctcat": 1, "response": 0}, "11": {"stimulus": 0, "trial": 11, "rt": 1038, "correctcat": 1, "response": 0}, "10": {"stimulus": 30, "trial": 10, "rt": 998, "correctcat": 0, "response": 0}, "13": {"stimulus": 50, "trial": 13, "rt": 1511, "correctcat": 0, "response": 1}, "12": {"stimulus": 75, "trial": 12, "rt": 941, "correctcat": 1, "response": 1}, "15": {"stimulus": 48, "trial": 15, "rt": 631, "correctcat": 0, "response": 0}, "14": {"stimulus": 32, "trial": 14, "rt": 774, "correctcat": 0, "response": 0}, "17": {"stimulus": 50, "trial": 17, "rt": 502, "correctcat": 0, "response": 0}, "16": {"stimulus": 32, "trial": 16, "rt": 455, "correctcat": 0, "response": 0}, "19": {"stimulus": 80, "trial": 19, "rt": 1535, "correctcat": 1, "response": 1}, "18": {"stimulus": 0, "trial": 18, "rt": 6270, "correctcat": 1, "response": 0}, "31": {"stimulus": 8, "trial": 31, "rt": 1158, "correctcat": 1, "response": 1}, "30": {"stimulus": 32, "trial": 30, "rt": 3957, "correctcat": 0, "response": 0}}, "experiment": {"Paradigm": "TACL", "Stimuli": "Size-Color Squares", "Experiment": "Assigning-Generated-Categories"}, "goodness": {"1": {"stimulus": 75, "trial": 1, "categoryRate": "NA", "rt": 1652, "rating": 7}, "0": {"stimulus": 32, "trial": 0, "categoryRate": "NA", "rt": 4700, "rating": 8}, "3": {"stimulus": 48, "trial": 3, "categoryRate": "NA", "rt": 9476, "rating": 7}, "2": {"stimulus": 50, "trial": 2, "categoryRate": "NA", "rt": 1790, "rating": 7}, "5": {"stimulus": 8, "trial": 5, "categoryRate": "NA", "rt": 1493, "rating": 7}, "4": {"stimulus": 30, "trial": 4, "categoryRate": "NA", "rt": 3181, "rating": 6}, "7": {"stimulus": 80, "trial": 7, "categoryRate": "NA", "rt": 2677, "rating": 7}, "6": {"stimulus": 0, "trial": 6, "categoryRate": "NA", "rt": 1870, "rating": 3}, "9": {"stimulus": -1, "trial": 9, "categoryRate": "Beta", "rt": 6372, "rating": 1}, "8": {"stimulus": -1, "trial": 8, "categoryRate": "Alpha", "rt": 10372, "rating": 3}}, "submit": {"timeTotal": 1401306, "age": "32", "comments": "", "sex": "male"}}