{"info": {"finish": 1521131336810, "participant": 197, "exposed": true, "stimuli": [30, 32, 48, 50, 74, 78, 16, 3], "lab": false, "pptmatch": 18, "start": 1521131167152, "catflip": true, "categories": [1, 1, 1, 1, 0, 0, 0, 0], "counterbalance": 2, "condition": "Middle", "browser": {"platform": "Linux x86_64", "userAgent": "Mozilla/5.0 (X11; Linux x86_64) AppleWebKit/537.36 (KHTML, like Gecko) Chrome/65.0.3325.146 Safari/537.36"}}, "assignment": {"24": {"stimulus": 78, "trial": 24, "rt": 841, "correctcat": 0, "response": 0}, "25": {"stimulus": 3, "trial": 25, "rt": 957, "correctcat": 0, "response": 1}, "26": {"stimulus": 32, "trial": 26, "rt": 1196, "correctcat": 1, "response": 1}, "27": {"stimulus": 74, "trial": 27, "rt": 890, "correctcat": 0, "response": 1}, "20": {"stimulus": 50, "trial": 20, "rt": 2198, "correctcat": 1, "response": 1}, "21": {"stimulus": 48, "trial": 21, "rt": 1455, "correctcat": 1, "response": 0}, "22": {"stimulus": 78, "trial": 22, "rt": 374, "correctcat": 0, "response": 1}, "23": {"stimulus": 74, "trial": 23, "rt": 591, "correctcat": 0, "response": 0}, "28": {"stimulus": 50, "trial": 28, "rt": 870, "correctcat": 1, "response": 1}, "29": {"stimulus": 16, "trial": 29, "rt": 1081, "correctcat": 0, "response": 0}, "1": {"stimulus": 50, "trial": 1, "rt": 864, "correctcat": 1, "response": 1}, "0": {"stimulus": 78, "trial": 0, "rt": 3307, "correctcat": 0, "response": 0}, "3": {"stimulus": 3, "trial": 3, "rt": 1075, "correctcat": 0, "response": 1}, "2": {"stimulus": 48, "trial": 2, "rt": 590, "correctcat": 1, "response": 1}, "5": {"stimulus": 74, "trial": 5, "rt": 1010, "correctcat": 0, "response": 1}, "4": {"stimulus": 16, "trial": 4, "rt": 583, "correctcat": 0, "response": 0}, "7": {"stimulus": 32, "trial": 7, "rt": 674, "correctcat": 1, "response": 1}, "6": {"stimulus": 30, "trial": 6, "rt": 785, "correctcat": 1, "response": 0}, "9": {"stimulus": 48, "trial": 9, "rt": 646, "correctcat": 1, "response": 1}, "8": {"stimulus": 30, "trial": 8, "rt": 1513, "correctcat": 1, "response": 1}, "11": {"stimulus": 74, "trial": 11, "rt": 1165, "correctcat": 0, "response": 0}, "10": {"stimulus": 50, "trial": 10, "rt": 926, "correctcat": 1, "response": 1}, "13": {"stimulus": 78, "trial": 13, "rt": 903, "correctcat": 0, "response": 0}, "12": {"stimulus": 3, "trial": 12, "rt": 634, "correctcat": 0, "response": 1}, "15": {"stimulus": 32, "trial": 15, "rt": 1313, "correctcat": 1, "response": 1}, "14": {"stimulus": 16, "trial": 14, "rt": 1307, "correctcat": 0, "response": 1}, "17": {"stimulus": 3, "trial": 17, "rt": 456, "correctcat": 0, "response": 0}, "16": {"stimulus": 16, "trial": 16, "rt": 982, "correctcat": 0, "response": 1}, "19": {"stimulus": 30, "trial": 19, "rt": 403, "correctcat": 1, "response": 1}, "18": {"stimulus": 32, "trial": 18, "rt": 1815, "correctcat": 1, "response": 0}, "31": {"stimulus": 48, "trial": 31, "rt": 942, "correctcat": 1, "response": 0}, "30": {"stimulus": 30, "trial": 30, "rt": 718, "correctcat": 1, "response": 1}}, "experiment": {"Paradigm": "TACL", "Stimuli": "Size-Color Squares", "Experiment": "Assigning-Generated-Categories"}, "goodness": {"1": {"stimulus": 32, "trial": 1, "categoryRate": "NA", "rt": 2134, "rating": 4}, "0": {"stimulus": 16, "trial": 0, "categoryRate": "NA", "rt": 7768, "rating": 6}, "3": {"stimulus": 48, "trial": 3, "categoryRate": "NA", "rt": 2876, "rating": 7}, "2": {"stimulus": 78, "trial": 2, "categoryRate": "NA", "rt": 1468, "rating": 7}, "5": {"stimulus": 74, "trial": 5, "categoryRate": "NA", "rt": 1973, "rating": 6}, "4": {"stimulus": 3, "trial": 4, "categoryRate": "NA", "rt": 2833, "rating": 7}, "7": {"stimulus": 30, "trial": 7, "categoryRate": "NA", "rt": 1702, "rating": 4}, "6": {"stimulus": 50, "trial": 6, "categoryRate": "NA", "rt": 2054, "rating": 6}, "9": {"stimulus": -1, "trial": 9, "categoryRate": "Alpha", "rt": 1683, "rating": 6}, "8": {"stimulus": -1, "trial": 8, "categoryRate": "Beta", "rt": 5034, "rating": 6}}, "submit": {"timeTotal": 169967, "age": "28", "comments": "n/a", "sex": "male"}}