{"info": {"finish": 1521132537561, "participant": 200, "exposed": true, "stimuli": [12, 14, 30, 32, 67, 76, 80, 78], "lab": false, "pptmatch": 8, "start": 1521132241032, "catflip": false, "categories": [0, 0, 0, 0, 1, 1, 1, 1], "counterbalance": 2, "condition": "Bottom", "browser": {"platform": "Win32", "userAgent": "Mozilla/5.0 (Windows NT 6.1; Win64; x64) AppleWebKit/537.36 (KHTML, like Gecko) Chrome/64.0.3282.186 Safari/537.36"}}, "assignment": {"24": {"stimulus": 67, "trial": 24, "rt": 915, "correctcat": 1, "response": 1}, "25": {"stimulus": 80, "trial": 25, "rt": 1380, "correctcat": 1, "response": 1}, "26": {"stimulus": 32, "trial": 26, "rt": 934, "correctcat": 0, "response": 0}, "27": {"stimulus": 78, "trial": 27, "rt": 15633, "correctcat": 1, "response": 1}, "20": {"stimulus": 30, "trial": 20, "rt": 1005, "correctcat": 0, "response": 0}, "21": {"stimulus": 80, "trial": 21, "rt": 1113, "correctcat": 1, "response": 1}, "22": {"stimulus": 76, "trial": 22, "rt": 932, "correctcat": 1, "response": 1}, "23": {"stimulus": 12, "trial": 23, "rt": 1059, "correctcat": 0, "response": 0}, "28": {"stimulus": 12, "trial": 28, "rt": 22626, "correctcat": 0, "response": 0}, "29": {"stimulus": 76, "trial": 29, "rt": 8967, "correctcat": 1, "response": 1}, "1": {"stimulus": 14, "trial": 1, "rt": 1454, "correctcat": 0, "response": 1}, "0": {"stimulus": 30, "trial": 0, "rt": 3021, "correctcat": 0, "response": 0}, "3": {"stimulus": 32, "trial": 3, "rt": 1398, "correctcat": 0, "response": 0}, "2": {"stimulus": 12, "trial": 2, "rt": 1008, "correctcat": 0, "response": 0}, "5": {"stimulus": 78, "trial": 5, "rt": 1242, "correctcat": 1, "response": 1}, "4": {"stimulus": 67, "trial": 4, "rt": 933, "correctcat": 1, "response": 0}, "7": {"stimulus": 80, "trial": 7, "rt": 853, "correctcat": 1, "response": 1}, "6": {"stimulus": 76, "trial": 6, "rt": 941, "correctcat": 1, "response": 1}, "9": {"stimulus": 12, "trial": 9, "rt": 986, "correctcat": 0, "response": 0}, "8": {"stimulus": 78, "trial": 8, "rt": 2858, "correctcat": 1, "response": 1}, "11": {"stimulus": 14, "trial": 11, "rt": 4905, "correctcat": 0, "response": 0}, "10": {"stimulus": 30, "trial": 10, "rt": 890, "correctcat": 0, "response": 0}, "13": {"stimulus": 32, "trial": 13, "rt": 1144, "correctcat": 0, "response": 0}, "12": {"stimulus": 76, "trial": 12, "rt": 937, "correctcat": 1, "response": 1}, "15": {"stimulus": 80, "trial": 15, "rt": 1700, "correctcat": 1, "response": 1}, "14": {"stimulus": 67, "trial": 14, "rt": 5910, "correctcat": 1, "response": 0}, "17": {"stimulus": 67, "trial": 17, "rt": 3932, "correctcat": 1, "response": 0}, "16": {"stimulus": 78, "trial": 16, "rt": 948, "correctcat": 1, "response": 1}, "19": {"stimulus": 32, "trial": 19, "rt": 16117, "correctcat": 0, "response": 0}, "18": {"stimulus": 14, "trial": 18, "rt": 3641, "correctcat": 0, "response": 0}, "31": {"stimulus": 30, "trial": 31, "rt": 23669, "correctcat": 0, "response": 0}, "30": {"stimulus": 14, "trial": 30, "rt": 1090, "correctcat": 0, "response": 0}}, "experiment": {"Paradigm": "TACL", "Stimuli": "Size-Color Squares", "Experiment": "Assigning-Generated-Categories"}, "goodness": {"1": {"stimulus": 12, "trial": 1, "categoryRate": "NA", "rt": 2381, "rating": 6}, "0": {"stimulus": 32, "trial": 0, "categoryRate": "NA", "rt": 12850, "rating": 9}, "3": {"stimulus": 30, "trial": 3, "categoryRate": "NA", "rt": 2138, "rating": 8}, "2": {"stimulus": 67, "trial": 2, "categoryRate": "NA", "rt": 2539, "rating": 7}, "5": {"stimulus": 14, "trial": 5, "categoryRate": "NA", "rt": 2109, "rating": 7}, "4": {"stimulus": 80, "trial": 4, "categoryRate": "NA", "rt": 2078, "rating": 9}, "7": {"stimulus": 78, "trial": 7, "categoryRate": "NA", "rt": 1905, "rating": 9}, "6": {"stimulus": 76, "trial": 6, "categoryRate": "NA", "rt": 1879, "rating": 9}, "9": {"stimulus": -1, "trial": 9, "categoryRate": "Alpha", "rt": 4820, "rating": 9}, "8": {"stimulus": -1, "trial": 8, "categoryRate": "Beta", "rt": 9160, "rating": 9}}, "submit": {"timeTotal": 296807, "age": "44", "comments": "Thanks", "sex": "Male"}}