{"info": {"finish": 1521132495791, "participant": 201, "exposed": true, "stimuli": [12, 14, 30, 32, 64, 72, 36, 54], "lab": false, "pptmatch": 34, "start": 1521132283034, "catflip": false, "categories": [0, 0, 0, 0, 1, 1, 1, 1], "counterbalance": 6, "condition": "Bottom", "browser": {"platform": "Win32", "userAgent": "Mozilla/5.0 (Windows NT 10.0; Win64; x64) AppleWebKit/537.36 (KHTML, like Gecko) Chrome/65.0.3325.125 Safari/537.36"}}, "assignment": {"24": {"stimulus": 72, "trial": 24, "rt": 782, "correctcat": 1, "response": 1}, "25": {"stimulus": 30, "trial": 25, "rt": 753, "correctcat": 0, "response": 0}, "26": {"stimulus": 64, "trial": 26, "rt": 997, "correctcat": 1, "response": 1}, "27": {"stimulus": 36, "trial": 27, "rt": 1178, "correctcat": 1, "response": 1}, "20": {"stimulus": 32, "trial": 20, "rt": 560, "correctcat": 0, "response": 0}, "21": {"stimulus": 12, "trial": 21, "rt": 863, "correctcat": 0, "response": 0}, "22": {"stimulus": 36, "trial": 22, "rt": 1321, "correctcat": 1, "response": 1}, "23": {"stimulus": 14, "trial": 23, "rt": 812, "correctcat": 0, "response": 0}, "28": {"stimulus": 12, "trial": 28, "rt": 752, "correctcat": 0, "response": 0}, "29": {"stimulus": 32, "trial": 29, "rt": 885, "correctcat": 0, "response": 0}, "1": {"stimulus": 32, "trial": 1, "rt": 1918, "correctcat": 0, "response": 0}, "0": {"stimulus": 30, "trial": 0, "rt": 3071, "correctcat": 0, "response": 0}, "3": {"stimulus": 14, "trial": 3, "rt": 1294, "correctcat": 0, "response": 0}, "2": {"stimulus": 36, "trial": 2, "rt": 1739, "correctcat": 1, "response": 1}, "5": {"stimulus": 72, "trial": 5, "rt": 959, "correctcat": 1, "response": 1}, "4": {"stimulus": 12, "trial": 4, "rt": 1172, "correctcat": 0, "response": 0}, "7": {"stimulus": 64, "trial": 7, "rt": 1058, "correctcat": 1, "response": 1}, "6": {"stimulus": 54, "trial": 6, "rt": 1216, "correctcat": 1, "response": 1}, "9": {"stimulus": 32, "trial": 9, "rt": 1577, "correctcat": 0, "response": 0}, "8": {"stimulus": 36, "trial": 8, "rt": 2045, "correctcat": 1, "response": 1}, "11": {"stimulus": 12, "trial": 11, "rt": 1041, "correctcat": 0, "response": 0}, "10": {"stimulus": 54, "trial": 10, "rt": 1444, "correctcat": 1, "response": 1}, "13": {"stimulus": 14, "trial": 13, "rt": 783, "correctcat": 0, "response": 0}, "12": {"stimulus": 72, "trial": 12, "rt": 935, "correctcat": 1, "response": 1}, "15": {"stimulus": 64, "trial": 15, "rt": 854, "correctcat": 1, "response": 1}, "14": {"stimulus": 30, "trial": 14, "rt": 935, "correctcat": 0, "response": 0}, "17": {"stimulus": 30, "trial": 17, "rt": 1465, "correctcat": 0, "response": 0}, "16": {"stimulus": 54, "trial": 16, "rt": 833, "correctcat": 1, "response": 1}, "19": {"stimulus": 72, "trial": 19, "rt": 933, "correctcat": 1, "response": 1}, "18": {"stimulus": 64, "trial": 18, "rt": 804, "correctcat": 1, "response": 1}, "31": {"stimulus": 54, "trial": 31, "rt": 725, "correctcat": 1, "response": 1}, "30": {"stimulus": 14, "trial": 30, "rt": 865, "correctcat": 0, "response": 0}}, "experiment": {"Paradigm": "TACL", "Stimuli": "Size-Color Squares", "Experiment": "Assigning-Generated-Categories"}, "goodness": {"1": {"stimulus": 32, "trial": 1, "categoryRate": "NA", "rt": 3106, "rating": 9}, "0": {"stimulus": 12, "trial": 0, "categoryRate": "NA", "rt": 9699, "rating": 6}, "3": {"stimulus": 72, "trial": 3, "categoryRate": "NA", "rt": 4684, "rating": 10}, "2": {"stimulus": 14, "trial": 2, "categoryRate": "NA", "rt": 2914, "rating": 9}, "5": {"stimulus": 30, "trial": 5, "categoryRate": "NA", "rt": 3421, "rating": 6}, "4": {"stimulus": 64, "trial": 4, "categoryRate": "NA", "rt": 4349, "rating": 10}, "7": {"stimulus": 54, "trial": 7, "categoryRate": "NA", "rt": 3696, "rating": 7}, "6": {"stimulus": 36, "trial": 6, "categoryRate": "NA", "rt": 3307, "rating": 6}, "9": {"stimulus": -1, "trial": 9, "categoryRate": "Alpha", "rt": 6644, "rating": 9}, "8": {"stimulus": -1, "trial": 8, "categoryRate": "Beta", "rt": 11034, "rating": 9}}, "submit": {"timeTotal": 213041, "age": "32", "comments": "No comment", "sex": "female"}}