{"info": {"finish": 1521137222128, "participant": 208, "exposed": true, "stimuli": [30, 32, 48, 50, 35, 43, 8, 71], "lab": false, "pptmatch": 109, "start": 1521136972924, "catflip": true, "categories": [1, 1, 1, 1, 0, 0, 0, 0], "counterbalance": 3, "condition": "Middle", "browser": {"platform": "Win32", "userAgent": "Mozilla/5.0 (Windows NT 10.0; Win64; x64) AppleWebKit/537.36 (KHTML, like Gecko) Chrome/64.0.3282.186 Safari/537.36"}}, "assignment": {"24": {"stimulus": 43, "trial": 24, "rt": 943, "correctcat": 0, "response": 0}, "25": {"stimulus": 30, "trial": 25, "rt": 933, "correctcat": 1, "response": 1}, "26": {"stimulus": 48, "trial": 26, "rt": 1221, "correctcat": 1, "response": 1}, "27": {"stimulus": 71, "trial": 27, "rt": 1030, "correctcat": 0, "response": 0}, "20": {"stimulus": 30, "trial": 20, "rt": 950, "correctcat": 1, "response": 1}, "21": {"stimulus": 35, "trial": 21, "rt": 957, "correctcat": 0, "response": 0}, "22": {"stimulus": 71, "trial": 22, "rt": 1269, "correctcat": 0, "response": 0}, "23": {"stimulus": 43, "trial": 23, "rt": 949, "correctcat": 0, "response": 0}, "28": {"stimulus": 50, "trial": 28, "rt": 1006, "correctcat": 1, "response": 1}, "29": {"stimulus": 8, "trial": 29, "rt": 901, "correctcat": 0, "response": 0}, "1": {"stimulus": 50, "trial": 1, "rt": 3260, "correctcat": 1, "response": 1}, "0": {"stimulus": 71, "trial": 0, "rt": 3120, "correctcat": 0, "response": 1}, "3": {"stimulus": 48, "trial": 3, "rt": 1117, "correctcat": 1, "response": 1}, "2": {"stimulus": 8, "trial": 2, "rt": 1582, "correctcat": 0, "response": 1}, "5": {"stimulus": 30, "trial": 5, "rt": 1107, "correctcat": 1, "response": 1}, "4": {"stimulus": 43, "trial": 4, "rt": 1765, "correctcat": 0, "response": 0}, "7": {"stimulus": 35, "trial": 7, "rt": 1191, "correctcat": 0, "response": 0}, "6": {"stimulus": 32, "trial": 6, "rt": 1022, "correctcat": 1, "response": 0}, "9": {"stimulus": 8, "trial": 9, "rt": 1014, "correctcat": 0, "response": 0}, "8": {"stimulus": 43, "trial": 8, "rt": 1093, "correctcat": 0, "response": 0}, "11": {"stimulus": 71, "trial": 11, "rt": 1461, "correctcat": 0, "response": 0}, "10": {"stimulus": 50, "trial": 10, "rt": 943, "correctcat": 1, "response": 1}, "13": {"stimulus": 48, "trial": 13, "rt": 846, "correctcat": 1, "response": 1}, "12": {"stimulus": 30, "trial": 12, "rt": 1078, "correctcat": 1, "response": 1}, "15": {"stimulus": 32, "trial": 15, "rt": 1094, "correctcat": 1, "response": 1}, "14": {"stimulus": 35, "trial": 14, "rt": 942, "correctcat": 0, "response": 0}, "17": {"stimulus": 48, "trial": 17, "rt": 853, "correctcat": 1, "response": 1}, "16": {"stimulus": 50, "trial": 16, "rt": 942, "correctcat": 1, "response": 1}, "19": {"stimulus": 8, "trial": 19, "rt": 981, "correctcat": 0, "response": 0}, "18": {"stimulus": 32, "trial": 18, "rt": 743, "correctcat": 1, "response": 1}, "31": {"stimulus": 32, "trial": 31, "rt": 925, "correctcat": 1, "response": 1}, "30": {"stimulus": 35, "trial": 30, "rt": 877, "correctcat": 0, "response": 0}}, "experiment": {"Paradigm": "TACL", "Stimuli": "Size-Color Squares", "Experiment": "Assigning-Generated-Categories"}, "goodness": {"1": {"stimulus": 30, "trial": 1, "categoryRate": "NA", "rt": 4380, "rating": 10}, "0": {"stimulus": 71, "trial": 0, "categoryRate": "NA", "rt": 19019, "rating": 10}, "3": {"stimulus": 35, "trial": 3, "categoryRate": "NA", "rt": 3595, "rating": 10}, "2": {"stimulus": 32, "trial": 2, "categoryRate": "NA", "rt": 10950, "rating": 9}, "5": {"stimulus": 8, "trial": 5, "categoryRate": "NA", "rt": 2126, "rating": 10}, "4": {"stimulus": 50, "trial": 4, "categoryRate": "NA", "rt": 2950, "rating": 9}, "7": {"stimulus": 48, "trial": 7, "categoryRate": "NA", "rt": 6692, "rating": 9}, "6": {"stimulus": 43, "trial": 6, "categoryRate": "NA", "rt": 2461, "rating": 10}, "9": {"stimulus": -1, "trial": 9, "categoryRate": "Alpha", "rt": 8763, "rating": 9}, "8": {"stimulus": -1, "trial": 8, "categoryRate": "Beta", "rt": 22618, "rating": 9}}, "submit": {"timeTotal": 249412, "age": "37", "comments": "Thank you.", "sex": "female"}}