{"info": {"finish": 1521137462440, "participant": 210, "exposed": true, "stimuli": [12, 14, 30, 32, 70, 80, 79, 72], "lab": false, "pptmatch": 23, "start": 1521137283380, "catflip": false, "categories": [0, 0, 0, 0, 1, 1, 1, 1], "counterbalance": 1, "condition": "Bottom", "browser": {"platform": "Win32", "userAgent": "Mozilla/5.0 (Windows NT 6.1; Win64; x64) AppleWebKit/537.36 (KHTML, like Gecko) Chrome/65.0.3325.162 Safari/537.36"}}, "assignment": {"24": {"stimulus": 72, "trial": 24, "rt": 587, "correctcat": 1, "response": 1}, "25": {"stimulus": 14, "trial": 25, "rt": 796, "correctcat": 0, "response": 0}, "26": {"stimulus": 70, "trial": 26, "rt": 852, "correctcat": 1, "response": 1}, "27": {"stimulus": 80, "trial": 27, "rt": 704, "correctcat": 1, "response": 1}, "20": {"stimulus": 70, "trial": 20, "rt": 729, "correctcat": 1, "response": 1}, "21": {"stimulus": 14, "trial": 21, "rt": 811, "correctcat": 0, "response": 0}, "22": {"stimulus": 30, "trial": 22, "rt": 757, "correctcat": 0, "response": 0}, "23": {"stimulus": 80, "trial": 23, "rt": 775, "correctcat": 1, "response": 1}, "28": {"stimulus": 79, "trial": 28, "rt": 597, "correctcat": 1, "response": 1}, "29": {"stimulus": 32, "trial": 29, "rt": 1001, "correctcat": 0, "response": 0}, "1": {"stimulus": 14, "trial": 1, "rt": 1330, "correctcat": 0, "response": 0}, "0": {"stimulus": 80, "trial": 0, "rt": 1746, "correctcat": 1, "response": 0}, "3": {"stimulus": 30, "trial": 3, "rt": 976, "correctcat": 0, "response": 1}, "2": {"stimulus": 12, "trial": 2, "rt": 956, "correctcat": 0, "response": 0}, "5": {"stimulus": 72, "trial": 5, "rt": 1010, "correctcat": 1, "response": 1}, "4": {"stimulus": 79, "trial": 4, "rt": 1405, "correctcat": 1, "response": 1}, "7": {"stimulus": 32, "trial": 7, "rt": 1519, "correctcat": 0, "response": 0}, "6": {"stimulus": 70, "trial": 6, "rt": 1132, "correctcat": 1, "response": 1}, "9": {"stimulus": 32, "trial": 9, "rt": 1811, "correctcat": 0, "response": 0}, "8": {"stimulus": 80, "trial": 8, "rt": 840, "correctcat": 1, "response": 1}, "11": {"stimulus": 72, "trial": 11, "rt": 1186, "correctcat": 1, "response": 1}, "10": {"stimulus": 12, "trial": 10, "rt": 864, "correctcat": 0, "response": 0}, "13": {"stimulus": 30, "trial": 13, "rt": 1967, "correctcat": 0, "response": 0}, "12": {"stimulus": 79, "trial": 12, "rt": 1027, "correctcat": 1, "response": 1}, "15": {"stimulus": 14, "trial": 15, "rt": 989, "correctcat": 0, "response": 0}, "14": {"stimulus": 70, "trial": 14, "rt": 934, "correctcat": 1, "response": 1}, "17": {"stimulus": 79, "trial": 17, "rt": 979, "correctcat": 1, "response": 1}, "16": {"stimulus": 12, "trial": 16, "rt": 909, "correctcat": 0, "response": 0}, "19": {"stimulus": 72, "trial": 19, "rt": 975, "correctcat": 1, "response": 1}, "18": {"stimulus": 32, "trial": 18, "rt": 2366, "correctcat": 0, "response": 0}, "31": {"stimulus": 12, "trial": 31, "rt": 842, "correctcat": 0, "response": 0}, "30": {"stimulus": 30, "trial": 30, "rt": 1509, "correctcat": 0, "response": 0}}, "experiment": {"Paradigm": "TACL", "Stimuli": "Size-Color Squares", "Experiment": "Assigning-Generated-Categories"}, "goodness": {"1": {"stimulus": 80, "trial": 1, "categoryRate": "NA", "rt": 1697, "rating": 10}, "0": {"stimulus": 30, "trial": 0, "categoryRate": "NA", "rt": 3870, "rating": 4}, "3": {"stimulus": 70, "trial": 3, "categoryRate": "NA", "rt": 1517, "rating": 10}, "2": {"stimulus": 14, "trial": 2, "categoryRate": "NA", "rt": 5594, "rating": 0}, "5": {"stimulus": 72, "trial": 5, "categoryRate": "NA", "rt": 1415, "rating": 10}, "4": {"stimulus": 32, "trial": 4, "categoryRate": "NA", "rt": 3611, "rating": 4}, "7": {"stimulus": 79, "trial": 7, "categoryRate": "NA", "rt": 2072, "rating": 10}, "6": {"stimulus": 12, "trial": 6, "categoryRate": "NA", "rt": 1158, "rating": 10}, "9": {"stimulus": -1, "trial": 9, "categoryRate": "Alpha", "rt": 2150, "rating": 6}, "8": {"stimulus": -1, "trial": 8, "categoryRate": "Beta", "rt": 3606, "rating": 10}}, "submit": {"timeTotal": 179258, "age": "30", "comments": "", "sex": "female"}}