{"info": {"finish": 1521137573962, "participant": 212, "exposed": true, "stimuli": [30, 32, 48, 50, 80, 75, 8, 0], "lab": false, "pptmatch": 32, "start": 1521137344733, "catflip": true, "categories": [1, 1, 1, 1, 0, 0, 0, 0], "counterbalance": 3, "condition": "Middle", "browser": {"platform": "Win32", "userAgent": "Mozilla/5.0 (Windows NT 10.0; Win64; x64) AppleWebKit/537.36 (KHTML, like Gecko) Chrome/64.0.3282.186 Safari/537.36"}}, "assignment": {"24": {"stimulus": 80, "trial": 24, "rt": 551, "correctcat": 0, "response": 1}, "25": {"stimulus": 8, "trial": 25, "rt": 1904, "correctcat": 0, "response": 0}, "26": {"stimulus": 32, "trial": 26, "rt": 772, "correctcat": 1, "response": 0}, "27": {"stimulus": 48, "trial": 27, "rt": 294, "correctcat": 1, "response": 1}, "20": {"stimulus": 75, "trial": 20, "rt": 847, "correctcat": 0, "response": 1}, "21": {"stimulus": 50, "trial": 21, "rt": 382, "correctcat": 1, "response": 0}, "22": {"stimulus": 80, "trial": 22, "rt": 359, "correctcat": 0, "response": 0}, "23": {"stimulus": 48, "trial": 23, "rt": 446, "correctcat": 1, "response": 1}, "28": {"stimulus": 75, "trial": 28, "rt": 446, "correctcat": 0, "response": 1}, "29": {"stimulus": 50, "trial": 29, "rt": 4950, "correctcat": 1, "response": 0}, "1": {"stimulus": 50, "trial": 1, "rt": 2277, "correctcat": 1, "response": 1}, "0": {"stimulus": 48, "trial": 0, "rt": 74578, "correctcat": 1, "response": 0}, "3": {"stimulus": 80, "trial": 3, "rt": 799, "correctcat": 0, "response": 0}, "2": {"stimulus": 0, "trial": 2, "rt": 887, "correctcat": 0, "response": 0}, "5": {"stimulus": 8, "trial": 5, "rt": 960, "correctcat": 0, "response": 0}, "4": {"stimulus": 30, "trial": 4, "rt": 901, "correctcat": 1, "response": 1}, "7": {"stimulus": 75, "trial": 7, "rt": 4542, "correctcat": 0, "response": 0}, "6": {"stimulus": 32, "trial": 6, "rt": 1541, "correctcat": 1, "response": 1}, "9": {"stimulus": 32, "trial": 9, "rt": 543, "correctcat": 1, "response": 0}, "8": {"stimulus": 8, "trial": 8, "rt": 1302, "correctcat": 0, "response": 1}, "11": {"stimulus": 48, "trial": 11, "rt": 431, "correctcat": 1, "response": 1}, "10": {"stimulus": 0, "trial": 10, "rt": 549, "correctcat": 0, "response": 1}, "13": {"stimulus": 30, "trial": 13, "rt": 342, "correctcat": 1, "response": 0}, "12": {"stimulus": 80, "trial": 12, "rt": 416, "correctcat": 0, "response": 1}, "15": {"stimulus": 50, "trial": 15, "rt": 2693, "correctcat": 1, "response": 0}, "14": {"stimulus": 75, "trial": 14, "rt": 428, "correctcat": 0, "response": 1}, "17": {"stimulus": 8, "trial": 17, "rt": 959, "correctcat": 0, "response": 0}, "16": {"stimulus": 0, "trial": 16, "rt": 398, "correctcat": 0, "response": 0}, "19": {"stimulus": 32, "trial": 19, "rt": 750, "correctcat": 1, "response": 1}, "18": {"stimulus": 30, "trial": 18, "rt": 1798, "correctcat": 1, "response": 0}, "31": {"stimulus": 30, "trial": 31, "rt": 461, "correctcat": 1, "response": 0}, "30": {"stimulus": 0, "trial": 30, "rt": 365, "correctcat": 0, "response": 1}}, "experiment": {"Paradigm": "TACL", "Stimuli": "Size-Color Squares", "Experiment": "Assigning-Generated-Categories"}, "goodness": {"1": {"stimulus": 8, "trial": 1, "categoryRate": "NA", "rt": 3317, "rating": 4}, "0": {"stimulus": 0, "trial": 0, "categoryRate": "NA", "rt": 2173, "rating": 7}, "3": {"stimulus": 32, "trial": 3, "categoryRate": "NA", "rt": 965, "rating": 7}, "2": {"stimulus": 48, "trial": 2, "categoryRate": "NA", "rt": 1269, "rating": 2}, "5": {"stimulus": 30, "trial": 5, "categoryRate": "NA", "rt": 1413, "rating": 6}, "4": {"stimulus": 50, "trial": 4, "categoryRate": "NA", "rt": 1092, "rating": 9}, "7": {"stimulus": 75, "trial": 7, "categoryRate": "NA", "rt": 3685, "rating": 8}, "6": {"stimulus": 80, "trial": 6, "categoryRate": "NA", "rt": 1541, "rating": 3}, "9": {"stimulus": -1, "trial": 9, "categoryRate": "Beta", "rt": 1293, "rating": 3}, "8": {"stimulus": -1, "trial": 8, "categoryRate": "Alpha", "rt": 2851, "rating": 8}}, "submit": {"timeTotal": 229444, "age": "27", "comments": "", "sex": "male"}}