{"info": {"finish": 1521139151721, "participant": 216, "exposed": true, "stimuli": [12, 14, 30, 32, 64, 72, 36, 54], "lab": false, "pptmatch": 34, "start": 1521138962042, "catflip": true, "categories": [1, 1, 1, 1, 0, 0, 0, 0], "counterbalance": 6, "condition": "Bottom", "browser": {"platform": "MacIntel", "userAgent": "Mozilla/5.0 (Macintosh; Intel Mac OS X 10.12; rv:57.0) Gecko/20100101 Firefox/57.0"}}, "assignment": {"24": {"stimulus": 36, "trial": 24, "rt": 791, "correctcat": 0, "response": 0}, "25": {"stimulus": 64, "trial": 25, "rt": 1138, "correctcat": 0, "response": 0}, "26": {"stimulus": 32, "trial": 26, "rt": 808, "correctcat": 1, "response": 1}, "27": {"stimulus": 72, "trial": 27, "rt": 1956, "correctcat": 0, "response": 0}, "20": {"stimulus": 36, "trial": 20, "rt": 1038, "correctcat": 0, "response": 0}, "21": {"stimulus": 32, "trial": 21, "rt": 897, "correctcat": 1, "response": 1}, "22": {"stimulus": 12, "trial": 22, "rt": 843, "correctcat": 1, "response": 1}, "23": {"stimulus": 54, "trial": 23, "rt": 545, "correctcat": 0, "response": 0}, "28": {"stimulus": 54, "trial": 28, "rt": 533, "correctcat": 0, "response": 0}, "29": {"stimulus": 14, "trial": 29, "rt": 945, "correctcat": 1, "response": 1}, "1": {"stimulus": 32, "trial": 1, "rt": 477, "correctcat": 1, "response": 1}, "0": {"stimulus": 30, "trial": 0, "rt": 1402, "correctcat": 1, "response": 0}, "3": {"stimulus": 72, "trial": 3, "rt": 724, "correctcat": 0, "response": 0}, "2": {"stimulus": 54, "trial": 2, "rt": 6624, "correctcat": 0, "response": 0}, "5": {"stimulus": 14, "trial": 5, "rt": 864, "correctcat": 1, "response": 1}, "4": {"stimulus": 36, "trial": 4, "rt": 565, "correctcat": 0, "response": 1}, "7": {"stimulus": 12, "trial": 7, "rt": 440, "correctcat": 1, "response": 0}, "6": {"stimulus": 64, "trial": 6, "rt": 486, "correctcat": 0, "response": 0}, "9": {"stimulus": 32, "trial": 9, "rt": 628, "correctcat": 1, "response": 1}, "8": {"stimulus": 54, "trial": 8, "rt": 1284, "correctcat": 0, "response": 0}, "11": {"stimulus": 12, "trial": 11, "rt": 671, "correctcat": 1, "response": 1}, "10": {"stimulus": 30, "trial": 10, "rt": 848, "correctcat": 1, "response": 1}, "13": {"stimulus": 72, "trial": 13, "rt": 1027, "correctcat": 0, "response": 0}, "12": {"stimulus": 14, "trial": 12, "rt": 826, "correctcat": 1, "response": 1}, "15": {"stimulus": 64, "trial": 15, "rt": 447, "correctcat": 0, "response": 0}, "14": {"stimulus": 36, "trial": 14, "rt": 511, "correctcat": 0, "response": 0}, "17": {"stimulus": 30, "trial": 17, "rt": 6337, "correctcat": 1, "response": 1}, "16": {"stimulus": 72, "trial": 16, "rt": 523, "correctcat": 0, "response": 0}, "19": {"stimulus": 64, "trial": 19, "rt": 1565, "correctcat": 0, "response": 0}, "18": {"stimulus": 14, "trial": 18, "rt": 3366, "correctcat": 1, "response": 1}, "31": {"stimulus": 12, "trial": 31, "rt": 836, "correctcat": 1, "response": 1}, "30": {"stimulus": 30, "trial": 30, "rt": 890, "correctcat": 1, "response": 1}}, "experiment": {"Paradigm": "TACL", "Stimuli": "Size-Color Squares", "Experiment": "Assigning-Generated-Categories"}, "goodness": {"1": {"stimulus": 14, "trial": 1, "categoryRate": "NA", "rt": 2004, "rating": 7}, "0": {"stimulus": 72, "trial": 0, "categoryRate": "NA", "rt": 11804, "rating": 10}, "3": {"stimulus": 36, "trial": 3, "categoryRate": "NA", "rt": 1896, "rating": 10}, "2": {"stimulus": 64, "trial": 2, "categoryRate": "NA", "rt": 1346, "rating": 8}, "5": {"stimulus": 32, "trial": 5, "categoryRate": "NA", "rt": 1862, "rating": 10}, "4": {"stimulus": 54, "trial": 4, "categoryRate": "NA", "rt": 1600, "rating": 10}, "7": {"stimulus": 30, "trial": 7, "categoryRate": "NA", "rt": 1728, "rating": 8}, "6": {"stimulus": 12, "trial": 6, "categoryRate": "NA", "rt": 1381, "rating": 8}, "9": {"stimulus": -1, "trial": 9, "categoryRate": "Alpha", "rt": 2329, "rating": 9}, "8": {"stimulus": -1, "trial": 8, "categoryRate": "Beta", "rt": 5621, "rating": 9}}, "submit": {}}