{"info": {"participant": 22, "exposed": true, "stimuli": [12, 14, 30, 32, 0, 72, 80, 79], "lab": true, "pptmatch": 22, "start": 1520321392176, "catflip": true, "categories": [1, 1, 1, 1, 0, 0, 0, 0], "counterbalance": 4, "condition": "Bottom", "browser": {"platform": "MacIntel", "userAgent": "Mozilla/5.0 (Macintosh; Intel Mac OS X 10_12_6) AppleWebKit/537.36 (KHTML, like Gecko) Chrome/64.0.3282.186 Safari/537.36"}}, "assignment": {"20": {"stimulus": 72, "trial": 20, "rt": 297, "correctcat": 0, "response": "Beta"}, "21": {"stimulus": 79, "trial": 21, "rt": 319, "correctcat": 0, "response": "Beta"}, "22": {"stimulus": 12, "trial": 22, "rt": 362, "correctcat": 1, "response": "Beta"}, "23": {"stimulus": 14, "trial": 23, "rt": 326, "correctcat": 1, "response": "Alpha"}, "1": {"stimulus": 80, "trial": 1, "rt": 379, "correctcat": 0, "response": "Alpha"}, "0": {"stimulus": 80, "trial": 0, "rt": 2274, "correctcat": 0, "response": "Alpha"}, "3": {"stimulus": 72, "trial": 3, "rt": 390, "correctcat": 0, "response": "Alpha"}, "2": {"stimulus": 12, "trial": 2, "rt": 531, "correctcat": 1, "response": "Beta"}, "5": {"stimulus": 32, "trial": 5, "rt": 373, "correctcat": 1, "response": "Beta"}, "4": {"stimulus": 30, "trial": 4, "rt": 445, "correctcat": 1, "response": "Beta"}, "7": {"stimulus": 14, "trial": 7, "rt": 403, "correctcat": 1, "response": "Beta"}, "6": {"stimulus": 30, "trial": 6, "rt": 349, "correctcat": 1, "response": "Beta"}, "9": {"stimulus": 12, "trial": 9, "rt": 328, "correctcat": 1, "response": "Beta"}, "8": {"stimulus": 30, "trial": 8, "rt": 382, "correctcat": 1, "response": "Alpha"}, "11": {"stimulus": 0, "trial": 11, "rt": 423, "correctcat": 0, "response": "Beta"}, "10": {"stimulus": 72, "trial": 10, "rt": 402, "correctcat": 0, "response": "Beta"}, "13": {"stimulus": 32, "trial": 13, "rt": 357, "correctcat": 1, "response": "Beta"}, "12": {"stimulus": 0, "trial": 12, "rt": 327, "correctcat": 0, "response": "Beta"}, "15": {"stimulus": 79, "trial": 15, "rt": 335, "correctcat": 0, "response": "Beta"}, "14": {"stimulus": 79, "trial": 14, "rt": 319, "correctcat": 0, "response": "Beta"}, "17": {"stimulus": 32, "trial": 17, "rt": 308, "correctcat": 1, "response": "Beta"}, "16": {"stimulus": 0, "trial": 16, "rt": 355, "correctcat": 0, "response": "Beta"}, "19": {"stimulus": 80, "trial": 19, "rt": 331, "correctcat": 0, "response": "Beta"}, "18": {"stimulus": 14, "trial": 18, "rt": 345, "correctcat": 1, "response": "Beta"}}, "experiment": {"Paradigm": "TACL", "Stimuli": "Size-Color Squares", "Experiment": "Assigning-Generated-Categories"}, "observation": {"20": {"stimulus": 12, "trial": 20, "rt": 918}, "21": {"stimulus": 14, "trial": 21, "rt": 1329}, "22": {"stimulus": 30, "trial": 22, "rt": 912}, "23": {"stimulus": 32, "trial": 23, "rt": 870}, "1": {"stimulus": 80, "trial": 1, "rt": 941}, "0": {"stimulus": 72, "trial": 0, "rt": 1041}, "3": {"stimulus": 79, "trial": 3, "rt": 864}, "2": {"stimulus": 0, "trial": 2, "rt": 890}, "5": {"stimulus": 72, "trial": 5, "rt": 725}, "4": {"stimulus": 0, "trial": 4, "rt": 887}, "7": {"stimulus": 80, "trial": 7, "rt": 826}, "6": {"stimulus": 79, "trial": 6, "rt": 793}, "9": {"stimulus": 72, "trial": 9, "rt": 802}, "8": {"stimulus": 79, "trial": 8, "rt": 804}, "11": {"stimulus": 0, "trial": 11, "rt": 810}, "10": {"stimulus": 80, "trial": 10, "rt": 867}, "13": {"stimulus": 30, "trial": 13, "rt": 835}, "12": {"stimulus": 14, "trial": 12, "rt": 959}, "15": {"stimulus": 32, "trial": 15, "rt": 887}, "14": {"stimulus": 12, "trial": 14, "rt": 936}, "17": {"stimulus": 30, "trial": 17, "rt": 2028}, "16": {"stimulus": 14, "trial": 16, "rt": 1530}, "19": {"stimulus": 32, "trial": 19, "rt": 872}, "18": {"stimulus": 12, "trial": 18, "rt": 1069}}}