{"info": {"finish": 1521143432237, "participant": 225, "exposed": true, "stimuli": [12, 14, 30, 32, 72, 79, 66, 76], "lab": false, "pptmatch": 35, "start": 1521143186626, "catflip": false, "categories": [0, 0, 0, 0, 1, 1, 1, 1], "counterbalance": 3, "condition": "Bottom", "browser": {"platform": "Win32", "userAgent": "Mozilla/5.0 (Windows NT 10.0; Win64; x64) AppleWebKit/537.36 (KHTML, like Gecko) Chrome/64.0.3282.186 Safari/537.36"}}, "assignment": {"24": {"stimulus": 30, "trial": 24, "rt": 1301, "correctcat": 0, "response": 0}, "25": {"stimulus": 12, "trial": 25, "rt": 1007, "correctcat": 0, "response": 0}, "26": {"stimulus": 66, "trial": 26, "rt": 1027, "correctcat": 1, "response": 1}, "27": {"stimulus": 76, "trial": 27, "rt": 854, "correctcat": 1, "response": 1}, "20": {"stimulus": 32, "trial": 20, "rt": 867, "correctcat": 0, "response": 0}, "21": {"stimulus": 66, "trial": 21, "rt": 899, "correctcat": 1, "response": 1}, "22": {"stimulus": 76, "trial": 22, "rt": 1670, "correctcat": 1, "response": 1}, "23": {"stimulus": 14, "trial": 23, "rt": 1044, "correctcat": 0, "response": 0}, "28": {"stimulus": 14, "trial": 28, "rt": 826, "correctcat": 0, "response": 0}, "29": {"stimulus": 79, "trial": 29, "rt": 714, "correctcat": 1, "response": 1}, "1": {"stimulus": 30, "trial": 1, "rt": 2891, "correctcat": 0, "response": 0}, "0": {"stimulus": 14, "trial": 0, "rt": 3049, "correctcat": 0, "response": 1}, "3": {"stimulus": 72, "trial": 3, "rt": 4428, "correctcat": 1, "response": 1}, "2": {"stimulus": 66, "trial": 2, "rt": 3939, "correctcat": 1, "response": 1}, "5": {"stimulus": 79, "trial": 5, "rt": 3095, "correctcat": 1, "response": 0}, "4": {"stimulus": 12, "trial": 4, "rt": 1573, "correctcat": 0, "response": 0}, "7": {"stimulus": 76, "trial": 7, "rt": 2316, "correctcat": 1, "response": 1}, "6": {"stimulus": 32, "trial": 6, "rt": 1671, "correctcat": 0, "response": 0}, "9": {"stimulus": 12, "trial": 9, "rt": 1528, "correctcat": 0, "response": 0}, "8": {"stimulus": 76, "trial": 8, "rt": 1555, "correctcat": 1, "response": 1}, "11": {"stimulus": 14, "trial": 11, "rt": 2283, "correctcat": 0, "response": 1}, "10": {"stimulus": 30, "trial": 10, "rt": 2594, "correctcat": 0, "response": 0}, "13": {"stimulus": 66, "trial": 13, "rt": 2002, "correctcat": 1, "response": 1}, "12": {"stimulus": 32, "trial": 12, "rt": 1325, "correctcat": 0, "response": 0}, "15": {"stimulus": 79, "trial": 15, "rt": 2250, "correctcat": 1, "response": 1}, "14": {"stimulus": 72, "trial": 14, "rt": 1609, "correctcat": 1, "response": 1}, "17": {"stimulus": 72, "trial": 17, "rt": 1455, "correctcat": 1, "response": 1}, "16": {"stimulus": 30, "trial": 16, "rt": 1640, "correctcat": 0, "response": 0}, "19": {"stimulus": 79, "trial": 19, "rt": 1197, "correctcat": 1, "response": 1}, "18": {"stimulus": 12, "trial": 18, "rt": 1018, "correctcat": 0, "response": 0}, "31": {"stimulus": 32, "trial": 31, "rt": 999, "correctcat": 0, "response": 0}, "30": {"stimulus": 72, "trial": 30, "rt": 950, "correctcat": 1, "response": 1}}, "experiment": {"Paradigm": "TACL", "Stimuli": "Size-Color Squares", "Experiment": "Assigning-Generated-Categories"}, "goodness": {"1": {"stimulus": 14, "trial": 1, "categoryRate": "NA", "rt": 3825, "rating": 10}, "0": {"stimulus": 79, "trial": 0, "categoryRate": "NA", "rt": 13428, "rating": 10}, "3": {"stimulus": 12, "trial": 3, "categoryRate": "NA", "rt": 3539, "rating": 10}, "2": {"stimulus": 76, "trial": 2, "categoryRate": "NA", "rt": 3266, "rating": 10}, "5": {"stimulus": 30, "trial": 5, "categoryRate": "NA", "rt": 2660, "rating": 7}, "4": {"stimulus": 32, "trial": 4, "categoryRate": "NA", "rt": 6393, "rating": 7}, "7": {"stimulus": 66, "trial": 7, "categoryRate": "NA", "rt": 4078, "rating": 7}, "6": {"stimulus": 72, "trial": 6, "categoryRate": "NA", "rt": 2705, "rating": 10}, "9": {"stimulus": -1, "trial": 9, "categoryRate": "Alpha", "rt": 5017, "rating": 10}, "8": {"stimulus": -1, "trial": 8, "categoryRate": "Beta", "rt": 16352, "rating": 10}}, "submit": {"timeTotal": 245999, "age": "41", "comments": "I liked this hit! Easy to learn and finish! Thanks! :-)", "sex": "Female"}}