{"info": {"finish": 1521143646699, "participant": 228, "exposed": true, "stimuli": [30, 32, 48, 50, 35, 43, 8, 71], "lab": false, "pptmatch": 109, "start": 1521143364463, "catflip": true, "categories": [1, 1, 1, 1, 0, 0, 0, 0], "counterbalance": 3, "condition": "Middle", "browser": {"platform": "MacIntel", "userAgent": "Mozilla/5.0 (Macintosh; Intel Mac OS X 10_13_3) AppleWebKit/537.36 (KHTML, like Gecko) Chrome/65.0.3325.162 Safari/537.36"}}, "assignment": {"24": {"stimulus": 30, "trial": 24, "rt": 555, "correctcat": 1, "response": 1}, "25": {"stimulus": 48, "trial": 25, "rt": 485, "correctcat": 1, "response": 1}, "26": {"stimulus": 32, "trial": 26, "rt": 473, "correctcat": 1, "response": 1}, "27": {"stimulus": 8, "trial": 27, "rt": 445, "correctcat": 0, "response": 1}, "20": {"stimulus": 30, "trial": 20, "rt": 807, "correctcat": 1, "response": 0}, "21": {"stimulus": 50, "trial": 21, "rt": 2370, "correctcat": 1, "response": 0}, "22": {"stimulus": 8, "trial": 22, "rt": 1245, "correctcat": 0, "response": 0}, "23": {"stimulus": 35, "trial": 23, "rt": 964, "correctcat": 0, "response": 1}, "28": {"stimulus": 43, "trial": 28, "rt": 580, "correctcat": 0, "response": 1}, "29": {"stimulus": 35, "trial": 29, "rt": 863, "correctcat": 0, "response": 0}, "1": {"stimulus": 35, "trial": 1, "rt": 1651, "correctcat": 0, "response": 1}, "0": {"stimulus": 71, "trial": 0, "rt": 5197, "correctcat": 0, "response": 0}, "3": {"stimulus": 43, "trial": 3, "rt": 1448, "correctcat": 0, "response": 0}, "2": {"stimulus": 48, "trial": 2, "rt": 1085, "correctcat": 1, "response": 0}, "5": {"stimulus": 8, "trial": 5, "rt": 2109, "correctcat": 0, "response": 1}, "4": {"stimulus": 30, "trial": 4, "rt": 906, "correctcat": 1, "response": 0}, "7": {"stimulus": 32, "trial": 7, "rt": 1234, "correctcat": 1, "response": 1}, "6": {"stimulus": 50, "trial": 6, "rt": 1920, "correctcat": 1, "response": 0}, "9": {"stimulus": 32, "trial": 9, "rt": 1720, "correctcat": 1, "response": 0}, "8": {"stimulus": 48, "trial": 8, "rt": 1074, "correctcat": 1, "response": 0}, "11": {"stimulus": 35, "trial": 11, "rt": 2809, "correctcat": 0, "response": 1}, "10": {"stimulus": 8, "trial": 10, "rt": 3036, "correctcat": 0, "response": 0}, "13": {"stimulus": 50, "trial": 13, "rt": 2494, "correctcat": 1, "response": 0}, "12": {"stimulus": 43, "trial": 12, "rt": 1336, "correctcat": 0, "response": 0}, "15": {"stimulus": 30, "trial": 15, "rt": 2594, "correctcat": 1, "response": 0}, "14": {"stimulus": 71, "trial": 14, "rt": 3613, "correctcat": 0, "response": 1}, "17": {"stimulus": 48, "trial": 17, "rt": 1931, "correctcat": 1, "response": 1}, "16": {"stimulus": 43, "trial": 16, "rt": 729, "correctcat": 0, "response": 0}, "19": {"stimulus": 71, "trial": 19, "rt": 1877, "correctcat": 0, "response": 1}, "18": {"stimulus": 32, "trial": 18, "rt": 1356, "correctcat": 1, "response": 0}, "31": {"stimulus": 50, "trial": 31, "rt": 853, "correctcat": 1, "response": 0}, "30": {"stimulus": 71, "trial": 30, "rt": 774, "correctcat": 0, "response": 0}}, "experiment": {"Paradigm": "TACL", "Stimuli": "Size-Color Squares", "Experiment": "Assigning-Generated-Categories"}, "goodness": {"1": {"stimulus": 30, "trial": 1, "categoryRate": "NA", "rt": 2428, "rating": 8}, "0": {"stimulus": 35, "trial": 0, "categoryRate": "NA", "rt": 7841, "rating": 2}, "3": {"stimulus": 8, "trial": 3, "categoryRate": "NA", "rt": 2241, "rating": 2}, "2": {"stimulus": 48, "trial": 2, "categoryRate": "NA", "rt": 2266, "rating": 2}, "5": {"stimulus": 32, "trial": 5, "categoryRate": "NA", "rt": 2559, "rating": 7}, "4": {"stimulus": 43, "trial": 4, "categoryRate": "NA", "rt": 2366, "rating": 2}, "7": {"stimulus": 71, "trial": 7, "categoryRate": "NA", "rt": 2365, "rating": 8}, "6": {"stimulus": 50, "trial": 6, "categoryRate": "NA", "rt": 3535, "rating": 7}, "9": {"stimulus": -1, "trial": 9, "categoryRate": "Beta", "rt": 7553, "rating": 8}, "8": {"stimulus": -1, "trial": 8, "categoryRate": "Alpha", "rt": 24301, "rating": 8}}, "submit": {"timeTotal": 282456, "age": "65", "comments": "None.  Thank you.", "sex": "male"}}