{"info": {"participant": 23, "exposed": true, "stimuli": [12, 14, 30, 32, 70, 80, 79, 72], "lab": false, "pptmatch": 23, "start": 1520321642335, "catflip": false, "categories": [0, 0, 0, 0, 1, 1, 1, 1], "counterbalance": 1, "condition": "Bottom", "browser": {"platform": "MacIntel", "userAgent": "Mozilla/5.0 (Macintosh; Intel Mac OS X 10_12_6) AppleWebKit/537.36 (KHTML, like Gecko) Chrome/64.0.3282.186 Safari/537.36"}}, "assignment": {"20": {"stimulus": 80, "trial": 20, "rt": 284, "correctcat": 1, "response": "Beta"}, "21": {"stimulus": 79, "trial": 21, "rt": 207, "correctcat": 1, "response": "Beta"}, "22": {"stimulus": 79, "trial": 22, "rt": 321, "correctcat": 1, "response": "Beta"}, "23": {"stimulus": 14, "trial": 23, "rt": 322, "correctcat": 0, "response": "Beta"}, "1": {"stimulus": 32, "trial": 1, "rt": 294, "correctcat": 0, "response": "Alpha"}, "0": {"stimulus": 30, "trial": 0, "rt": 755, "correctcat": 0, "response": "Alpha"}, "3": {"stimulus": 32, "trial": 3, "rt": 262, "correctcat": 0, "response": "Beta"}, "2": {"stimulus": 72, "trial": 2, "rt": 319, "correctcat": 1, "response": "Beta"}, "5": {"stimulus": 12, "trial": 5, "rt": 273, "correctcat": 0, "response": "Beta"}, "4": {"stimulus": 79, "trial": 4, "rt": 282, "correctcat": 1, "response": "Beta"}, "7": {"stimulus": 14, "trial": 7, "rt": 159, "correctcat": 0, "response": "Beta"}, "6": {"stimulus": 30, "trial": 6, "rt": 203, "correctcat": 0, "response": "Beta"}, "9": {"stimulus": 70, "trial": 9, "rt": 199, "correctcat": 1, "response": "Beta"}, "8": {"stimulus": 80, "trial": 8, "rt": 239, "correctcat": 1, "response": "Beta"}, "11": {"stimulus": 70, "trial": 11, "rt": 125, "correctcat": 1, "response": "Beta"}, "10": {"stimulus": 30, "trial": 10, "rt": 208, "correctcat": 0, "response": "Beta"}, "13": {"stimulus": 72, "trial": 13, "rt": 173, "correctcat": 1, "response": "Beta"}, "12": {"stimulus": 70, "trial": 12, "rt": 170, "correctcat": 1, "response": "Beta"}, "15": {"stimulus": 80, "trial": 15, "rt": 160, "correctcat": 1, "response": "Beta"}, "14": {"stimulus": 14, "trial": 14, "rt": 191, "correctcat": 0, "response": "Beta"}, "17": {"stimulus": 32, "trial": 17, "rt": 162, "correctcat": 0, "response": "Beta"}, "16": {"stimulus": 12, "trial": 16, "rt": 198, "correctcat": 0, "response": "Beta"}, "19": {"stimulus": 72, "trial": 19, "rt": 128, "correctcat": 1, "response": "Beta"}, "18": {"stimulus": 12, "trial": 18, "rt": 129, "correctcat": 0, "response": "Beta"}}, "experiment": {"Paradigm": "TACL", "Stimuli": "Size-Color Squares", "Experiment": "Assigning-Generated-Categories"}, "observation": {"20": {"stimulus": 79, "trial": 20, "rt": 951}, "21": {"stimulus": 72, "trial": 21, "rt": 698}, "22": {"stimulus": 70, "trial": 22, "rt": 1140}, "23": {"stimulus": 80, "trial": 23, "rt": 775}, "1": {"stimulus": 14, "trial": 1, "rt": 708}, "0": {"stimulus": 12, "trial": 0, "rt": 1604}, "3": {"stimulus": 32, "trial": 3, "rt": 600}, "2": {"stimulus": 30, "trial": 2, "rt": 657}, "5": {"stimulus": 12, "trial": 5, "rt": 717}, "4": {"stimulus": 14, "trial": 4, "rt": 782}, "7": {"stimulus": 32, "trial": 7, "rt": 745}, "6": {"stimulus": 30, "trial": 6, "rt": 703}, "9": {"stimulus": 14, "trial": 9, "rt": 800}, "8": {"stimulus": 12, "trial": 8, "rt": 789}, "11": {"stimulus": 30, "trial": 11, "rt": 686}, "10": {"stimulus": 32, "trial": 10, "rt": 824}, "13": {"stimulus": 70, "trial": 13, "rt": 847}, "12": {"stimulus": 79, "trial": 12, "rt": 621}, "15": {"stimulus": 72, "trial": 15, "rt": 598}, "14": {"stimulus": 80, "trial": 14, "rt": 754}, "17": {"stimulus": 70, "trial": 17, "rt": 790}, "16": {"stimulus": 79, "trial": 16, "rt": 691}, "19": {"stimulus": 72, "trial": 19, "rt": 1428}, "18": {"stimulus": 80, "trial": 18, "rt": 811}}}"trial": 18, "rt": 811}}}