{"info": {"finish": 1521143942048, "participant": 230, "exposed": true, "stimuli": [30, 32, 48, 50, 62, 80, 8, 35], "lab": false, "pptmatch": 100, "start": 1521143669679, "catflip": false, "categories": [0, 0, 0, 0, 1, 1, 1, 1], "counterbalance": 2, "condition": "Middle", "browser": {"platform": "Win32", "userAgent": "Mozilla/5.0 (Windows NT 10.0; Win64; x64) AppleWebKit/537.36 (KHTML, like Gecko) Chrome/64.0.3282.186 Safari/537.36"}}, "assignment": {"24": {"stimulus": 50, "trial": 24, "rt": 1331, "correctcat": 0, "response": 0}, "25": {"stimulus": 30, "trial": 25, "rt": 1706, "correctcat": 0, "response": 0}, "26": {"stimulus": 35, "trial": 26, "rt": 1552, "correctcat": 1, "response": 1}, "27": {"stimulus": 32, "trial": 27, "rt": 1436, "correctcat": 0, "response": 0}, "20": {"stimulus": 48, "trial": 20, "rt": 4523, "correctcat": 0, "response": 0}, "21": {"stimulus": 62, "trial": 21, "rt": 1501, "correctcat": 1, "response": 1}, "22": {"stimulus": 80, "trial": 22, "rt": 1940, "correctcat": 1, "response": 1}, "23": {"stimulus": 50, "trial": 23, "rt": 1222, "correctcat": 0, "response": 1}, "28": {"stimulus": 8, "trial": 28, "rt": 1329, "correctcat": 1, "response": 1}, "29": {"stimulus": 62, "trial": 29, "rt": 1506, "correctcat": 1, "response": 1}, "1": {"stimulus": 50, "trial": 1, "rt": 3557, "correctcat": 0, "response": 0}, "0": {"stimulus": 30, "trial": 0, "rt": 3515, "correctcat": 0, "response": 0}, "3": {"stimulus": 35, "trial": 3, "rt": 2073, "correctcat": 1, "response": 0}, "2": {"stimulus": 62, "trial": 2, "rt": 2978, "correctcat": 1, "response": 0}, "5": {"stimulus": 8, "trial": 5, "rt": 1794, "correctcat": 1, "response": 1}, "4": {"stimulus": 48, "trial": 4, "rt": 1495, "correctcat": 0, "response": 0}, "7": {"stimulus": 32, "trial": 7, "rt": 1387, "correctcat": 0, "response": 0}, "6": {"stimulus": 80, "trial": 6, "rt": 1735, "correctcat": 1, "response": 1}, "9": {"stimulus": 48, "trial": 9, "rt": 1545, "correctcat": 0, "response": 0}, "8": {"stimulus": 30, "trial": 8, "rt": 1755, "correctcat": 0, "response": 0}, "11": {"stimulus": 8, "trial": 11, "rt": 1814, "correctcat": 1, "response": 1}, "10": {"stimulus": 62, "trial": 10, "rt": 1655, "correctcat": 1, "response": 1}, "13": {"stimulus": 32, "trial": 13, "rt": 1217, "correctcat": 0, "response": 0}, "12": {"stimulus": 50, "trial": 12, "rt": 1260, "correctcat": 0, "response": 0}, "15": {"stimulus": 35, "trial": 15, "rt": 1123, "correctcat": 1, "response": 1}, "14": {"stimulus": 80, "trial": 14, "rt": 1367, "correctcat": 1, "response": 1}, "17": {"stimulus": 35, "trial": 17, "rt": 1898, "correctcat": 1, "response": 1}, "16": {"stimulus": 8, "trial": 16, "rt": 1004, "correctcat": 1, "response": 1}, "19": {"stimulus": 32, "trial": 19, "rt": 1147, "correctcat": 0, "response": 0}, "18": {"stimulus": 30, "trial": 18, "rt": 1460, "correctcat": 0, "response": 0}, "31": {"stimulus": 80, "trial": 31, "rt": 1471, "correctcat": 1, "response": 1}, "30": {"stimulus": 48, "trial": 30, "rt": 1536, "correctcat": 0, "response": 0}}, "experiment": {"Paradigm": "TACL", "Stimuli": "Size-Color Squares", "Experiment": "Assigning-Generated-Categories"}, "goodness": {"1": {"stimulus": 50, "trial": 1, "categoryRate": "NA", "rt": 2596, "rating": 10}, "0": {"stimulus": 32, "trial": 0, "categoryRate": "NA", "rt": 12409, "rating": 10}, "3": {"stimulus": 80, "trial": 3, "categoryRate": "NA", "rt": 4208, "rating": 10}, "2": {"stimulus": 62, "trial": 2, "categoryRate": "NA", "rt": 5013, "rating": 10}, "5": {"stimulus": 48, "trial": 5, "categoryRate": "NA", "rt": 4441, "rating": 10}, "4": {"stimulus": 8, "trial": 4, "categoryRate": "NA", "rt": 6394, "rating": 10}, "7": {"stimulus": 30, "trial": 7, "categoryRate": "NA", "rt": 3084, "rating": 10}, "6": {"stimulus": 35, "trial": 6, "categoryRate": "NA", "rt": 5739, "rating": 10}, "9": {"stimulus": -1, "trial": 9, "categoryRate": "Alpha", "rt": 14467, "rating": 8}, "8": {"stimulus": -1, "trial": 8, "categoryRate": "Beta", "rt": 11648, "rating": 10}}, "submit": {"timeTotal": 272656, "age": "57", "comments": "", "sex": "female"}}