{"info": {"participant": 24, "exposed": true, "stimuli": [12, 14, 30, 32, 45, 54, 63, 72], "lab": true, "pptmatch": 24, "start": 1520352135941, "catflip": true, "categories": [1, 1, 1, 1, 0, 0, 0, 0], "counterbalance": 1, "condition": "Bottom", "browser": {"platform": "MacIntel", "userAgent": "Mozilla/5.0 (Macintosh; Intel Mac OS X 10_12_6) AppleWebKit/537.36 (KHTML, like Gecko) Chrome/64.0.3282.186 Safari/537.36"}}, "assignment": {"20": {"stimulus": 30, "trial": 20, "rt": 1765, "correctcat": 1, "response": "Beta"}, "21": {"stimulus": 72, "trial": 21, "rt": 849, "correctcat": 0, "response": "Alpha"}, "22": {"stimulus": 45, "trial": 22, "rt": 2484, "correctcat": 0, "response": "Alpha"}, "23": {"stimulus": 63, "trial": 23, "rt": 766, "correctcat": 0, "response": "Alpha"}, "1": {"stimulus": 54, "trial": 1, "rt": 2320, "correctcat": 0, "response": "Alpha"}, "0": {"stimulus": 63, "trial": 0, "rt": 2906, "correctcat": 0, "response": "Alpha"}, "3": {"stimulus": 14, "trial": 3, "rt": 632, "correctcat": 1, "response": "Beta"}, "2": {"stimulus": 14, "trial": 2, "rt": 1217, "correctcat": 1, "response": "Beta"}, "5": {"stimulus": 45, "trial": 5, "rt": 1929, "correctcat": 0, "response": "Alpha"}, "4": {"stimulus": 32, "trial": 4, "rt": 925, "correctcat": 1, "response": "Beta"}, "7": {"stimulus": 32, "trial": 7, "rt": 1026, "correctcat": 1, "response": "Beta"}, "6": {"stimulus": 63, "trial": 6, "rt": 741, "correctcat": 0, "response": "Alpha"}, "9": {"stimulus": 72, "trial": 9, "rt": 1080, "correctcat": 0, "response": "Alpha"}, "8": {"stimulus": 32, "trial": 8, "rt": 649, "correctcat": 1, "response": "Beta"}, "11": {"stimulus": 14, "trial": 11, "rt": 1495, "correctcat": 1, "response": "Beta"}, "10": {"stimulus": 54, "trial": 10, "rt": 828, "correctcat": 0, "response": "Alpha"}, "13": {"stimulus": 12, "trial": 13, "rt": 1265, "correctcat": 1, "response": "Beta"}, "12": {"stimulus": 54, "trial": 12, "rt": 1422, "correctcat": 0, "response": "Alpha"}, "15": {"stimulus": 12, "trial": 15, "rt": 933, "correctcat": 1, "response": "Beta"}, "14": {"stimulus": 30, "trial": 14, "rt": 1000, "correctcat": 1, "response": "Beta"}, "17": {"stimulus": 12, "trial": 17, "rt": 939, "correctcat": 1, "response": "Beta"}, "16": {"stimulus": 30, "trial": 16, "rt": 2145, "correctcat": 1, "response": "Beta"}, "19": {"stimulus": 45, "trial": 19, "rt": 1423, "correctcat": 0, "response": "Alpha"}, "18": {"stimulus": 72, "trial": 18, "rt": 1062, "correctcat": 0, "response": "Alpha"}}, "experiment": {"Paradigm": "TACL", "Stimuli": "Size-Color Squares", "Experiment": "Assigning-Generated-Categories"}, "observation": {"20": {"stimulus": 14, "trial": 20, "rt": 721}, "21": {"stimulus": 30, "trial": 21, "rt": 591}, "22": {"stimulus": 12, "trial": 22, "rt": 725}, "23": {"stimulus": 32, "trial": 23, "rt": 763}, "1": {"stimulus": 72, "trial": 1, "rt": 10803}, "0": {"stimulus": 63, "trial": 0, "rt": 4611}, "3": {"stimulus": 45, "trial": 3, "rt": 4568}, "2": {"stimulus": 54, "trial": 2, "rt": 2440}, "5": {"stimulus": 54, "trial": 5, "rt": 8650}, "4": {"stimulus": 45, "trial": 4, "rt": 6334}, "7": {"stimulus": 63, "trial": 7, "rt": 1703}, "6": {"stimulus": 72, "trial": 6, "rt": 4307}, "9": {"stimulus": 54, "trial": 9, "rt": 1290}, "8": {"stimulus": 72, "trial": 8, "rt": 1227}, "11": {"stimulus": 45, "trial": 11, "rt": 1180}, "10": {"stimulus": 63, "trial": 10, "rt": 1220}, "13": {"stimulus": 32, "trial": 13, "rt": 1335}, "12": {"stimulus": 14, "trial": 12, "rt": 1498}, "15": {"stimulus": 30, "trial": 15, "rt": 1246}, "14": {"stimulus": 12, "trial": 14, "rt": 2218}, "17": {"stimulus": 32, "trial": 17, "rt": 1323}, "16": {"stimulus": 30, "trial": 16, "rt": 1203}, "19": {"stimulus": 14, "trial": 19, "rt": 1032}, "18": {"stimulus": 12, "trial": 18, "rt": 1024}}}trial": 18, "rt": 1024}}}