{"info": {"participant": 258, "exposed": true, "stimuli": [30, 32, 48, 50, 71, 80, 53, 62], "lab": true, "pptmatch": 47, "start": 1521156167756, "catflip": false, "categories": [0, 0, 0, 0, 1, 1, 1, 1], "counterbalance": 5, "condition": "Middle", "browser": {"platform": "MacIntel", "userAgent": "Mozilla/5.0 (Macintosh; Intel Mac OS X 10_12_6) AppleWebKit/537.36 (KHTML, like Gecko) Chrome/64.0.3282.186 Safari/537.36"}}, "assignment": {"24": {"stimulus": 48, "trial": 24, "rt": 243, "correctcat": 0, "response": 1}, "25": {"stimulus": 53, "trial": 25, "rt": 411, "correctcat": 1, "response": 1}, "26": {"stimulus": 32, "trial": 26, "rt": 987, "correctcat": 0, "response": 1}, "27": {"stimulus": 30, "trial": 27, "rt": 16684, "correctcat": 0, "response": 1}, "20": {"stimulus": 48, "trial": 20, "rt": 714, "correctcat": 0, "response": 1}, "21": {"stimulus": 71, "trial": 21, "rt": 1822, "correctcat": 1, "response": 1}, "22": {"stimulus": 53, "trial": 22, "rt": 301, "correctcat": 1, "response": 1}, "23": {"stimulus": 62, "trial": 23, "rt": 440, "correctcat": 1, "response": 1}, "28": {"stimulus": 71, "trial": 28, "rt": 427, "correctcat": 1, "response": 1}, "29": {"stimulus": 50, "trial": 29, "rt": 829, "correctcat": 0, "response": 1}, "1": {"stimulus": 80, "trial": 1, "rt": 266, "correctcat": 1, "response": 1}, "0": {"stimulus": 62, "trial": 0, "rt": 1205, "correctcat": 1, "response": 1}, "3": {"stimulus": 53, "trial": 3, "rt": 412, "correctcat": 1, "response": 0}, "2": {"stimulus": 50, "trial": 2, "rt": 356, "correctcat": 0, "response": 0}, "5": {"stimulus": 30, "trial": 5, "rt": 381, "correctcat": 0, "response": 1}, "4": {"stimulus": 48, "trial": 4, "rt": 549, "correctcat": 0, "response": 0}, "7": {"stimulus": 71, "trial": 7, "rt": 315, "correctcat": 1, "response": 1}, "6": {"stimulus": 32, "trial": 6, "rt": 415, "correctcat": 0, "response": 1}, "9": {"stimulus": 32, "trial": 9, "rt": 2806, "correctcat": 0, "response": 0}, "8": {"stimulus": 71, "trial": 8, "rt": 1104, "correctcat": 1, "response": 1}, "11": {"stimulus": 50, "trial": 11, "rt": 620, "correctcat": 0, "response": 0}, "10": {"stimulus": 48, "trial": 10, "rt": 484, "correctcat": 0, "response": 0}, "13": {"stimulus": 80, "trial": 13, "rt": 425, "correctcat": 1, "response": 1}, "12": {"stimulus": 53, "trial": 12, "rt": 290, "correctcat": 1, "response": 1}, "15": {"stimulus": 30, "trial": 15, "rt": 353, "correctcat": 0, "response": 1}, "14": {"stimulus": 62, "trial": 14, "rt": 1243, "correctcat": 1, "response": 0}, "17": {"stimulus": 80, "trial": 17, "rt": 652, "correctcat": 1, "response": 1}, "16": {"stimulus": 32, "trial": 16, "rt": 410, "correctcat": 0, "response": 1}, "19": {"stimulus": 30, "trial": 19, "rt": 580, "correctcat": 0, "response": 1}, "18": {"stimulus": 50, "trial": 18, "rt": 251, "correctcat": 0, "response": 1}, "31": {"stimulus": 80, "trial": 31, "rt": 882, "correctcat": 1, "response": 1}, "30": {"stimulus": 62, "trial": 30, "rt": 624, "correctcat": 1, "response": 1}}, "experiment": {"Paradigm": "TACL", "Stimuli": "Size-Color Squares", "Experiment": "Assigning-Generated-Categories"}, "goodness": {"1": {"stimulus": 50, "trial": 1, "categoryRate": "NA", "rt": 973, "rating": 8}, "0": {"stimulus": 32, "trial": 0, "categoryRate": "NA", "rt": 1758, "rating": 8}, "3": {"stimulus": 80, "trial": 3, "categoryRate": "NA", "rt": 984, "rating": 8}, "2": {"stimulus": 62, "trial": 2, "categoryRate": "NA", "rt": 1095, "rating": 8}, "5": {"stimulus": 71, "trial": 5, "categoryRate": "NA", "rt": 723, "rating": 8}, "4": {"stimulus": 53, "trial": 4, "categoryRate": "NA", "rt": 770, "rating": 8}, "7": {"stimulus": 30, "trial": 7, "categoryRate": "NA", "rt": 2333, "rating": 8}, "6": {"stimulus": 48, "trial": 6, "categoryRate": "NA", "rt": 1583, "rating": 7}, "9": {"stimulus": -1, "trial": 9, "categoryRate": "Beta", "rt": 1700, "rating": 7}, "8": {"stimulus": -1, "trial": 8, "categoryRate": "Alpha", "rt": 3726, "rating": 7}}, "submit": {}}