{"info": {"finish": 1521065061761, "participant": 29, "exposed": true, "stimuli": [30, 32, 48, 50, 9, 0, 27, 18], "lab": false, "pptmatch": 29, "start": 1521064799223, "catflip": true, "categories": [1, 1, 1, 1, 0, 0, 0, 0], "counterbalance": 5, "condition": "Middle", "browser": {"platform": "Win32", "userAgent": "Mozilla/5.0 (Windows NT 10.0; Win64; x64) AppleWebKit/537.36 (KHTML, like Gecko) Chrome/64.0.3282.186 Safari/537.36"}}, "assignment": {"24": {"stimulus": 50, "trial": 24, "rt": 1211, "correctcat": 1, "response": 1}, "25": {"stimulus": 48, "trial": 25, "rt": 1154, "correctcat": 1, "response": 1}, "26": {"stimulus": 0, "trial": 26, "rt": 3278, "correctcat": 0, "response": 0}, "27": {"stimulus": 27, "trial": 27, "rt": 1327, "correctcat": 0, "response": 0}, "20": {"stimulus": 18, "trial": 20, "rt": 1637, "correctcat": 0, "response": 0}, "21": {"stimulus": 48, "trial": 21, "rt": 1358, "correctcat": 1, "response": 1}, "22": {"stimulus": 50, "trial": 22, "rt": 6684, "correctcat": 1, "response": 1}, "23": {"stimulus": 27, "trial": 23, "rt": 1160, "correctcat": 0, "response": 0}, "28": {"stimulus": 32, "trial": 28, "rt": 1108, "correctcat": 1, "response": 1}, "29": {"stimulus": 9, "trial": 29, "rt": 6609, "correctcat": 0, "response": 0}, "1": {"stimulus": 50, "trial": 1, "rt": 2474, "correctcat": 1, "response": 1}, "0": {"stimulus": 0, "trial": 0, "rt": 6562, "correctcat": 0, "response": 1}, "3": {"stimulus": 32, "trial": 3, "rt": 1600, "correctcat": 1, "response": 1}, "2": {"stimulus": 18, "trial": 2, "rt": 1234, "correctcat": 0, "response": 0}, "5": {"stimulus": 9, "trial": 5, "rt": 1108, "correctcat": 0, "response": 0}, "4": {"stimulus": 48, "trial": 4, "rt": 1466, "correctcat": 1, "response": 1}, "7": {"stimulus": 27, "trial": 7, "rt": 1036, "correctcat": 0, "response": 0}, "6": {"stimulus": 30, "trial": 6, "rt": 1153, "correctcat": 1, "response": 1}, "9": {"stimulus": 9, "trial": 9, "rt": 1240, "correctcat": 0, "response": 0}, "8": {"stimulus": 0, "trial": 8, "rt": 1218, "correctcat": 0, "response": 0}, "11": {"stimulus": 48, "trial": 11, "rt": 1393, "correctcat": 1, "response": 1}, "10": {"stimulus": 50, "trial": 10, "rt": 1098, "correctcat": 1, "response": 1}, "13": {"stimulus": 32, "trial": 13, "rt": 1044, "correctcat": 1, "response": 1}, "12": {"stimulus": 18, "trial": 12, "rt": 1161, "correctcat": 0, "response": 0}, "15": {"stimulus": 27, "trial": 15, "rt": 1257, "correctcat": 0, "response": 0}, "14": {"stimulus": 30, "trial": 14, "rt": 1397, "correctcat": 1, "response": 1}, "17": {"stimulus": 32, "trial": 17, "rt": 1069, "correctcat": 1, "response": 1}, "16": {"stimulus": 9, "trial": 16, "rt": 1368, "correctcat": 0, "response": 0}, "19": {"stimulus": 30, "trial": 19, "rt": 1653, "correctcat": 1, "response": 1}, "18": {"stimulus": 0, "trial": 18, "rt": 1352, "correctcat": 0, "response": 0}, "31": {"stimulus": 30, "trial": 31, "rt": 1066, "correctcat": 1, "response": 1}, "30": {"stimulus": 18, "trial": 30, "rt": 1307, "correctcat": 0, "response": 0}}, "experiment": {"Paradigm": "TACL", "Stimuli": "Size-Color Squares", "Experiment": "Assigning-Generated-Categories"}, "goodness": {"1": {"stimulus": 0, "trial": 1, "categoryRate": "NA", "rt": 3651, "rating": 10}, "0": {"stimulus": 18, "trial": 0, "categoryRate": "NA", "rt": 21438, "rating": 10}, "3": {"stimulus": 30, "trial": 3, "categoryRate": "NA", "rt": 2695, "rating": 8}, "2": {"stimulus": 48, "trial": 2, "categoryRate": "NA", "rt": 4928, "rating": 8}, "5": {"stimulus": 32, "trial": 5, "categoryRate": "NA", "rt": 2614, "rating": 10}, "4": {"stimulus": 27, "trial": 4, "categoryRate": "NA", "rt": 3772, "rating": 10}, "7": {"stimulus": 9, "trial": 7, "categoryRate": "NA", "rt": 3394, "rating": 10}, "6": {"stimulus": 50, "trial": 6, "categoryRate": "NA", "rt": 2773, "rating": 10}, "9": {"stimulus": -1, "trial": 9, "categoryRate": "Alpha", "rt": 3729, "rating": 10}, "8": {"stimulus": -1, "trial": 8, "categoryRate": "Beta", "rt": 15917, "rating": 9}}, "submit": {"timeTotal": 262831, "age": "58", "comments": "Thank you, it was a somewhat fun task, but greater variation in possible parameters would have been more interesting. Still, it was quick and easy, so thanks again.", "sex": "female"}}