{"info": {"finish": 1521065107248, "participant": 30, "exposed": true, "stimuli": [30, 32, 48, 50, 72, 80, 8, 0], "lab": false, "pptmatch": 30, "start": 1521064894119, "catflip": true, "categories": [1, 1, 1, 1, 0, 0, 0, 0], "counterbalance": 7, "condition": "Middle", "browser": {"platform": "Win32", "userAgent": "Mozilla/5.0 (Windows NT 10.0; Win64; x64) AppleWebKit/537.36 (KHTML, like Gecko) Chrome/65.0.3325.146 Safari/537.36"}}, "assignment": {"24": {"stimulus": 48, "trial": 24, "rt": 2410, "correctcat": 1, "response": 0}, "25": {"stimulus": 50, "trial": 25, "rt": 1924, "correctcat": 1, "response": 1}, "26": {"stimulus": 32, "trial": 26, "rt": 3724, "correctcat": 1, "response": 1}, "27": {"stimulus": 30, "trial": 27, "rt": 1287, "correctcat": 1, "response": 0}, "20": {"stimulus": 50, "trial": 20, "rt": 1051, "correctcat": 1, "response": 0}, "21": {"stimulus": 80, "trial": 21, "rt": 2214, "correctcat": 0, "response": 0}, "22": {"stimulus": 8, "trial": 22, "rt": 2069, "correctcat": 0, "response": 1}, "23": {"stimulus": 30, "trial": 23, "rt": 1381, "correctcat": 1, "response": 1}, "28": {"stimulus": 72, "trial": 28, "rt": 1254, "correctcat": 0, "response": 0}, "29": {"stimulus": 80, "trial": 29, "rt": 1252, "correctcat": 0, "response": 1}, "1": {"stimulus": 30, "trial": 1, "rt": 1021, "correctcat": 1, "response": 1}, "0": {"stimulus": 50, "trial": 0, "rt": 2043, "correctcat": 1, "response": 0}, "3": {"stimulus": 72, "trial": 3, "rt": 1243, "correctcat": 0, "response": 0}, "2": {"stimulus": 32, "trial": 2, "rt": 703, "correctcat": 1, "response": 1}, "5": {"stimulus": 8, "trial": 5, "rt": 1349, "correctcat": 0, "response": 1}, "4": {"stimulus": 80, "trial": 4, "rt": 2541, "correctcat": 0, "response": 0}, "7": {"stimulus": 48, "trial": 7, "rt": 1140, "correctcat": 1, "response": 1}, "6": {"stimulus": 0, "trial": 6, "rt": 918, "correctcat": 0, "response": 0}, "9": {"stimulus": 30, "trial": 9, "rt": 981, "correctcat": 1, "response": 0}, "8": {"stimulus": 80, "trial": 8, "rt": 1629, "correctcat": 0, "response": 0}, "11": {"stimulus": 72, "trial": 11, "rt": 2548, "correctcat": 0, "response": 0}, "10": {"stimulus": 0, "trial": 10, "rt": 1212, "correctcat": 0, "response": 1}, "13": {"stimulus": 8, "trial": 13, "rt": 3126, "correctcat": 0, "response": 0}, "12": {"stimulus": 32, "trial": 12, "rt": 900, "correctcat": 1, "response": 1}, "15": {"stimulus": 50, "trial": 15, "rt": 1597, "correctcat": 1, "response": 0}, "14": {"stimulus": 48, "trial": 14, "rt": 4430, "correctcat": 1, "response": 1}, "17": {"stimulus": 72, "trial": 17, "rt": 1701, "correctcat": 0, "response": 0}, "16": {"stimulus": 0, "trial": 16, "rt": 1702, "correctcat": 0, "response": 1}, "19": {"stimulus": 48, "trial": 19, "rt": 1028, "correctcat": 1, "response": 0}, "18": {"stimulus": 32, "trial": 18, "rt": 3548, "correctcat": 1, "response": 1}, "31": {"stimulus": 0, "trial": 31, "rt": 1630, "correctcat": 0, "response": 0}, "30": {"stimulus": 8, "trial": 30, "rt": 3509, "correctcat": 0, "response": 1}}, "experiment": {"Paradigm": "TACL", "Stimuli": "Size-Color Squares", "Experiment": "Assigning-Generated-Categories"}, "goodness": {"1": {"stimulus": 0, "trial": 1, "categoryRate": "NA", "rt": 2539, "rating": 8}, "0": {"stimulus": 80, "trial": 0, "categoryRate": "NA", "rt": 3025, "rating": 7}, "3": {"stimulus": 30, "trial": 3, "categoryRate": "NA", "rt": 2620, "rating": 3}, "2": {"stimulus": 72, "trial": 2, "categoryRate": "NA", "rt": 2315, "rating": 4}, "5": {"stimulus": 8, "trial": 5, "categoryRate": "NA", "rt": 1667, "rating": 9}, "4": {"stimulus": 50, "trial": 4, "categoryRate": "NA", "rt": 1449, "rating": 6}, "7": {"stimulus": 32, "trial": 7, "categoryRate": "NA", "rt": 1491, "rating": 6}, "6": {"stimulus": 48, "trial": 6, "categoryRate": "NA", "rt": 1026, "rating": 7}, "9": {"stimulus": -1, "trial": 9, "categoryRate": "Beta", "rt": 2936, "rating": 3}, "8": {"stimulus": -1, "trial": 8, "categoryRate": "Alpha", "rt": 8427, "rating": 8}}, "submit": {"timeTotal": 213336, "age": "35", "comments": "It was interesting", "sex": "Female"}}