{"info": {"finish": 1520907554795, "participant": 305, "exposed": true, "stimuli": [30, 32, 48, 50, 66, 39, 44, 4], "lab": true, "pptmatch": 66, "start": 1520907379082, "catflip": true, "categories": [1, 1, 1, 1, 0, 0, 0, 0], "counterbalance": 4, "condition": "Middle", "browser": {"platform": "MacIntel", "userAgent": "Mozilla/5.0 (Macintosh; Intel Mac OS X 10_12_6) AppleWebKit/537.36 (KHTML, like Gecko) Chrome/64.0.3282.186 Safari/537.36"}}, "assignment": {"24": {"stimulus": 66, "trial": 24, "rt": 401, "correctcat": 0, "response": 0}, "25": {"stimulus": 32, "trial": 25, "rt": 367, "correctcat": 1, "response": 0}, "26": {"stimulus": 30, "trial": 26, "rt": 526, "correctcat": 1, "response": 1}, "27": {"stimulus": 4, "trial": 27, "rt": 333, "correctcat": 0, "response": 0}, "20": {"stimulus": 32, "trial": 20, "rt": 652, "correctcat": 1, "response": 1}, "21": {"stimulus": 44, "trial": 21, "rt": 685, "correctcat": 0, "response": 0}, "22": {"stimulus": 30, "trial": 22, "rt": 2506, "correctcat": 1, "response": 1}, "23": {"stimulus": 4, "trial": 23, "rt": 371, "correctcat": 0, "response": 1}, "28": {"stimulus": 50, "trial": 28, "rt": 385, "correctcat": 1, "response": 1}, "29": {"stimulus": 48, "trial": 29, "rt": 529, "correctcat": 1, "response": 0}, "1": {"stimulus": 32, "trial": 1, "rt": 472, "correctcat": 1, "response": 1}, "0": {"stimulus": 50, "trial": 0, "rt": 2067, "correctcat": 1, "response": 1}, "3": {"stimulus": 39, "trial": 3, "rt": 417, "correctcat": 0, "response": 0}, "2": {"stimulus": 4, "trial": 2, "rt": 547, "correctcat": 0, "response": 1}, "5": {"stimulus": 30, "trial": 5, "rt": 423, "correctcat": 1, "response": 1}, "4": {"stimulus": 66, "trial": 4, "rt": 466, "correctcat": 0, "response": 0}, "7": {"stimulus": 44, "trial": 7, "rt": 345, "correctcat": 0, "response": 1}, "6": {"stimulus": 48, "trial": 6, "rt": 380, "correctcat": 1, "response": 0}, "9": {"stimulus": 66, "trial": 9, "rt": 834, "correctcat": 0, "response": 1}, "8": {"stimulus": 50, "trial": 8, "rt": 516, "correctcat": 1, "response": 0}, "11": {"stimulus": 39, "trial": 11, "rt": 2428, "correctcat": 0, "response": 1}, "10": {"stimulus": 44, "trial": 10, "rt": 575, "correctcat": 0, "response": 0}, "13": {"stimulus": 48, "trial": 13, "rt": 1124, "correctcat": 1, "response": 1}, "12": {"stimulus": 4, "trial": 12, "rt": 717, "correctcat": 0, "response": 0}, "15": {"stimulus": 32, "trial": 15, "rt": 403, "correctcat": 1, "response": 1}, "14": {"stimulus": 30, "trial": 14, "rt": 500, "correctcat": 1, "response": 0}, "17": {"stimulus": 66, "trial": 17, "rt": 572, "correctcat": 0, "response": 1}, "16": {"stimulus": 50, "trial": 16, "rt": 552, "correctcat": 1, "response": 1}, "19": {"stimulus": 48, "trial": 19, "rt": 405, "correctcat": 1, "response": 1}, "18": {"stimulus": 39, "trial": 18, "rt": 485, "correctcat": 0, "response": 0}, "31": {"stimulus": 39, "trial": 31, "rt": 894, "correctcat": 0, "response": 0}, "30": {"stimulus": 44, "trial": 30, "rt": 961, "correctcat": 0, "response": 1}}, "experiment": {"Paradigm": "TACL", "Stimuli": "Size-Color Squares", "Experiment": "Assigning-Generated-Categories"}, "goodness": {"1": {"stimulus": 39, "trial": 1, "categoryRate": "NA", "rt": 1690, "rating": 7}, "0": {"stimulus": 30, "trial": 0, "categoryRate": "NA", "rt": 10601, "rating": 8}, "3": {"stimulus": 50, "trial": 3, "categoryRate": "NA", "rt": 1433, "rating": 3}, "2": {"stimulus": 4, "trial": 2, "categoryRate": "NA", "rt": 2154, "rating": 8}, "5": {"stimulus": 48, "trial": 5, "categoryRate": "NA", "rt": 1727, "rating": 7}, "4": {"stimulus": 32, "trial": 4, "categoryRate": "NA", "rt": 1928, "rating": 2}, "7": {"stimulus": 44, "trial": 7, "categoryRate": "NA", "rt": 1579, "rating": 8}, "6": {"stimulus": 66, "trial": 6, "categoryRate": "NA", "rt": 1467, "rating": 8}, "9": {"stimulus": -1, "trial": 9, "categoryRate": "Beta", "rt": 2711, "rating": 3}, "8": {"stimulus": -1, "trial": 8, "categoryRate": "Alpha", "rt": 17319, "rating": 9}}, "submit": {}}