{"info": {"participant": 308, "exposed": true, "stimuli": [30, 32, 48, 50, 76, 72, 8, 0], "lab": true, "pptmatch": 121, "start": 1520917784294, "catflip": false, "categories": [0, 0, 0, 0, 1, 1, 1, 1], "counterbalance": 1, "condition": "Middle", "browser": {"platform": "MacIntel", "userAgent": "Mozilla/5.0 (Macintosh; Intel Mac OS X 10_12_6) AppleWebKit/537.36 (KHTML, like Gecko) Chrome/64.0.3282.186 Safari/537.36"}}, "assignment": {"24": {"stimulus": 30, "trial": 24, "rt": 300, "correctcat": 0, "response": 0}, "25": {"stimulus": 32, "trial": 25, "rt": 330, "correctcat": 0, "response": 0}, "26": {"stimulus": 76, "trial": 26, "rt": 336, "correctcat": 1, "response": 0}, "27": {"stimulus": 50, "trial": 27, "rt": 348, "correctcat": 0, "response": 1}, "20": {"stimulus": 32, "trial": 20, "rt": 3305, "correctcat": 0, "response": 1}, "21": {"stimulus": 8, "trial": 21, "rt": 251, "correctcat": 1, "response": 1}, "22": {"stimulus": 50, "trial": 22, "rt": 344, "correctcat": 0, "response": 0}, "23": {"stimulus": 72, "trial": 23, "rt": 318, "correctcat": 1, "response": 0}, "28": {"stimulus": 48, "trial": 28, "rt": 307, "correctcat": 0, "response": 1}, "29": {"stimulus": 72, "trial": 29, "rt": 321, "correctcat": 1, "response": 1}, "1": {"stimulus": 76, "trial": 1, "rt": 389, "correctcat": 1, "response": 1}, "0": {"stimulus": 0, "trial": 0, "rt": 1024, "correctcat": 1, "response": 1}, "3": {"stimulus": 30, "trial": 3, "rt": 5942, "correctcat": 0, "response": 1}, "2": {"stimulus": 48, "trial": 2, "rt": 1089, "correctcat": 0, "response": 0}, "5": {"stimulus": 8, "trial": 5, "rt": 436, "correctcat": 1, "response": 0}, "4": {"stimulus": 32, "trial": 4, "rt": 481, "correctcat": 0, "response": 0}, "7": {"stimulus": 50, "trial": 7, "rt": 482, "correctcat": 0, "response": 1}, "6": {"stimulus": 72, "trial": 6, "rt": 232, "correctcat": 1, "response": 1}, "9": {"stimulus": 76, "trial": 9, "rt": 532, "correctcat": 1, "response": 1}, "8": {"stimulus": 72, "trial": 8, "rt": 357, "correctcat": 1, "response": 1}, "11": {"stimulus": 30, "trial": 11, "rt": 791, "correctcat": 0, "response": 0}, "10": {"stimulus": 0, "trial": 10, "rt": 361, "correctcat": 1, "response": 1}, "13": {"stimulus": 32, "trial": 13, "rt": 653, "correctcat": 0, "response": 1}, "12": {"stimulus": 8, "trial": 12, "rt": 1876, "correctcat": 1, "response": 0}, "15": {"stimulus": 48, "trial": 15, "rt": 447, "correctcat": 0, "response": 1}, "14": {"stimulus": 50, "trial": 14, "rt": 515, "correctcat": 0, "response": 0}, "17": {"stimulus": 0, "trial": 17, "rt": 430, "correctcat": 1, "response": 1}, "16": {"stimulus": 30, "trial": 16, "rt": 516, "correctcat": 0, "response": 0}, "19": {"stimulus": 76, "trial": 19, "rt": 818, "correctcat": 1, "response": 0}, "18": {"stimulus": 48, "trial": 18, "rt": 1034, "correctcat": 0, "response": 0}, "31": {"stimulus": 0, "trial": 31, "rt": 364, "correctcat": 1, "response": 1}, "30": {"stimulus": 8, "trial": 30, "rt": 319, "correctcat": 1, "response": 1}}, "experiment": {"Paradigm": "TACL", "Stimuli": "Size-Color Squares", "Experiment": "Assigning-Generated-Categories"}, "goodness": {"1": {"stimulus": 0, "trial": 1, "categoryRate": "NA", "rt": 1339, "rating": 8}, "0": {"stimulus": 32, "trial": 0, "categoryRate": "NA", "rt": 1658, "rating": 8}, "3": {"stimulus": 50, "trial": 3, "categoryRate": "NA", "rt": 1195, "rating": 8}, "2": {"stimulus": 30, "trial": 2, "categoryRate": "NA", "rt": 1141, "rating": 2}, "5": {"stimulus": 48, "trial": 5, "categoryRate": "NA", "rt": 1812, "rating": 2}, "4": {"stimulus": 72, "trial": 4, "categoryRate": "NA", "rt": 1612, "rating": 8}, "7": {"stimulus": 76, "trial": 7, "categoryRate": "NA", "rt": 758, "rating": 8}, "6": {"stimulus": 8, "trial": 6, "categoryRate": "NA", "rt": 1061, "rating": 8}, "9": {"stimulus": -1, "trial": 9, "categoryRate": "Beta", "rt": 4892, "rating": 2}, "8": {"stimulus": -1, "trial": 8, "categoryRate": "Alpha", "rt": 4706, "rating": 8}}, "submit": {}}