{"info": {"finish": 1521067129679, "participant": 37, "exposed": true, "stimuli": [12, 14, 30, 32, 9, 0, 18, 72], "lab": false, "pptmatch": 37, "start": 1521066795474, "catflip": false, "categories": [0, 0, 0, 0, 1, 1, 1, 1], "counterbalance": 5, "condition": "Bottom", "browser": {"platform": "Win32", "userAgent": "Mozilla/5.0 (Windows NT 10.0; Win64; x64) AppleWebKit/537.36 (KHTML, like Gecko) Chrome/64.0.3282.186 Safari/537.36"}}, "assignment": {"24": {"stimulus": 18, "trial": 24, "rt": 692, "correctcat": 1, "response": 1}, "25": {"stimulus": 30, "trial": 25, "rt": 1335, "correctcat": 0, "response": 0}, "26": {"stimulus": 72, "trial": 26, "rt": 925, "correctcat": 1, "response": 1}, "27": {"stimulus": 0, "trial": 27, "rt": 837, "correctcat": 1, "response": 1}, "20": {"stimulus": 18, "trial": 20, "rt": 873, "correctcat": 1, "response": 1}, "21": {"stimulus": 12, "trial": 21, "rt": 946, "correctcat": 0, "response": 0}, "22": {"stimulus": 30, "trial": 22, "rt": 1202, "correctcat": 0, "response": 0}, "23": {"stimulus": 0, "trial": 23, "rt": 841, "correctcat": 1, "response": 1}, "28": {"stimulus": 14, "trial": 28, "rt": 843, "correctcat": 0, "response": 0}, "29": {"stimulus": 12, "trial": 29, "rt": 783, "correctcat": 0, "response": 0}, "1": {"stimulus": 18, "trial": 1, "rt": 1153, "correctcat": 1, "response": 1}, "0": {"stimulus": 72, "trial": 0, "rt": 4223, "correctcat": 1, "response": 0}, "3": {"stimulus": 9, "trial": 3, "rt": 1290, "correctcat": 1, "response": 1}, "2": {"stimulus": 30, "trial": 2, "rt": 1692, "correctcat": 0, "response": 0}, "5": {"stimulus": 12, "trial": 5, "rt": 1232, "correctcat": 0, "response": 0}, "4": {"stimulus": 0, "trial": 4, "rt": 1087, "correctcat": 1, "response": 1}, "7": {"stimulus": 32, "trial": 7, "rt": 834, "correctcat": 0, "response": 0}, "6": {"stimulus": 14, "trial": 6, "rt": 826, "correctcat": 0, "response": 0}, "9": {"stimulus": 18, "trial": 9, "rt": 797, "correctcat": 1, "response": 1}, "8": {"stimulus": 9, "trial": 8, "rt": 1276, "correctcat": 1, "response": 1}, "11": {"stimulus": 12, "trial": 11, "rt": 2893, "correctcat": 0, "response": 0}, "10": {"stimulus": 72, "trial": 10, "rt": 2019, "correctcat": 1, "response": 1}, "13": {"stimulus": 32, "trial": 13, "rt": 1705, "correctcat": 0, "response": 0}, "12": {"stimulus": 14, "trial": 12, "rt": 2705, "correctcat": 0, "response": 0}, "15": {"stimulus": 30, "trial": 15, "rt": 1355, "correctcat": 0, "response": 0}, "14": {"stimulus": 0, "trial": 14, "rt": 1995, "correctcat": 1, "response": 1}, "17": {"stimulus": 14, "trial": 17, "rt": 1960, "correctcat": 0, "response": 0}, "16": {"stimulus": 9, "trial": 16, "rt": 2016, "correctcat": 1, "response": 1}, "19": {"stimulus": 32, "trial": 19, "rt": 838, "correctcat": 0, "response": 0}, "18": {"stimulus": 72, "trial": 18, "rt": 957, "correctcat": 1, "response": 1}, "31": {"stimulus": 9, "trial": 31, "rt": 836, "correctcat": 1, "response": 1}, "30": {"stimulus": 32, "trial": 30, "rt": 814, "correctcat": 0, "response": 0}}, "experiment": {"Paradigm": "TACL", "Stimuli": "Size-Color Squares", "Experiment": "Assigning-Generated-Categories"}, "goodness": {"1": {"stimulus": 12, "trial": 1, "categoryRate": "NA", "rt": 6757, "rating": 10}, "0": {"stimulus": 9, "trial": 0, "categoryRate": "NA", "rt": 33980, "rating": 9}, "3": {"stimulus": 0, "trial": 3, "categoryRate": "NA", "rt": 6494, "rating": 2}, "2": {"stimulus": 32, "trial": 2, "categoryRate": "NA", "rt": 3381, "rating": 10}, "5": {"stimulus": 14, "trial": 5, "categoryRate": "NA", "rt": 6750, "rating": 6}, "4": {"stimulus": 72, "trial": 4, "categoryRate": "NA", "rt": 7824, "rating": 0}, "7": {"stimulus": 18, "trial": 7, "categoryRate": "NA", "rt": 11449, "rating": 6}, "6": {"stimulus": 30, "trial": 6, "categoryRate": "NA", "rt": 2968, "rating": 7}, "9": {"stimulus": -1, "trial": 9, "categoryRate": "Alpha", "rt": 5494, "rating": 6}, "8": {"stimulus": -1, "trial": 8, "categoryRate": "Beta", "rt": 10257, "rating": 4}}, "submit": {"timeTotal": 334391, "age": "31", "comments": "Interesting study. I enjoyed it.", "sex": "male"}}