{"info": {"finish": 1521071065079, "participant": 43, "exposed": true, "stimuli": [30, 32, 48, 50, 79, 80, 78, 72], "lab": false, "pptmatch": 43, "start": 1521070503177, "catflip": true, "categories": [1, 1, 1, 1, 0, 0, 0, 0], "counterbalance": 6, "condition": "Middle", "browser": {"platform": "Win32", "userAgent": "Mozilla/5.0 (Windows NT 10.0; Win64; x64) AppleWebKit/537.36 (KHTML, like Gecko) Chrome/64.0.3282.186 Safari/537.36"}}, "assignment": {"24": {"stimulus": 50, "trial": 24, "rt": 809, "correctcat": 1, "response": 1}, "25": {"stimulus": 48, "trial": 25, "rt": 827, "correctcat": 1, "response": 1}, "26": {"stimulus": 72, "trial": 26, "rt": 885, "correctcat": 0, "response": 0}, "27": {"stimulus": 80, "trial": 27, "rt": 764, "correctcat": 0, "response": 0}, "20": {"stimulus": 79, "trial": 20, "rt": 1083, "correctcat": 0, "response": 0}, "21": {"stimulus": 78, "trial": 21, "rt": 837, "correctcat": 0, "response": 0}, "22": {"stimulus": 30, "trial": 22, "rt": 1020, "correctcat": 1, "response": 1}, "23": {"stimulus": 32, "trial": 23, "rt": 696, "correctcat": 1, "response": 1}, "28": {"stimulus": 30, "trial": 28, "rt": 1003, "correctcat": 1, "response": 1}, "29": {"stimulus": 79, "trial": 29, "rt": 919, "correctcat": 0, "response": 0}, "1": {"stimulus": 32, "trial": 1, "rt": 1117, "correctcat": 1, "response": 1}, "0": {"stimulus": 50, "trial": 0, "rt": 2064, "correctcat": 1, "response": 0}, "3": {"stimulus": 72, "trial": 3, "rt": 1436, "correctcat": 0, "response": 0}, "2": {"stimulus": 80, "trial": 2, "rt": 1110, "correctcat": 0, "response": 0}, "5": {"stimulus": 79, "trial": 5, "rt": 845, "correctcat": 0, "response": 0}, "4": {"stimulus": 48, "trial": 4, "rt": 771, "correctcat": 1, "response": 1}, "7": {"stimulus": 78, "trial": 7, "rt": 979, "correctcat": 0, "response": 0}, "6": {"stimulus": 30, "trial": 6, "rt": 894, "correctcat": 1, "response": 1}, "9": {"stimulus": 79, "trial": 9, "rt": 683, "correctcat": 0, "response": 0}, "8": {"stimulus": 72, "trial": 8, "rt": 1037, "correctcat": 0, "response": 0}, "11": {"stimulus": 50, "trial": 11, "rt": 996, "correctcat": 1, "response": 1}, "10": {"stimulus": 30, "trial": 10, "rt": 1010, "correctcat": 1, "response": 1}, "13": {"stimulus": 80, "trial": 13, "rt": 984, "correctcat": 0, "response": 0}, "12": {"stimulus": 32, "trial": 12, "rt": 1098, "correctcat": 1, "response": 1}, "15": {"stimulus": 48, "trial": 15, "rt": 2023, "correctcat": 1, "response": 1}, "14": {"stimulus": 78, "trial": 14, "rt": 1270, "correctcat": 0, "response": 0}, "17": {"stimulus": 50, "trial": 17, "rt": 961, "correctcat": 1, "response": 1}, "16": {"stimulus": 80, "trial": 16, "rt": 829, "correctcat": 0, "response": 0}, "19": {"stimulus": 48, "trial": 19, "rt": 799, "correctcat": 1, "response": 1}, "18": {"stimulus": 72, "trial": 18, "rt": 944, "correctcat": 0, "response": 0}, "31": {"stimulus": 32, "trial": 31, "rt": 1140, "correctcat": 1, "response": 1}, "30": {"stimulus": 78, "trial": 30, "rt": 813, "correctcat": 0, "response": 0}}, "experiment": {"Paradigm": "TACL", "Stimuli": "Size-Color Squares", "Experiment": "Assigning-Generated-Categories"}, "goodness": {"1": {"stimulus": 50, "trial": 1, "categoryRate": "NA", "rt": 2869, "rating": 10}, "0": {"stimulus": 30, "trial": 0, "categoryRate": "NA", "rt": 9183, "rating": 10}, "3": {"stimulus": 78, "trial": 3, "categoryRate": "NA", "rt": 4502, "rating": 10}, "2": {"stimulus": 72, "trial": 2, "categoryRate": "NA", "rt": 3480, "rating": 8}, "5": {"stimulus": 79, "trial": 5, "categoryRate": "NA", "rt": 2056, "rating": 10}, "4": {"stimulus": 80, "trial": 4, "categoryRate": "NA", "rt": 2770, "rating": 10}, "7": {"stimulus": 48, "trial": 7, "categoryRate": "NA", "rt": 3287, "rating": 8}, "6": {"stimulus": 32, "trial": 6, "categoryRate": "NA", "rt": 3251, "rating": 10}, "9": {"stimulus": -1, "trial": 9, "categoryRate": "Alpha", "rt": 11487, "rating": 10}, "8": {"stimulus": -1, "trial": 8, "categoryRate": "Beta", "rt": 8289, "rating": 10}}, "submit": {"timeTotal": 562055, "age": "30", "comments": "", "sex": "Male"}}