{"info": {"finish": 1521071002100, "participant": 45, "exposed": true, "stimuli": [30, 32, 48, 50, 36, 0, 18, 54], "lab": false, "pptmatch": 45, "start": 1521070502172, "catflip": true, "categories": [1, 1, 1, 1, 0, 0, 0, 0], "counterbalance": 1, "condition": "Middle", "browser": {"platform": "Win64", "userAgent": "Mozilla/5.0 (Windows NT 6.1; Win64; x64; rv:59.0) Gecko/20100101 Firefox/59.0"}}, "assignment": {"24": {"stimulus": 54, "trial": 24, "rt": 127244, "correctcat": 0, "response": 0}, "25": {"stimulus": 36, "trial": 25, "rt": 596, "correctcat": 0, "response": 0}, "26": {"stimulus": 30, "trial": 26, "rt": 886, "correctcat": 1, "response": 1}, "27": {"stimulus": 0, "trial": 27, "rt": 806, "correctcat": 0, "response": 1}, "20": {"stimulus": 36, "trial": 20, "rt": 13380, "correctcat": 0, "response": 0}, "21": {"stimulus": 30, "trial": 21, "rt": 400, "correctcat": 1, "response": 0}, "22": {"stimulus": 50, "trial": 22, "rt": 118796, "correctcat": 1, "response": 0}, "23": {"stimulus": 0, "trial": 23, "rt": 474, "correctcat": 0, "response": 1}, "28": {"stimulus": 50, "trial": 28, "rt": 1334, "correctcat": 1, "response": 0}, "29": {"stimulus": 32, "trial": 29, "rt": 472, "correctcat": 1, "response": 1}, "1": {"stimulus": 48, "trial": 1, "rt": 920, "correctcat": 1, "response": 1}, "0": {"stimulus": 50, "trial": 0, "rt": 2630, "correctcat": 1, "response": 0}, "3": {"stimulus": 0, "trial": 3, "rt": 856, "correctcat": 0, "response": 0}, "2": {"stimulus": 18, "trial": 2, "rt": 1302, "correctcat": 0, "response": 1}, "5": {"stimulus": 32, "trial": 5, "rt": 802, "correctcat": 1, "response": 0}, "4": {"stimulus": 54, "trial": 4, "rt": 730, "correctcat": 0, "response": 0}, "7": {"stimulus": 36, "trial": 7, "rt": 562, "correctcat": 0, "response": 1}, "6": {"stimulus": 30, "trial": 6, "rt": 65858, "correctcat": 1, "response": 0}, "9": {"stimulus": 50, "trial": 9, "rt": 998, "correctcat": 1, "response": 1}, "8": {"stimulus": 0, "trial": 8, "rt": 458, "correctcat": 0, "response": 0}, "11": {"stimulus": 18, "trial": 11, "rt": 940, "correctcat": 0, "response": 0}, "10": {"stimulus": 48, "trial": 10, "rt": 746, "correctcat": 1, "response": 1}, "13": {"stimulus": 54, "trial": 13, "rt": 896, "correctcat": 0, "response": 1}, "12": {"stimulus": 30, "trial": 12, "rt": 786, "correctcat": 1, "response": 0}, "15": {"stimulus": 32, "trial": 15, "rt": 702, "correctcat": 1, "response": 0}, "14": {"stimulus": 36, "trial": 14, "rt": 628, "correctcat": 0, "response": 0}, "17": {"stimulus": 32, "trial": 17, "rt": 762, "correctcat": 1, "response": 0}, "16": {"stimulus": 48, "trial": 16, "rt": 482, "correctcat": 1, "response": 1}, "19": {"stimulus": 18, "trial": 19, "rt": 972, "correctcat": 0, "response": 1}, "18": {"stimulus": 54, "trial": 18, "rt": 968, "correctcat": 0, "response": 0}, "31": {"stimulus": 18, "trial": 31, "rt": 458, "correctcat": 0, "response": 1}, "30": {"stimulus": 48, "trial": 30, "rt": 21230, "correctcat": 1, "response": 0}}, "experiment": {"Paradigm": "TACL", "Stimuli": "Size-Color Squares", "Experiment": "Assigning-Generated-Categories"}, "goodness": {"1": {"stimulus": 30, "trial": 1, "categoryRate": "NA", "rt": 1952, "rating": 4}, "0": {"stimulus": 32, "trial": 0, "categoryRate": "NA", "rt": 5426, "rating": 6}, "3": {"stimulus": 18, "trial": 3, "categoryRate": "NA", "rt": 1540, "rating": 5}, "2": {"stimulus": 48, "trial": 2, "categoryRate": "NA", "rt": 2054, "rating": 5}, "5": {"stimulus": 36, "trial": 5, "categoryRate": "NA", "rt": 1622, "rating": 4}, "4": {"stimulus": 0, "trial": 4, "categoryRate": "NA", "rt": 998, "rating": 6}, "7": {"stimulus": 50, "trial": 7, "categoryRate": "NA", "rt": 1026, "rating": 3}, "6": {"stimulus": 54, "trial": 6, "categoryRate": "NA", "rt": 1152, "rating": 6}, "9": {"stimulus": -1, "trial": 9, "categoryRate": "Beta", "rt": 1412, "rating": 6}, "8": {"stimulus": -1, "trial": 8, "categoryRate": "Alpha", "rt": 2888, "rating": 6}}, "submit": {}}