{"info": {"finish": 1521071088596, "participant": 51, "exposed": true, "stimuli": [12, 14, 30, 32, 20, 0, 27, 10], "lab": false, "pptmatch": 51, "start": 1521070888805, "catflip": true, "categories": [1, 1, 1, 1, 0, 0, 0, 0], "counterbalance": 7, "condition": "Bottom", "browser": {"platform": "Win32", "userAgent": "Mozilla/5.0 (Windows NT 10.0; Win64; x64) AppleWebKit/537.36 (KHTML, like Gecko) Chrome/65.0.3325.162 Safari/537.36"}}, "assignment": {"24": {"stimulus": 30, "trial": 24, "rt": 542, "correctcat": 1, "response": 1}, "25": {"stimulus": 32, "trial": 25, "rt": 500, "correctcat": 1, "response": 1}, "26": {"stimulus": 14, "trial": 26, "rt": 449, "correctcat": 1, "response": 1}, "27": {"stimulus": 20, "trial": 27, "rt": 1097, "correctcat": 0, "response": 0}, "20": {"stimulus": 10, "trial": 20, "rt": 746, "correctcat": 0, "response": 0}, "21": {"stimulus": 20, "trial": 21, "rt": 770, "correctcat": 0, "response": 0}, "22": {"stimulus": 12, "trial": 22, "rt": 902, "correctcat": 1, "response": 0}, "23": {"stimulus": 30, "trial": 23, "rt": 1098, "correctcat": 1, "response": 1}, "28": {"stimulus": 12, "trial": 28, "rt": 772, "correctcat": 1, "response": 0}, "29": {"stimulus": 10, "trial": 29, "rt": 658, "correctcat": 0, "response": 0}, "1": {"stimulus": 10, "trial": 1, "rt": 2509, "correctcat": 0, "response": 1}, "0": {"stimulus": 12, "trial": 0, "rt": 3258, "correctcat": 1, "response": 0}, "3": {"stimulus": 27, "trial": 3, "rt": 1525, "correctcat": 0, "response": 0}, "2": {"stimulus": 14, "trial": 2, "rt": 1389, "correctcat": 1, "response": 1}, "5": {"stimulus": 30, "trial": 5, "rt": 2112, "correctcat": 1, "response": 1}, "4": {"stimulus": 0, "trial": 4, "rt": 1593, "correctcat": 0, "response": 0}, "7": {"stimulus": 32, "trial": 7, "rt": 1201, "correctcat": 1, "response": 1}, "6": {"stimulus": 20, "trial": 6, "rt": 1160, "correctcat": 0, "response": 0}, "9": {"stimulus": 20, "trial": 9, "rt": 1154, "correctcat": 0, "response": 0}, "8": {"stimulus": 27, "trial": 8, "rt": 856, "correctcat": 0, "response": 0}, "11": {"stimulus": 30, "trial": 11, "rt": 948, "correctcat": 1, "response": 1}, "10": {"stimulus": 12, "trial": 10, "rt": 1029, "correctcat": 1, "response": 0}, "13": {"stimulus": 32, "trial": 13, "rt": 846, "correctcat": 1, "response": 1}, "12": {"stimulus": 0, "trial": 12, "rt": 833, "correctcat": 0, "response": 0}, "15": {"stimulus": 10, "trial": 15, "rt": 934, "correctcat": 0, "response": 0}, "14": {"stimulus": 14, "trial": 14, "rt": 519, "correctcat": 1, "response": 1}, "17": {"stimulus": 0, "trial": 17, "rt": 1672, "correctcat": 0, "response": 0}, "16": {"stimulus": 14, "trial": 16, "rt": 855, "correctcat": 1, "response": 1}, "19": {"stimulus": 27, "trial": 19, "rt": 1139, "correctcat": 0, "response": 0}, "18": {"stimulus": 32, "trial": 18, "rt": 785, "correctcat": 1, "response": 1}, "31": {"stimulus": 27, "trial": 31, "rt": 542, "correctcat": 0, "response": 0}, "30": {"stimulus": 0, "trial": 30, "rt": 573, "correctcat": 0, "response": 0}}, "experiment": {"Paradigm": "TACL", "Stimuli": "Size-Color Squares", "Experiment": "Assigning-Generated-Categories"}, "goodness": {"1": {"stimulus": 30, "trial": 1, "categoryRate": "NA", "rt": 5137, "rating": 6}, "0": {"stimulus": 20, "trial": 0, "categoryRate": "NA", "rt": 9794, "rating": 4}, "3": {"stimulus": 12, "trial": 3, "categoryRate": "NA", "rt": 2511, "rating": 6}, "2": {"stimulus": 0, "trial": 2, "categoryRate": "NA", "rt": 2066, "rating": 0}, "5": {"stimulus": 27, "trial": 5, "categoryRate": "NA", "rt": 2285, "rating": 10}, "4": {"stimulus": 14, "trial": 4, "categoryRate": "NA", "rt": 5345, "rating": 10}, "7": {"stimulus": 32, "trial": 7, "categoryRate": "NA", "rt": 2129, "rating": 10}, "6": {"stimulus": 10, "trial": 6, "categoryRate": "NA", "rt": 2481, "rating": 6}, "9": {"stimulus": -1, "trial": 9, "categoryRate": "Beta", "rt": 4246, "rating": 9}, "8": {"stimulus": -1, "trial": 8, "categoryRate": "Alpha", "rt": 6606, "rating": 8}}, "submit": {"timeTotal": 199986, "age": "28", "comments": "", "sex": "Male"}}