{"info": {"finish": 1521071189147, "participant": 52, "exposed": true, "stimuli": [12, 14, 30, 32, 72, 0, 1, 54], "lab": false, "pptmatch": 52, "start": 1521070969039, "catflip": false, "categories": [0, 0, 0, 0, 1, 1, 1, 1], "counterbalance": 4, "condition": "Bottom", "browser": {"platform": "Win32", "userAgent": "Mozilla/5.0 (Windows NT 10.0; Win64; x64) AppleWebKit/537.36 (KHTML, like Gecko) Chrome/64.0.3282.186 Safari/537.36"}}, "assignment": {"24": {"stimulus": 0, "trial": 24, "rt": 834, "correctcat": 1, "response": 1}, "25": {"stimulus": 30, "trial": 25, "rt": 753, "correctcat": 0, "response": 0}, "26": {"stimulus": 12, "trial": 26, "rt": 542, "correctcat": 0, "response": 0}, "27": {"stimulus": 14, "trial": 27, "rt": 678, "correctcat": 0, "response": 0}, "20": {"stimulus": 72, "trial": 20, "rt": 927, "correctcat": 1, "response": 1}, "21": {"stimulus": 54, "trial": 21, "rt": 505, "correctcat": 1, "response": 1}, "22": {"stimulus": 30, "trial": 22, "rt": 773, "correctcat": 0, "response": 0}, "23": {"stimulus": 32, "trial": 23, "rt": 488, "correctcat": 0, "response": 0}, "28": {"stimulus": 54, "trial": 28, "rt": 1295, "correctcat": 1, "response": 1}, "29": {"stimulus": 72, "trial": 29, "rt": 525, "correctcat": 1, "response": 1}, "1": {"stimulus": 30, "trial": 1, "rt": 2133, "correctcat": 0, "response": 0}, "0": {"stimulus": 54, "trial": 0, "rt": 4070, "correctcat": 1, "response": 1}, "3": {"stimulus": 32, "trial": 3, "rt": 654, "correctcat": 0, "response": 0}, "2": {"stimulus": 12, "trial": 2, "rt": 1315, "correctcat": 0, "response": 0}, "5": {"stimulus": 14, "trial": 5, "rt": 1595, "correctcat": 0, "response": 0}, "4": {"stimulus": 72, "trial": 4, "rt": 1010, "correctcat": 1, "response": 1}, "7": {"stimulus": 1, "trial": 7, "rt": 540, "correctcat": 1, "response": 1}, "6": {"stimulus": 0, "trial": 6, "rt": 1034, "correctcat": 1, "response": 1}, "9": {"stimulus": 30, "trial": 9, "rt": 815, "correctcat": 0, "response": 0}, "8": {"stimulus": 12, "trial": 8, "rt": 939, "correctcat": 0, "response": 0}, "11": {"stimulus": 32, "trial": 11, "rt": 1233, "correctcat": 0, "response": 0}, "10": {"stimulus": 0, "trial": 10, "rt": 798, "correctcat": 1, "response": 1}, "13": {"stimulus": 54, "trial": 13, "rt": 802, "correctcat": 1, "response": 1}, "12": {"stimulus": 14, "trial": 12, "rt": 902, "correctcat": 0, "response": 0}, "15": {"stimulus": 72, "trial": 15, "rt": 603, "correctcat": 1, "response": 1}, "14": {"stimulus": 1, "trial": 14, "rt": 604, "correctcat": 1, "response": 1}, "17": {"stimulus": 1, "trial": 17, "rt": 613, "correctcat": 1, "response": 1}, "16": {"stimulus": 0, "trial": 16, "rt": 554, "correctcat": 1, "response": 1}, "19": {"stimulus": 14, "trial": 19, "rt": 518, "correctcat": 0, "response": 0}, "18": {"stimulus": 12, "trial": 18, "rt": 902, "correctcat": 0, "response": 0}, "31": {"stimulus": 1, "trial": 31, "rt": 827, "correctcat": 1, "response": 1}, "30": {"stimulus": 32, "trial": 30, "rt": 970, "correctcat": 0, "response": 0}}, "experiment": {"Paradigm": "TACL", "Stimuli": "Size-Color Squares", "Experiment": "Assigning-Generated-Categories"}, "goodness": {"1": {"stimulus": 12, "trial": 1, "categoryRate": "NA", "rt": 2572, "rating": 10}, "0": {"stimulus": 30, "trial": 0, "categoryRate": "NA", "rt": 14063, "rating": 10}, "3": {"stimulus": 54, "trial": 3, "categoryRate": "NA", "rt": 1722, "rating": 10}, "2": {"stimulus": 1, "trial": 2, "categoryRate": "NA", "rt": 2922, "rating": 10}, "5": {"stimulus": 72, "trial": 5, "categoryRate": "NA", "rt": 1539, "rating": 10}, "4": {"stimulus": 0, "trial": 4, "categoryRate": "NA", "rt": 1765, "rating": 10}, "7": {"stimulus": 14, "trial": 7, "categoryRate": "NA", "rt": 1939, "rating": 10}, "6": {"stimulus": 32, "trial": 6, "categoryRate": "NA", "rt": 2500, "rating": 10}, "9": {"stimulus": -1, "trial": 9, "categoryRate": "Beta", "rt": 2857, "rating": 10}, "8": {"stimulus": -1, "trial": 8, "categoryRate": "Alpha", "rt": 7263, "rating": 10}}, "submit": {"timeTotal": 220492, "age": "33", "comments": "NA", "sex": "Female"}}