{"info": {"finish": 1521078036520, "participant": 61, "exposed": true, "stimuli": [30, 32, 48, 50, 17, 8, 4, 0], "lab": false, "pptmatch": 61, "start": 1521077824909, "catflip": true, "categories": [1, 1, 1, 1, 0, 0, 0, 0], "counterbalance": 2, "condition": "Middle", "browser": {"platform": "Win32", "userAgent": "Mozilla/5.0 (Windows NT 10.0; Win64; x64) AppleWebKit/537.36 (KHTML, like Gecko) Chrome/64.0.3282.186 Safari/537.36"}}, "assignment": {"24": {"stimulus": 4, "trial": 24, "rt": 1092, "correctcat": 0, "response": 0}, "25": {"stimulus": 48, "trial": 25, "rt": 1222, "correctcat": 1, "response": 1}, "26": {"stimulus": 50, "trial": 26, "rt": 1065, "correctcat": 1, "response": 1}, "27": {"stimulus": 0, "trial": 27, "rt": 816, "correctcat": 0, "response": 0}, "20": {"stimulus": 17, "trial": 20, "rt": 4465, "correctcat": 0, "response": 0}, "21": {"stimulus": 32, "trial": 21, "rt": 1541, "correctcat": 1, "response": 1}, "22": {"stimulus": 30, "trial": 22, "rt": 2276, "correctcat": 1, "response": 1}, "23": {"stimulus": 8, "trial": 23, "rt": 889, "correctcat": 0, "response": 0}, "28": {"stimulus": 8, "trial": 28, "rt": 4489, "correctcat": 0, "response": 0}, "29": {"stimulus": 30, "trial": 29, "rt": 1110, "correctcat": 1, "response": 1}, "1": {"stimulus": 48, "trial": 1, "rt": 1596, "correctcat": 1, "response": 0}, "0": {"stimulus": 30, "trial": 0, "rt": 4925, "correctcat": 1, "response": 0}, "3": {"stimulus": 8, "trial": 3, "rt": 1056, "correctcat": 0, "response": 0}, "2": {"stimulus": 17, "trial": 2, "rt": 1954, "correctcat": 0, "response": 0}, "5": {"stimulus": 32, "trial": 5, "rt": 764, "correctcat": 1, "response": 1}, "4": {"stimulus": 0, "trial": 4, "rt": 1098, "correctcat": 0, "response": 0}, "7": {"stimulus": 4, "trial": 7, "rt": 1218, "correctcat": 0, "response": 0}, "6": {"stimulus": 50, "trial": 6, "rt": 742, "correctcat": 1, "response": 1}, "9": {"stimulus": 17, "trial": 9, "rt": 2801, "correctcat": 0, "response": 1}, "8": {"stimulus": 32, "trial": 8, "rt": 932, "correctcat": 1, "response": 1}, "11": {"stimulus": 50, "trial": 11, "rt": 1356, "correctcat": 1, "response": 1}, "10": {"stimulus": 4, "trial": 10, "rt": 930, "correctcat": 0, "response": 0}, "13": {"stimulus": 48, "trial": 13, "rt": 790, "correctcat": 1, "response": 1}, "12": {"stimulus": 0, "trial": 12, "rt": 1473, "correctcat": 0, "response": 0}, "15": {"stimulus": 30, "trial": 15, "rt": 814, "correctcat": 1, "response": 1}, "14": {"stimulus": 8, "trial": 14, "rt": 967, "correctcat": 0, "response": 0}, "17": {"stimulus": 50, "trial": 17, "rt": 963, "correctcat": 1, "response": 1}, "16": {"stimulus": 48, "trial": 16, "rt": 1567, "correctcat": 1, "response": 1}, "19": {"stimulus": 4, "trial": 19, "rt": 1088, "correctcat": 0, "response": 0}, "18": {"stimulus": 0, "trial": 18, "rt": 1404, "correctcat": 0, "response": 0}, "31": {"stimulus": 17, "trial": 31, "rt": 1712, "correctcat": 0, "response": 0}, "30": {"stimulus": 32, "trial": 30, "rt": 750, "correctcat": 1, "response": 1}}, "experiment": {"Paradigm": "TACL", "Stimuli": "Size-Color Squares", "Experiment": "Assigning-Generated-Categories"}, "goodness": {"1": {"stimulus": 0, "trial": 1, "categoryRate": "NA", "rt": 3327, "rating": 4}, "0": {"stimulus": 8, "trial": 0, "categoryRate": "NA", "rt": 16929, "rating": 8}, "3": {"stimulus": 32, "trial": 3, "categoryRate": "NA", "rt": 3187, "rating": 8}, "2": {"stimulus": 17, "trial": 2, "categoryRate": "NA", "rt": 2298, "rating": 6}, "5": {"stimulus": 4, "trial": 5, "categoryRate": "NA", "rt": 2171, "rating": 8}, "4": {"stimulus": 30, "trial": 4, "categoryRate": "NA", "rt": 2402, "rating": 7}, "7": {"stimulus": 48, "trial": 7, "categoryRate": "NA", "rt": 3123, "rating": 7}, "6": {"stimulus": 50, "trial": 6, "categoryRate": "NA", "rt": 2764, "rating": 8}, "9": {"stimulus": -1, "trial": 9, "categoryRate": "Beta", "rt": 3014, "rating": 4}, "8": {"stimulus": -1, "trial": 8, "categoryRate": "Alpha", "rt": 5112, "rating": 3}}, "submit": {"timeTotal": 211883, "age": "30", "comments": "", "sex": "female"}}