{"info": {"finish": 1521083377941, "participant": 70, "exposed": true, "stimuli": [12, 14, 30, 32, 80, 72, 71, 63], "lab": false, "pptmatch": 70, "start": 1521083066911, "catflip": false, "categories": [0, 0, 0, 0, 1, 1, 1, 1], "counterbalance": 2, "condition": "Bottom", "browser": {"platform": "Win32", "userAgent": "Mozilla/5.0 (Windows NT 6.1; Win64; x64) AppleWebKit/537.36 (KHTML, like Gecko) Chrome/64.0.3282.186 Safari/537.36"}}, "assignment": {"24": {"stimulus": 30, "trial": 24, "rt": 835, "correctcat": 0, "response": 0}, "25": {"stimulus": 72, "trial": 25, "rt": 890, "correctcat": 1, "response": 1}, "26": {"stimulus": 80, "trial": 26, "rt": 926, "correctcat": 1, "response": 1}, "27": {"stimulus": 14, "trial": 27, "rt": 803, "correctcat": 0, "response": 0}, "20": {"stimulus": 80, "trial": 20, "rt": 836, "correctcat": 1, "response": 1}, "21": {"stimulus": 72, "trial": 21, "rt": 753, "correctcat": 1, "response": 1}, "22": {"stimulus": 12, "trial": 22, "rt": 1072, "correctcat": 0, "response": 0}, "23": {"stimulus": 32, "trial": 23, "rt": 768, "correctcat": 0, "response": 0}, "28": {"stimulus": 32, "trial": 28, "rt": 801, "correctcat": 0, "response": 0}, "29": {"stimulus": 12, "trial": 29, "rt": 604, "correctcat": 0, "response": 0}, "1": {"stimulus": 14, "trial": 1, "rt": 1273, "correctcat": 0, "response": 0}, "0": {"stimulus": 80, "trial": 0, "rt": 3278, "correctcat": 1, "response": 1}, "3": {"stimulus": 12, "trial": 3, "rt": 809, "correctcat": 0, "response": 0}, "2": {"stimulus": 63, "trial": 2, "rt": 1058, "correctcat": 1, "response": 0}, "5": {"stimulus": 72, "trial": 5, "rt": 845, "correctcat": 1, "response": 1}, "4": {"stimulus": 30, "trial": 4, "rt": 2130, "correctcat": 0, "response": 1}, "7": {"stimulus": 71, "trial": 7, "rt": 995, "correctcat": 1, "response": 1}, "6": {"stimulus": 32, "trial": 6, "rt": 937, "correctcat": 0, "response": 0}, "9": {"stimulus": 30, "trial": 9, "rt": 1104, "correctcat": 0, "response": 0}, "8": {"stimulus": 14, "trial": 8, "rt": 803, "correctcat": 0, "response": 0}, "11": {"stimulus": 32, "trial": 11, "rt": 1025, "correctcat": 0, "response": 0}, "10": {"stimulus": 80, "trial": 10, "rt": 870, "correctcat": 1, "response": 1}, "13": {"stimulus": 12, "trial": 13, "rt": 833, "correctcat": 0, "response": 0}, "12": {"stimulus": 63, "trial": 12, "rt": 993, "correctcat": 1, "response": 1}, "15": {"stimulus": 72, "trial": 15, "rt": 1108, "correctcat": 1, "response": 1}, "14": {"stimulus": 71, "trial": 14, "rt": 769, "correctcat": 1, "response": 1}, "17": {"stimulus": 71, "trial": 17, "rt": 833, "correctcat": 1, "response": 1}, "16": {"stimulus": 63, "trial": 16, "rt": 837, "correctcat": 1, "response": 1}, "19": {"stimulus": 14, "trial": 19, "rt": 846, "correctcat": 0, "response": 0}, "18": {"stimulus": 30, "trial": 18, "rt": 1072, "correctcat": 0, "response": 0}, "31": {"stimulus": 63, "trial": 31, "rt": 887, "correctcat": 1, "response": 1}, "30": {"stimulus": 71, "trial": 30, "rt": 865, "correctcat": 1, "response": 1}}, "experiment": {"Paradigm": "TACL", "Stimuli": "Size-Color Squares", "Experiment": "Assigning-Generated-Categories"}, "goodness": {"1": {"stimulus": 71, "trial": 1, "categoryRate": "NA", "rt": 10734, "rating": 6}, "0": {"stimulus": 14, "trial": 0, "categoryRate": "NA", "rt": 13242, "rating": 8}, "3": {"stimulus": 63, "trial": 3, "categoryRate": "NA", "rt": 10584, "rating": 4}, "2": {"stimulus": 72, "trial": 2, "categoryRate": "NA", "rt": 6309, "rating": 4}, "5": {"stimulus": 80, "trial": 5, "categoryRate": "NA", "rt": 8669, "rating": 6}, "4": {"stimulus": 12, "trial": 4, "categoryRate": "NA", "rt": 7295, "rating": 7}, "7": {"stimulus": 30, "trial": 7, "categoryRate": "NA", "rt": 3813, "rating": 4}, "6": {"stimulus": 32, "trial": 6, "categoryRate": "NA", "rt": 11305, "rating": 5}, "9": {"stimulus": -1, "trial": 9, "categoryRate": "Beta", "rt": 10676, "rating": 5}, "8": {"stimulus": -1, "trial": 8, "categoryRate": "Alpha", "rt": 24258, "rating": 5}}, "submit": {"timeTotal": 311402, "age": "36", "comments": "Interesting but I was not clear on how I should be rating how typical, but I did my best.", "sex": "female"}}