{"info": {"finish": 1521084449565, "participant": 73, "exposed": true, "stimuli": [30, 32, 48, 50, 73, 72, 75, 74], "lab": false, "pptmatch": 73, "start": 1521083275718, "catflip": false, "categories": [0, 0, 0, 0, 1, 1, 1, 1], "counterbalance": 2, "condition": "Middle", "browser": {"platform": "Win32", "userAgent": "Mozilla/5.0 (Windows NT 5.1) AppleWebKit/537.36 (KHTML, like Gecko) Chrome/49.0.2623.112 Safari/537.36"}}, "assignment": {"24": {"stimulus": 74, "trial": 24, "rt": 1489, "correctcat": 1, "response": 1}, "25": {"stimulus": 48, "trial": 25, "rt": 4102, "correctcat": 0, "response": 0}, "26": {"stimulus": 50, "trial": 26, "rt": 1813, "correctcat": 0, "response": 0}, "27": {"stimulus": 72, "trial": 27, "rt": 2516, "correctcat": 1, "response": 1}, "20": {"stimulus": 32, "trial": 20, "rt": 2906, "correctcat": 0, "response": 0}, "21": {"stimulus": 30, "trial": 21, "rt": 2903, "correctcat": 0, "response": 0}, "22": {"stimulus": 73, "trial": 22, "rt": 4184, "correctcat": 1, "response": 1}, "23": {"stimulus": 50, "trial": 23, "rt": 3944, "correctcat": 0, "response": 0}, "28": {"stimulus": 30, "trial": 28, "rt": 5035, "correctcat": 0, "response": 0}, "29": {"stimulus": 73, "trial": 29, "rt": 1372, "correctcat": 1, "response": 1}, "1": {"stimulus": 74, "trial": 1, "rt": 1994, "correctcat": 1, "response": 1}, "0": {"stimulus": 32, "trial": 0, "rt": 18801, "correctcat": 0, "response": 0}, "3": {"stimulus": 30, "trial": 3, "rt": 1284, "correctcat": 0, "response": 0}, "2": {"stimulus": 48, "trial": 2, "rt": 3169, "correctcat": 0, "response": 0}, "5": {"stimulus": 73, "trial": 5, "rt": 1639, "correctcat": 1, "response": 1}, "4": {"stimulus": 75, "trial": 4, "rt": 1403, "correctcat": 1, "response": 1}, "7": {"stimulus": 72, "trial": 7, "rt": 1578, "correctcat": 1, "response": 1}, "6": {"stimulus": 50, "trial": 6, "rt": 1549, "correctcat": 0, "response": 0}, "9": {"stimulus": 32, "trial": 9, "rt": 1221, "correctcat": 0, "response": 0}, "8": {"stimulus": 48, "trial": 8, "rt": 1343, "correctcat": 0, "response": 0}, "11": {"stimulus": 72, "trial": 11, "rt": 2289, "correctcat": 1, "response": 1}, "10": {"stimulus": 74, "trial": 10, "rt": 1561, "correctcat": 1, "response": 1}, "13": {"stimulus": 50, "trial": 13, "rt": 1986, "correctcat": 0, "response": 0}, "12": {"stimulus": 75, "trial": 12, "rt": 1154, "correctcat": 1, "response": 1}, "15": {"stimulus": 30, "trial": 15, "rt": 1725, "correctcat": 0, "response": 0}, "14": {"stimulus": 73, "trial": 14, "rt": 1586, "correctcat": 1, "response": 1}, "17": {"stimulus": 48, "trial": 17, "rt": 3839, "correctcat": 0, "response": 0}, "16": {"stimulus": 75, "trial": 16, "rt": 1415, "correctcat": 1, "response": 1}, "19": {"stimulus": 74, "trial": 19, "rt": 1200, "correctcat": 1, "response": 1}, "18": {"stimulus": 72, "trial": 18, "rt": 1424, "correctcat": 1, "response": 1}, "31": {"stimulus": 75, "trial": 31, "rt": 1999, "correctcat": 1, "response": 1}, "30": {"stimulus": 32, "trial": 30, "rt": 1822, "correctcat": 0, "response": 0}}, "experiment": {"Paradigm": "TACL", "Stimuli": "Size-Color Squares", "Experiment": "Assigning-Generated-Categories"}, "goodness": {"1": {"stimulus": 74, "trial": 1, "categoryRate": "NA", "rt": 5596, "rating": 10}, "0": {"stimulus": 73, "trial": 0, "categoryRate": "NA", "rt": 11306, "rating": 10}, "3": {"stimulus": 48, "trial": 3, "categoryRate": "NA", "rt": 3698, "rating": 10}, "2": {"stimulus": 50, "trial": 2, "categoryRate": "NA", "rt": 15069, "rating": 10}, "5": {"stimulus": 72, "trial": 5, "categoryRate": "NA", "rt": 4169, "rating": 10}, "4": {"stimulus": 30, "trial": 4, "categoryRate": "NA", "rt": 5247, "rating": 10}, "7": {"stimulus": 32, "trial": 7, "categoryRate": "NA", "rt": 3785, "rating": 10}, "6": {"stimulus": 75, "trial": 6, "categoryRate": "NA", "rt": 2520, "rating": 10}, "9": {"stimulus": -1, "trial": 9, "categoryRate": "Beta", "rt": 9695, "rating": 10}, "8": {"stimulus": -1, "trial": 8, "categoryRate": "Alpha", "rt": 11396, "rating": 10}}, "submit": {"timeTotal": 1174561, "age": "31", "comments": "Thank you for the well designed experiment. It was very user -friendly.", "sex": "Female"}}