{"info": {"finish": 1521085568064, "participant": 75, "exposed": true, "stimuli": [12, 14, 30, 32, 75, 76, 3, 5], "lab": false, "pptmatch": 75, "start": 1521085087520, "catflip": false, "categories": [0, 0, 0, 0, 1, 1, 1, 1], "counterbalance": 1, "condition": "Bottom", "browser": {"platform": "Win32", "userAgent": "Mozilla/5.0 (Windows NT 10.0; Win64; x64) AppleWebKit/537.36 (KHTML, like Gecko) Chrome/65.0.3325.162 Safari/537.36"}}, "assignment": {"24": {"stimulus": 32, "trial": 24, "rt": 2288, "correctcat": 0, "response": 1}, "25": {"stimulus": 76, "trial": 25, "rt": 2076, "correctcat": 1, "response": 0}, "26": {"stimulus": 30, "trial": 26, "rt": 2772, "correctcat": 0, "response": 1}, "27": {"stimulus": 14, "trial": 27, "rt": 5297, "correctcat": 0, "response": 0}, "20": {"stimulus": 5, "trial": 20, "rt": 4675, "correctcat": 1, "response": 1}, "21": {"stimulus": 76, "trial": 21, "rt": 2086, "correctcat": 1, "response": 0}, "22": {"stimulus": 3, "trial": 22, "rt": 6465, "correctcat": 1, "response": 0}, "23": {"stimulus": 14, "trial": 23, "rt": 3825, "correctcat": 0, "response": 0}, "28": {"stimulus": 3, "trial": 28, "rt": 2134, "correctcat": 1, "response": 1}, "29": {"stimulus": 75, "trial": 29, "rt": 3790, "correctcat": 1, "response": 1}, "1": {"stimulus": 12, "trial": 1, "rt": 2675, "correctcat": 0, "response": 1}, "0": {"stimulus": 3, "trial": 0, "rt": 11534, "correctcat": 1, "response": 0}, "3": {"stimulus": 76, "trial": 3, "rt": 4108, "correctcat": 1, "response": 0}, "2": {"stimulus": 14, "trial": 2, "rt": 2365, "correctcat": 0, "response": 0}, "5": {"stimulus": 5, "trial": 5, "rt": 2209, "correctcat": 1, "response": 0}, "4": {"stimulus": 75, "trial": 4, "rt": 1932, "correctcat": 1, "response": 1}, "7": {"stimulus": 30, "trial": 7, "rt": 5100, "correctcat": 0, "response": 1}, "6": {"stimulus": 32, "trial": 6, "rt": 2105, "correctcat": 0, "response": 0}, "9": {"stimulus": 30, "trial": 9, "rt": 4363, "correctcat": 0, "response": 0}, "8": {"stimulus": 12, "trial": 8, "rt": 2775, "correctcat": 0, "response": 1}, "11": {"stimulus": 32, "trial": 11, "rt": 5499, "correctcat": 0, "response": 1}, "10": {"stimulus": 14, "trial": 10, "rt": 1658, "correctcat": 0, "response": 0}, "13": {"stimulus": 75, "trial": 13, "rt": 2406, "correctcat": 1, "response": 0}, "12": {"stimulus": 5, "trial": 12, "rt": 1659, "correctcat": 1, "response": 0}, "15": {"stimulus": 76, "trial": 15, "rt": 2185, "correctcat": 1, "response": 0}, "14": {"stimulus": 3, "trial": 14, "rt": 5128, "correctcat": 1, "response": 0}, "17": {"stimulus": 12, "trial": 17, "rt": 4306, "correctcat": 0, "response": 1}, "16": {"stimulus": 32, "trial": 16, "rt": 1910, "correctcat": 0, "response": 0}, "19": {"stimulus": 30, "trial": 19, "rt": 2205, "correctcat": 0, "response": 1}, "18": {"stimulus": 75, "trial": 18, "rt": 7147, "correctcat": 1, "response": 0}, "31": {"stimulus": 12, "trial": 31, "rt": 4268, "correctcat": 0, "response": 1}, "30": {"stimulus": 5, "trial": 30, "rt": 2208, "correctcat": 1, "response": 0}}, "experiment": {"Paradigm": "TACL", "Stimuli": "Size-Color Squares", "Experiment": "Assigning-Generated-Categories"}, "goodness": {"1": {"stimulus": 12, "trial": 1, "categoryRate": "NA", "rt": 4509, "rating": 10}, "0": {"stimulus": 30, "trial": 0, "categoryRate": "NA", "rt": 39405, "rating": 9}, "3": {"stimulus": 75, "trial": 3, "categoryRate": "NA", "rt": 7044, "rating": 8}, "2": {"stimulus": 3, "trial": 2, "categoryRate": "NA", "rt": 7139, "rating": 9}, "5": {"stimulus": 32, "trial": 5, "categoryRate": "NA", "rt": 4056, "rating": 0}, "4": {"stimulus": 14, "trial": 4, "categoryRate": "NA", "rt": 4478, "rating": 0}, "7": {"stimulus": 76, "trial": 7, "categoryRate": "NA", "rt": 10029, "rating": 1}, "6": {"stimulus": 5, "trial": 6, "categoryRate": "NA", "rt": 5092, "rating": 7}, "9": {"stimulus": -1, "trial": 9, "categoryRate": "Beta", "rt": 23783, "rating": 6}, "8": {"stimulus": -1, "trial": 8, "categoryRate": "Alpha", "rt": 39491, "rating": 6}}, "submit": {"timeTotal": 480886, "age": "49", "comments": "It would have been fun had I been better at it. Really did try.", "sex": "Female"}}