{"info": {"finish": 1521090949408, "participant": 77, "exposed": true, "stimuli": [12, 14, 30, 32, 72, 80, 74, 78], "lab": false, "pptmatch": 77, "start": 1521090713333, "catflip": false, "categories": [0, 0, 0, 0, 1, 1, 1, 1], "counterbalance": 0, "condition": "Bottom", "browser": {"platform": "Win32", "userAgent": "Mozilla/5.0 (Windows NT 6.3) AppleWebKit/537.36 (KHTML, like Gecko) Chrome/64.0.3282.186 Safari/537.36"}}, "assignment": {"24": {"stimulus": 74, "trial": 24, "rt": 511, "correctcat": 1, "response": 1}, "25": {"stimulus": 12, "trial": 25, "rt": 812, "correctcat": 0, "response": 0}, "26": {"stimulus": 14, "trial": 26, "rt": 609, "correctcat": 0, "response": 0}, "27": {"stimulus": 30, "trial": 27, "rt": 587, "correctcat": 0, "response": 0}, "20": {"stimulus": 30, "trial": 20, "rt": 540, "correctcat": 0, "response": 0}, "21": {"stimulus": 32, "trial": 21, "rt": 511, "correctcat": 0, "response": 0}, "22": {"stimulus": 72, "trial": 22, "rt": 929, "correctcat": 1, "response": 1}, "23": {"stimulus": 74, "trial": 23, "rt": 528, "correctcat": 1, "response": 1}, "28": {"stimulus": 78, "trial": 28, "rt": 855, "correctcat": 1, "response": 1}, "29": {"stimulus": 80, "trial": 29, "rt": 642, "correctcat": 1, "response": 1}, "1": {"stimulus": 12, "trial": 1, "rt": 493, "correctcat": 0, "response": 1}, "0": {"stimulus": 74, "trial": 0, "rt": 1072, "correctcat": 1, "response": 0}, "3": {"stimulus": 80, "trial": 3, "rt": 254, "correctcat": 1, "response": 1}, "2": {"stimulus": 72, "trial": 2, "rt": 517, "correctcat": 1, "response": 1}, "5": {"stimulus": 78, "trial": 5, "rt": 3526, "correctcat": 1, "response": 0}, "4": {"stimulus": 30, "trial": 4, "rt": 389, "correctcat": 0, "response": 1}, "7": {"stimulus": 14, "trial": 7, "rt": 24237, "correctcat": 0, "response": 0}, "6": {"stimulus": 32, "trial": 6, "rt": 26767, "correctcat": 0, "response": 0}, "9": {"stimulus": 80, "trial": 9, "rt": 1436, "correctcat": 1, "response": 0}, "8": {"stimulus": 74, "trial": 8, "rt": 4485, "correctcat": 1, "response": 0}, "11": {"stimulus": 30, "trial": 11, "rt": 618, "correctcat": 0, "response": 0}, "10": {"stimulus": 14, "trial": 10, "rt": 1080, "correctcat": 0, "response": 0}, "13": {"stimulus": 78, "trial": 13, "rt": 523, "correctcat": 1, "response": 1}, "12": {"stimulus": 12, "trial": 12, "rt": 1302, "correctcat": 0, "response": 1}, "15": {"stimulus": 32, "trial": 15, "rt": 777, "correctcat": 0, "response": 0}, "14": {"stimulus": 72, "trial": 14, "rt": 726, "correctcat": 1, "response": 1}, "17": {"stimulus": 78, "trial": 17, "rt": 883, "correctcat": 1, "response": 1}, "16": {"stimulus": 12, "trial": 16, "rt": 505, "correctcat": 0, "response": 0}, "19": {"stimulus": 14, "trial": 19, "rt": 701, "correctcat": 0, "response": 0}, "18": {"stimulus": 80, "trial": 18, "rt": 461, "correctcat": 1, "response": 1}, "31": {"stimulus": 32, "trial": 31, "rt": 786, "correctcat": 0, "response": 0}, "30": {"stimulus": 72, "trial": 30, "rt": 578, "correctcat": 1, "response": 1}}, "experiment": {"Paradigm": "TACL", "Stimuli": "Size-Color Squares", "Experiment": "Assigning-Generated-Categories"}, "goodness": {"1": {"stimulus": 78, "trial": 1, "categoryRate": "NA", "rt": 1468, "rating": 7}, "0": {"stimulus": 14, "trial": 0, "categoryRate": "NA", "rt": 2257, "rating": 6}, "3": {"stimulus": 12, "trial": 3, "categoryRate": "NA", "rt": 1372, "rating": 2}, "2": {"stimulus": 80, "trial": 2, "categoryRate": "NA", "rt": 1588, "rating": 7}, "5": {"stimulus": 30, "trial": 5, "categoryRate": "NA", "rt": 2317, "rating": 3}, "4": {"stimulus": 32, "trial": 4, "categoryRate": "NA", "rt": 1404, "rating": 3}, "7": {"stimulus": 72, "trial": 7, "categoryRate": "NA", "rt": 1307, "rating": 7}, "6": {"stimulus": 74, "trial": 6, "categoryRate": "NA", "rt": 1396, "rating": 7}, "9": {"stimulus": -1, "trial": 9, "categoryRate": "Beta", "rt": 1650, "rating": 8}, "8": {"stimulus": -1, "trial": 8, "categoryRate": "Alpha", "rt": 39532, "rating": 6}}, "submit": {"timeTotal": 237181, "age": "22", "comments": "", "sex": "male"}}