{"info": {"finish": 1521092553730, "participant": 81, "exposed": true, "stimuli": [30, 32, 48, 50, 71, 80, 53, 62], "lab": false, "pptmatch": 81, "start": 1521092021920, "catflip": true, "categories": [1, 1, 1, 1, 0, 0, 0, 0], "counterbalance": 6, "condition": "Middle", "browser": {"platform": "Win32", "userAgent": "Mozilla/5.0 (Windows NT 10.0; Win64; x64) AppleWebKit/537.36 (KHTML, like Gecko) Chrome/65.0.3325.162 Safari/537.36"}}, "assignment": {"24": {"stimulus": 30, "trial": 24, "rt": 1540, "correctcat": 1, "response": 1}, "25": {"stimulus": 71, "trial": 25, "rt": 1180, "correctcat": 0, "response": 0}, "26": {"stimulus": 48, "trial": 26, "rt": 1028, "correctcat": 1, "response": 1}, "27": {"stimulus": 32, "trial": 27, "rt": 1963, "correctcat": 1, "response": 1}, "20": {"stimulus": 80, "trial": 20, "rt": 1188, "correctcat": 0, "response": 0}, "21": {"stimulus": 71, "trial": 21, "rt": 860, "correctcat": 0, "response": 0}, "22": {"stimulus": 50, "trial": 22, "rt": 1222, "correctcat": 1, "response": 1}, "23": {"stimulus": 48, "trial": 23, "rt": 1037, "correctcat": 1, "response": 1}, "28": {"stimulus": 80, "trial": 28, "rt": 1206, "correctcat": 0, "response": 0}, "29": {"stimulus": 53, "trial": 29, "rt": 869, "correctcat": 0, "response": 0}, "1": {"stimulus": 53, "trial": 1, "rt": 2266, "correctcat": 0, "response": 1}, "0": {"stimulus": 50, "trial": 0, "rt": 3260, "correctcat": 1, "response": 1}, "3": {"stimulus": 71, "trial": 3, "rt": 1534, "correctcat": 0, "response": 0}, "2": {"stimulus": 80, "trial": 2, "rt": 1709, "correctcat": 0, "response": 0}, "5": {"stimulus": 62, "trial": 5, "rt": 1285, "correctcat": 0, "response": 0}, "4": {"stimulus": 30, "trial": 4, "rt": 1133, "correctcat": 1, "response": 1}, "7": {"stimulus": 32, "trial": 7, "rt": 2429, "correctcat": 1, "response": 1}, "6": {"stimulus": 48, "trial": 6, "rt": 1166, "correctcat": 1, "response": 1}, "9": {"stimulus": 50, "trial": 9, "rt": 1109, "correctcat": 1, "response": 1}, "8": {"stimulus": 32, "trial": 8, "rt": 1100, "correctcat": 1, "response": 1}, "11": {"stimulus": 71, "trial": 11, "rt": 1198, "correctcat": 0, "response": 0}, "10": {"stimulus": 62, "trial": 10, "rt": 1869, "correctcat": 0, "response": 0}, "13": {"stimulus": 80, "trial": 13, "rt": 1628, "correctcat": 0, "response": 0}, "12": {"stimulus": 48, "trial": 12, "rt": 1332, "correctcat": 1, "response": 1}, "15": {"stimulus": 30, "trial": 15, "rt": 1133, "correctcat": 1, "response": 1}, "14": {"stimulus": 53, "trial": 14, "rt": 918, "correctcat": 0, "response": 0}, "17": {"stimulus": 32, "trial": 17, "rt": 1357, "correctcat": 1, "response": 1}, "16": {"stimulus": 53, "trial": 16, "rt": 1285, "correctcat": 0, "response": 0}, "19": {"stimulus": 30, "trial": 19, "rt": 1100, "correctcat": 1, "response": 1}, "18": {"stimulus": 62, "trial": 18, "rt": 1228, "correctcat": 0, "response": 0}, "31": {"stimulus": 62, "trial": 31, "rt": 1700, "correctcat": 0, "response": 0}, "30": {"stimulus": 50, "trial": 30, "rt": 1405, "correctcat": 1, "response": 1}}, "experiment": {"Paradigm": "TACL", "Stimuli": "Size-Color Squares", "Experiment": "Assigning-Generated-Categories"}, "goodness": {"1": {"stimulus": 32, "trial": 1, "categoryRate": "NA", "rt": 5803, "rating": 5}, "0": {"stimulus": 80, "trial": 0, "categoryRate": "NA", "rt": 16315, "rating": 8}, "3": {"stimulus": 50, "trial": 3, "categoryRate": "NA", "rt": 6251, "rating": 5}, "2": {"stimulus": 71, "trial": 2, "categoryRate": "NA", "rt": 4372, "rating": 8}, "5": {"stimulus": 53, "trial": 5, "categoryRate": "NA", "rt": 3420, "rating": 8}, "4": {"stimulus": 30, "trial": 4, "categoryRate": "NA", "rt": 3868, "rating": 4}, "7": {"stimulus": 62, "trial": 7, "categoryRate": "NA", "rt": 3011, "rating": 8}, "6": {"stimulus": 48, "trial": 6, "categoryRate": "NA", "rt": 2701, "rating": 4}, "9": {"stimulus": -1, "trial": 9, "categoryRate": "Beta", "rt": 6075, "rating": 8}, "8": {"stimulus": -1, "trial": 8, "categoryRate": "Alpha", "rt": 13402, "rating": 4}}, "submit": {"timeTotal": 532315, "age": "51", "comments": "I think that this experiment was about understanding how individuals respond to different colors and shapes and if some colors or shapes elicit different responses than other colors or shapes.", "sex": "Male"}}