{"info": {"participant": 86, "exposed": true, "stimuli": [12, 14, 30, 32, 9, 0, 27, 1], "lab": false, "pptmatch": 86, "start": 1521094936561, "catflip": true, "categories": [1, 1, 1, 1, 0, 0, 0, 0], "counterbalance": 5, "condition": "Bottom", "browser": {"platform": "MacIntel", "userAgent": "Mozilla/5.0 (Macintosh; Intel Mac OS X 10_13_3) AppleWebKit/537.36 (KHTML, like Gecko) Chrome/64.0.3282.186 Safari/537.36"}}, "assignment": {"24": {"stimulus": 12, "trial": 24, "rt": 1400, "correctcat": 1, "response": 1}, "25": {"stimulus": 14, "trial": 25, "rt": 2916, "correctcat": 1, "response": 1}, "26": {"stimulus": 9, "trial": 26, "rt": 1252, "correctcat": 0, "response": 0}, "27": {"stimulus": 32, "trial": 27, "rt": 1118, "correctcat": 1, "response": 1}, "20": {"stimulus": 9, "trial": 20, "rt": 1309, "correctcat": 0, "response": 0}, "21": {"stimulus": 0, "trial": 21, "rt": 979, "correctcat": 0, "response": 0}, "22": {"stimulus": 14, "trial": 22, "rt": 1103, "correctcat": 1, "response": 1}, "23": {"stimulus": 27, "trial": 23, "rt": 1744, "correctcat": 0, "response": 0}, "28": {"stimulus": 30, "trial": 28, "rt": 1586, "correctcat": 1, "response": 1}, "29": {"stimulus": 1, "trial": 29, "rt": 985, "correctcat": 0, "response": 0}, "1": {"stimulus": 30, "trial": 1, "rt": 1532, "correctcat": 1, "response": 0}, "0": {"stimulus": 1, "trial": 0, "rt": 3673, "correctcat": 0, "response": 1}, "3": {"stimulus": 12, "trial": 3, "rt": 1127, "correctcat": 1, "response": 1}, "2": {"stimulus": 27, "trial": 2, "rt": 1740, "correctcat": 0, "response": 0}, "5": {"stimulus": 32, "trial": 5, "rt": 841, "correctcat": 1, "response": 1}, "4": {"stimulus": 9, "trial": 4, "rt": 1056, "correctcat": 0, "response": 0}, "7": {"stimulus": 14, "trial": 7, "rt": 1167, "correctcat": 1, "response": 1}, "6": {"stimulus": 0, "trial": 6, "rt": 856, "correctcat": 0, "response": 0}, "9": {"stimulus": 30, "trial": 9, "rt": 1072, "correctcat": 1, "response": 1}, "8": {"stimulus": 9, "trial": 8, "rt": 806, "correctcat": 0, "response": 0}, "11": {"stimulus": 0, "trial": 11, "rt": 877, "correctcat": 0, "response": 0}, "10": {"stimulus": 32, "trial": 10, "rt": 605, "correctcat": 1, "response": 1}, "13": {"stimulus": 1, "trial": 13, "rt": 890, "correctcat": 0, "response": 0}, "12": {"stimulus": 12, "trial": 12, "rt": 4682, "correctcat": 1, "response": 1}, "15": {"stimulus": 27, "trial": 15, "rt": 792, "correctcat": 0, "response": 0}, "14": {"stimulus": 14, "trial": 14, "rt": 1122, "correctcat": 1, "response": 1}, "17": {"stimulus": 1, "trial": 17, "rt": 2017, "correctcat": 0, "response": 1}, "16": {"stimulus": 30, "trial": 16, "rt": 952, "correctcat": 1, "response": 1}, "19": {"stimulus": 32, "trial": 19, "rt": 880, "correctcat": 1, "response": 1}, "18": {"stimulus": 12, "trial": 18, "rt": 903, "correctcat": 1, "response": 1}, "31": {"stimulus": 27, "trial": 31, "rt": 1350, "correctcat": 0, "response": 0}, "30": {"stimulus": 0, "trial": 30, "rt": 1190, "correctcat": 0, "response": 0}}, "experiment": {"Paradigm": "TACL", "Stimuli": "Size-Color Squares", "Experiment": "Assigning-Generated-Categories"}, "goodness": {}, "submit": {}}