{"info": {"finish": 1521100263492, "participant": 96, "exposed": true, "stimuli": [30, 32, 48, 50, 74, 77, 63, 72], "lab": false, "pptmatch": 96, "start": 1521099975674, "catflip": true, "categories": [1, 1, 1, 1, 0, 0, 0, 0], "counterbalance": 4, "condition": "Middle", "browser": {"platform": "Win32", "userAgent": "Mozilla/5.0 (Windows NT 6.1; Win64; x64) AppleWebKit/537.36 (KHTML, like Gecko) Chrome/64.0.3282.186 Safari/537.36"}}, "assignment": {"24": {"stimulus": 74, "trial": 24, "rt": 1082, "correctcat": 0, "response": 0}, "25": {"stimulus": 48, "trial": 25, "rt": 954, "correctcat": 1, "response": 1}, "26": {"stimulus": 32, "trial": 26, "rt": 1022, "correctcat": 1, "response": 1}, "27": {"stimulus": 72, "trial": 27, "rt": 2634, "correctcat": 0, "response": 0}, "20": {"stimulus": 74, "trial": 20, "rt": 981, "correctcat": 0, "response": 0}, "21": {"stimulus": 32, "trial": 21, "rt": 896, "correctcat": 1, "response": 1}, "22": {"stimulus": 63, "trial": 22, "rt": 1038, "correctcat": 0, "response": 0}, "23": {"stimulus": 72, "trial": 23, "rt": 1273, "correctcat": 0, "response": 0}, "28": {"stimulus": 30, "trial": 28, "rt": 1585, "correctcat": 1, "response": 1}, "29": {"stimulus": 63, "trial": 29, "rt": 953, "correctcat": 0, "response": 0}, "1": {"stimulus": 30, "trial": 1, "rt": 1629, "correctcat": 1, "response": 1}, "0": {"stimulus": 48, "trial": 0, "rt": 5599, "correctcat": 1, "response": 0}, "3": {"stimulus": 77, "trial": 3, "rt": 1909, "correctcat": 0, "response": 1}, "2": {"stimulus": 50, "trial": 2, "rt": 1700, "correctcat": 1, "response": 1}, "5": {"stimulus": 74, "trial": 5, "rt": 3119, "correctcat": 0, "response": 1}, "4": {"stimulus": 63, "trial": 4, "rt": 2244, "correctcat": 0, "response": 1}, "7": {"stimulus": 32, "trial": 7, "rt": 1412, "correctcat": 1, "response": 1}, "6": {"stimulus": 72, "trial": 6, "rt": 1779, "correctcat": 0, "response": 0}, "9": {"stimulus": 74, "trial": 9, "rt": 1277, "correctcat": 0, "response": 0}, "8": {"stimulus": 72, "trial": 8, "rt": 994, "correctcat": 0, "response": 0}, "11": {"stimulus": 50, "trial": 11, "rt": 2751, "correctcat": 1, "response": 1}, "10": {"stimulus": 63, "trial": 10, "rt": 1040, "correctcat": 0, "response": 1}, "13": {"stimulus": 77, "trial": 13, "rt": 1214, "correctcat": 0, "response": 0}, "12": {"stimulus": 30, "trial": 12, "rt": 1551, "correctcat": 1, "response": 1}, "15": {"stimulus": 32, "trial": 15, "rt": 2200, "correctcat": 1, "response": 0}, "14": {"stimulus": 48, "trial": 14, "rt": 1627, "correctcat": 1, "response": 1}, "17": {"stimulus": 48, "trial": 17, "rt": 1329, "correctcat": 1, "response": 0}, "16": {"stimulus": 30, "trial": 16, "rt": 1418, "correctcat": 1, "response": 1}, "19": {"stimulus": 77, "trial": 19, "rt": 1037, "correctcat": 0, "response": 0}, "18": {"stimulus": 50, "trial": 18, "rt": 1235, "correctcat": 1, "response": 1}, "31": {"stimulus": 77, "trial": 31, "rt": 897, "correctcat": 0, "response": 0}, "30": {"stimulus": 50, "trial": 30, "rt": 1067, "correctcat": 1, "response": 1}}, "experiment": {"Paradigm": "TACL", "Stimuli": "Size-Color Squares", "Experiment": "Assigning-Generated-Categories"}, "goodness": {"1": {"stimulus": 77, "trial": 1, "categoryRate": "NA", "rt": 12527, "rating": 9}, "0": {"stimulus": 48, "trial": 0, "categoryRate": "NA", "rt": 15850, "rating": 7}, "3": {"stimulus": 74, "trial": 3, "categoryRate": "NA", "rt": 2879, "rating": 8}, "2": {"stimulus": 72, "trial": 2, "categoryRate": "NA", "rt": 3186, "rating": 8}, "5": {"stimulus": 30, "trial": 5, "categoryRate": "NA", "rt": 2684, "rating": 10}, "4": {"stimulus": 50, "trial": 4, "categoryRate": "NA", "rt": 5831, "rating": 9}, "7": {"stimulus": 63, "trial": 7, "categoryRate": "NA", "rt": 2766, "rating": 8}, "6": {"stimulus": 32, "trial": 6, "categoryRate": "NA", "rt": 2160, "rating": 10}, "9": {"stimulus": -1, "trial": 9, "categoryRate": "Beta", "rt": 6847, "rating": 4}, "8": {"stimulus": -1, "trial": 8, "categoryRate": "Alpha", "rt": 15119, "rating": 9}}, "submit": {"timeTotal": 287984, "age": "27", "comments": "Very interesting! Thanks!", "sex": "female"}}