{"info": {"finish": 1521100554527, "participant": 98, "exposed": true, "stimuli": [12, 14, 30, 32, 37, 72, 38, 28], "lab": false, "pptmatch": 98, "start": 1521100354097, "catflip": false, "categories": [0, 0, 0, 0, 1, 1, 1, 1], "counterbalance": 4, "condition": "Bottom", "browser": {"platform": "MacIntel", "userAgent": "Mozilla/5.0 (Macintosh; Intel Mac OS X 10_10_5) AppleWebKit/537.36 (KHTML, like Gecko) Chrome/64.0.3282.186 Safari/537.36"}}, "assignment": {"24": {"stimulus": 14, "trial": 24, "rt": 5270, "correctcat": 0, "response": 0}, "25": {"stimulus": 30, "trial": 25, "rt": 1199, "correctcat": 0, "response": 0}, "26": {"stimulus": 28, "trial": 26, "rt": 1118, "correctcat": 1, "response": 1}, "27": {"stimulus": 72, "trial": 27, "rt": 963, "correctcat": 1, "response": 1}, "20": {"stimulus": 38, "trial": 20, "rt": 1324, "correctcat": 1, "response": 1}, "21": {"stimulus": 30, "trial": 21, "rt": 2300, "correctcat": 0, "response": 0}, "22": {"stimulus": 12, "trial": 22, "rt": 1612, "correctcat": 0, "response": 0}, "23": {"stimulus": 37, "trial": 23, "rt": 961, "correctcat": 1, "response": 1}, "28": {"stimulus": 37, "trial": 28, "rt": 735, "correctcat": 1, "response": 1}, "29": {"stimulus": 12, "trial": 29, "rt": 1658, "correctcat": 0, "response": 0}, "1": {"stimulus": 72, "trial": 1, "rt": 1009, "correctcat": 1, "response": 1}, "0": {"stimulus": 14, "trial": 0, "rt": 2179, "correctcat": 0, "response": 1}, "3": {"stimulus": 30, "trial": 3, "rt": 1381, "correctcat": 0, "response": 0}, "2": {"stimulus": 12, "trial": 2, "rt": 1301, "correctcat": 0, "response": 0}, "5": {"stimulus": 37, "trial": 5, "rt": 730, "correctcat": 1, "response": 1}, "4": {"stimulus": 38, "trial": 4, "rt": 1009, "correctcat": 1, "response": 0}, "7": {"stimulus": 28, "trial": 7, "rt": 3202, "correctcat": 1, "response": 1}, "6": {"stimulus": 32, "trial": 6, "rt": 926, "correctcat": 0, "response": 0}, "9": {"stimulus": 72, "trial": 9, "rt": 1119, "correctcat": 1, "response": 1}, "8": {"stimulus": 32, "trial": 8, "rt": 882, "correctcat": 0, "response": 0}, "11": {"stimulus": 38, "trial": 11, "rt": 866, "correctcat": 1, "response": 1}, "10": {"stimulus": 37, "trial": 10, "rt": 828, "correctcat": 1, "response": 1}, "13": {"stimulus": 14, "trial": 13, "rt": 960, "correctcat": 0, "response": 0}, "12": {"stimulus": 12, "trial": 12, "rt": 736, "correctcat": 0, "response": 1}, "15": {"stimulus": 30, "trial": 15, "rt": 1267, "correctcat": 0, "response": 0}, "14": {"stimulus": 28, "trial": 14, "rt": 1200, "correctcat": 1, "response": 1}, "17": {"stimulus": 28, "trial": 17, "rt": 761, "correctcat": 1, "response": 1}, "16": {"stimulus": 72, "trial": 16, "rt": 854, "correctcat": 1, "response": 1}, "19": {"stimulus": 32, "trial": 19, "rt": 1337, "correctcat": 0, "response": 0}, "18": {"stimulus": 14, "trial": 18, "rt": 795, "correctcat": 0, "response": 0}, "31": {"stimulus": 32, "trial": 31, "rt": 1059, "correctcat": 0, "response": 0}, "30": {"stimulus": 38, "trial": 30, "rt": 1658, "correctcat": 1, "response": 1}}, "experiment": {"Paradigm": "TACL", "Stimuli": "Size-Color Squares", "Experiment": "Assigning-Generated-Categories"}, "goodness": {"1": {"stimulus": 12, "trial": 1, "categoryRate": "NA", "rt": 4773, "rating": 4}, "0": {"stimulus": 37, "trial": 0, "categoryRate": "NA", "rt": 2778, "rating": 8}, "3": {"stimulus": 14, "trial": 3, "categoryRate": "NA", "rt": 1791, "rating": 0}, "2": {"stimulus": 28, "trial": 2, "categoryRate": "NA", "rt": 1791, "rating": 10}, "5": {"stimulus": 72, "trial": 5, "categoryRate": "NA", "rt": 2244, "rating": 9}, "4": {"stimulus": 38, "trial": 4, "categoryRate": "NA", "rt": 2993, "rating": 7}, "7": {"stimulus": 30, "trial": 7, "categoryRate": "NA", "rt": 1860, "rating": 3}, "6": {"stimulus": 32, "trial": 6, "categoryRate": "NA", "rt": 2130, "rating": 2}, "9": {"stimulus": -1, "trial": 9, "categoryRate": "Beta", "rt": 3611, "rating": 9}, "8": {"stimulus": -1, "trial": 8, "categoryRate": "Alpha", "rt": 7708, "rating": 4}}, "submit": {"timeTotal": 200706, "age": "23", "comments": "", "sex": "Male"}}