{"info": {"finish": 1548050836842, "participant": 132, "exposed": true, "lab": false, "start": 1548050090374, "counterbalance": 7, "gentype": 1, "condition": "Cluster", "browser": {"platform": "Win32", "userAgent": "Mozilla/5.0 (Windows NT 10.0) AppleWebKit/537.36 (KHTML, like Gecko) Chrome/71.0.3578.98 Safari/537.36"}}, "observation": {"11": {"stimulus": 583, "trial": 11, "rt": 20871}, "10": {"stimulus": 1083, "trial": 10, "rt": 10251}, "1": {"stimulus": 392, "trial": 1, "rt": 2424}, "0": {"stimulus": 1083, "trial": 0, "rt": 31374}, "3": {"stimulus": 1093, "trial": 3, "rt": 2343}, "2": {"stimulus": 583, "trial": 2, "rt": 6359}, "5": {"stimulus": 1093, "trial": 5, "rt": 2886}, "4": {"stimulus": 1083, "trial": 4, "rt": 1927}, "7": {"stimulus": 583, "trial": 7, "rt": 5108}, "6": {"stimulus": 392, "trial": 6, "rt": 38346}, "9": {"stimulus": 1093, "trial": 9, "rt": 3293}, "8": {"stimulus": 392, "trial": 8, "rt": 18326}}, "generation": {"1": {"category": "Beta", "trial": 1, "stimulus": 2349, "rt": 11277}, "0": {"category": "Beta", "trial": 0, "stimulus": 2499, "rt": 19084}, "3": {"category": "Beta", "trial": 3, "stimulus": 2398, "rt": 40118}, "2": {"category": "Beta", "trial": 2, "stimulus": 2449, "rt": 7831}, "5": {"category": "Beta", "trial": 5, "stimulus": 2447, "rt": 31404}, "4": {"category": "Beta", "trial": 4, "stimulus": 2448, "rt": 4574}, "7": {"category": "Beta", "trial": 7, "stimulus": 1748, "rt": 33442}, "6": {"category": "Beta", "trial": 6, "stimulus": 2441, "rt": 39428}}, "generalization": {"56": {"stimulus": 812, "trial": 56, "rt": 847, "response": "Alpha"}, "77": {"stimulus": 1343, "trial": 77, "rt": 2160, "response": "Beta"}, "54": {"stimulus": 968, "trial": 54, "rt": 814, "response": "Alpha"}, "42": {"stimulus": 1437, "trial": 42, "rt": 1152, "response": "Beta"}, "48": {"stimulus": 468, "trial": 48, "rt": 1285, "response": "Alpha"}, "43": {"stimulus": 30, "trial": 43, "rt": 968, "response": "Alpha"}, "60": {"stimulus": 1937, "trial": 60, "rt": 814, "response": "Beta"}, "61": {"stimulus": 1093, "trial": 61, "rt": 582, "response": "Beta"}, "62": {"stimulus": 155, "trial": 62, "rt": 1214, "response": "Alpha"}, "63": {"stimulus": 593, "trial": 63, "rt": 3535, "response": "Beta"}, "64": {"stimulus": 2437, "trial": 64, "rt": 1609, "response": "Beta"}, "49": {"stimulus": 530, "trial": 49, "rt": 2518, "response": "Alpha"}, "66": {"stimulus": 2124, "trial": 66, "rt": 640, "response": "Alpha"}, "67": {"stimulus": 1374, "trial": 67, "rt": 1372, "response": "Alpha"}, "68": {"stimulus": 93, "trial": 68, "rt": 4544, "response": "Beta"}, "69": {"stimulus": 2062, "trial": 69, "rt": 1119, "response": "Alpha"}, "80": {"stimulus": 937, "trial": 80, "rt": 1063, "response": "Beta"}, "52": {"stimulus": 2468, "trial": 52, "rt": 645, "response": "Alpha"}, "53": {"stimulus": 687, "trial": 53, "rt": 1182, "response": "Beta"}, "24": {"stimulus": 874, "trial": 24, "rt": 1462, "response": "Alpha"}, "25": {"stimulus": 1812, "trial": 25, "rt": 4392, "response": "Alpha"}, "26": {"stimulus": 1655, "trial": 26, "rt": 846, "response": "Alpha"}, "27": {"stimulus": 1530, "trial": 27, "rt": 11976, "response": "Beta"}, "20": {"stimulus": 843, "trial": 20, "rt": 775, "response": "Beta"}, "21": {"stimulus": 2249, "trial": 21, "rt": 623, "response": "Beta"}, "22": {"stimulus": 124, "trial": 22, "rt": 979, "response": "Alpha"}, "23": {"stimulus": 0, "trial": 23, "rt": 1354, "response": "Alpha"}, "46": {"stimulus": 1124, "trial": 46, "rt": 2415, "response": "Alpha"}, "47": {"stimulus": 749, "trial": 47, "rt": 15221, "response": "Beta"}, "44": {"stimulus": 1780, "trial": 44, "rt": 1448, "response": "Beta"}, "45": {"stimulus": 437, "trial": 45, "rt": 801, "response": "Alpha"}, "28": {"stimulus": 1030, "trial": 28, "rt": 1214, "response": "Beta"}, "29": {"stimulus": 2030, "trial": 29, "rt": 5511, "response": "Beta"}, "40": {"stimulus": 624, "trial": 40, "rt": 2579, "response": "Alpha"}, "41": {"stimulus": 1155, "trial": 41, "rt": 615, "response": "Alpha"}, "1": {"stimulus": 2312, "trial": 1, "rt": 927, "response": "Alpha"}, "0": {"stimulus": 1593, "trial": 0, "rt": 4208, "response": "Beta"}, "3": {"stimulus": 1249, "trial": 3, "rt": 940, "response": "Beta"}, "2": {"stimulus": 1312, "trial": 2, "rt": 1055, "response": "Alpha"}, "5": {"stimulus": 187, "trial": 5, "rt": 853, "response": "Beta"}, "4": {"stimulus": 2343, "trial": 4, "rt": 879, "response": "Beta"}, "7": {"stimulus": 62, "trial": 7, "rt": 661, "response": "Alpha"}, "6": {"stimulus": 218, "trial": 6, "rt": 883, "response": "Alpha"}, "9": {"stimulus": 1468, "trial": 9, "rt": 830, "response": "Alpha"}, "8": {"stimulus": 1624, "trial": 8, "rt": 17127, "response": "Alpha"}, "78": {"stimulus": 343, "trial": 78, "rt": 645, "response": "Beta"}, "51": {"stimulus": 1562, "trial": 51, "rt": 888, "response": "Alpha"}, "39": {"stimulus": 2187, "trial": 39, "rt": 13985, "response": "Beta"}, "65": {"stimulus": 780, "trial": 65, "rt": 1115, "response": "Alpha"}, "76": {"stimulus": 1874, "trial": 76, "rt": 790, "response": "Alpha"}, "75": {"stimulus": 999, "trial": 75, "rt": 1038, "response": "Beta"}, "38": {"stimulus": 1968, "trial": 38, "rt": 6949, "response": "Alpha"}, "73": {"stimulus": 2499, "trial": 73, "rt": 1077, "response": "Beta"}, "72": {"stimulus": 405, "trial": 72, "rt": 2135, "response": "Alpha"}, "71": {"stimulus": 374, "trial": 71, "rt": 912, "response": "Alpha"}, "70": {"stimulus": 562, "trial": 70, "rt": 4080, "response": "Alpha"}, "59": {"stimulus": 1749, "trial": 59, "rt": 977, "response": "Beta"}, "79": {"stimulus": 1405, "trial": 79, "rt": 1304, "response": "Alpha"}, "58": {"stimulus": 1999, "trial": 58, "rt": 1189, "response": "Beta"}, "11": {"stimulus": 1062, "trial": 11, "rt": 832, "response": "Alpha"}, "10": {"stimulus": 1905, "trial": 10, "rt": 752, "response": "Alpha"}, "13": {"stimulus": 905, "trial": 13, "rt": 847, "response": "Alpha"}, "12": {"stimulus": 2280, "trial": 12, "rt": 4383, "response": "Beta"}, "15": {"stimulus": 1280, "trial": 15, "rt": 1452, "response": "Beta"}, "14": {"stimulus": 1218, "trial": 14, "rt": 1077, "response": "Alpha"}, "17": {"stimulus": 1843, "trial": 17, "rt": 17088, "response": "Beta"}, "16": {"stimulus": 280, "trial": 16, "rt": 5862, "response": "Alpha"}, "19": {"stimulus": 2218, "trial": 19, "rt": 1370, "response": "Alpha"}, "18": {"stimulus": 2093, "trial": 18, "rt": 1050, "response": "Beta"}, "31": {"stimulus": 655, "trial": 31, "rt": 928, "response": "Alpha"}, "30": {"stimulus": 2405, "trial": 30, "rt": 1287, "response": "Alpha"}, "37": {"stimulus": 1187, "trial": 37, "rt": 757, "response": "Beta"}, "36": {"stimulus": 499, "trial": 36, "rt": 764, "response": "Beta"}, "35": {"stimulus": 1499, "trial": 35, "rt": 548, "response": "Beta"}, "34": {"stimulus": 249, "trial": 34, "rt": 637, "response": "Beta"}, "33": {"stimulus": 1687, "trial": 33, "rt": 998, "response": "Beta"}, "55": {"stimulus": 312, "trial": 55, "rt": 577, "response": "Alpha"}, "74": {"stimulus": 2374, "trial": 74, "rt": 1096, "response": "Alpha"}, "32": {"stimulus": 718, "trial": 32, "rt": 1366, "response": "Alpha"}, "57": {"stimulus": 2155, "trial": 57, "rt": 645, "response": "Alpha"}, "50": {"stimulus": 1718, "trial": 50, "rt": 959, "response": "Alpha"}}, "experiment": {"Paradigm": "TACL", "Stimuli": "Size-Color Squares", "Experiment": "Generating-Multiple-Categories"}, "submit": {"timeTotal": 748426, "age": "28", "comments": "interest to play", "sex": "male"}}