{"info": {"finish": 1548057160113, "participant": 140, "exposed": true, "lab": false, "start": 1548056873668, "counterbalance": 6, "gentype": 0, "condition": "XOR", "browser": {"platform": "MacIntel", "userAgent": "Mozilla/5.0 (Macintosh; Intel Mac OS X 10_14_2) AppleWebKit/537.36 (KHTML, like Gecko) Chrome/71.0.3578.98 Safari/537.36"}}, "observation": {"11": {"stimulus": 1479, "trial": 11, "rt": 1356}, "10": {"stimulus": 403, "trial": 10, "rt": 1389}, "1": {"stimulus": 818, "trial": 1, "rt": 1716}, "0": {"stimulus": 403, "trial": 0, "rt": 2544}, "3": {"stimulus": 1890, "trial": 3, "rt": 1356}, "2": {"stimulus": 1479, "trial": 2, "rt": 1499}, "5": {"stimulus": 818, "trial": 5, "rt": 3481}, "4": {"stimulus": 1890, "trial": 4, "rt": 1316}, "7": {"stimulus": 1479, "trial": 7, "rt": 2434}, "6": {"stimulus": 403, "trial": 6, "rt": 1653}, "9": {"stimulus": 1890, "trial": 9, "rt": 1368}, "8": {"stimulus": 818, "trial": 8, "rt": 1512}}, "generation": {"1": {"category": "Not-Alpha", "trial": 1, "stimulus": 49, "rt": 8059}, "0": {"category": "Not-Alpha", "trial": 0, "stimulus": 649, "rt": 15852}, "3": {"category": "Not-Alpha", "trial": 3, "stimulus": 47, "rt": 8733}, "2": {"category": "Not-Alpha", "trial": 2, "stimulus": 0, "rt": 4693}, "5": {"category": "Not-Alpha", "trial": 5, "stimulus": 42, "rt": 3449}, "4": {"category": "Not-Alpha", "trial": 4, "stimulus": 5, "rt": 2801}, "7": {"category": "Not-Alpha", "trial": 7, "stimulus": 4, "rt": 5261}, "6": {"category": "Not-Alpha", "trial": 6, "stimulus": 2, "rt": 2946}}, "generalization": {"56": {"stimulus": 187, "trial": 56, "rt": 658, "response": "Beta"}, "77": {"stimulus": 218, "trial": 77, "rt": 737, "response": "Beta"}, "54": {"stimulus": 1780, "trial": 54, "rt": 744, "response": "Alpha"}, "42": {"stimulus": 1030, "trial": 42, "rt": 1042, "response": "Alpha"}, "48": {"stimulus": 1999, "trial": 48, "rt": 534, "response": "Alpha"}, "43": {"stimulus": 905, "trial": 43, "rt": 795, "response": "Alpha"}, "60": {"stimulus": 1312, "trial": 60, "rt": 760, "response": "Alpha"}, "61": {"stimulus": 1968, "trial": 61, "rt": 468, "response": "Alpha"}, "62": {"stimulus": 530, "trial": 62, "rt": 702, "response": "Beta"}, "63": {"stimulus": 468, "trial": 63, "rt": 770, "response": "Beta"}, "64": {"stimulus": 1843, "trial": 64, "rt": 668, "response": "Alpha"}, "49": {"stimulus": 780, "trial": 49, "rt": 650, "response": "Alpha"}, "66": {"stimulus": 62, "trial": 66, "rt": 701, "response": "Beta"}, "67": {"stimulus": 0, "trial": 67, "rt": 635, "response": "Beta"}, "68": {"stimulus": 499, "trial": 68, "rt": 1022, "response": "Alpha"}, "69": {"stimulus": 2405, "trial": 69, "rt": 599, "response": "Alpha"}, "80": {"stimulus": 2155, "trial": 80, "rt": 859, "response": "Alpha"}, "52": {"stimulus": 437, "trial": 52, "rt": 1184, "response": "Beta"}, "53": {"stimulus": 1593, "trial": 53, "rt": 609, "response": "Alpha"}, "24": {"stimulus": 593, "trial": 24, "rt": 704, "response": "Beta"}, "25": {"stimulus": 1718, "trial": 25, "rt": 717, "response": "Alpha"}, "26": {"stimulus": 749, "trial": 26, "rt": 914, "response": "Beta"}, "27": {"stimulus": 1374, "trial": 27, "rt": 1261, "response": "Alpha"}, "20": {"stimulus": 2218, "trial": 20, "rt": 387, "response": "Alpha"}, "21": {"stimulus": 1437, "trial": 21, "rt": 338, "response": "Alpha"}, "22": {"stimulus": 2374, "trial": 22, "rt": 385, "response": "Alpha"}, "23": {"stimulus": 405, "trial": 23, "rt": 601, "response": "Beta"}, "46": {"stimulus": 1249, "trial": 46, "rt": 683, "response": "Alpha"}, "47": {"stimulus": 155, "trial": 47, "rt": 643, "response": "Beta"}, "44": {"stimulus": 2437, "trial": 44, "rt": 544, "response": "Alpha"}, "45": {"stimulus": 1624, "trial": 45, "rt": 608, "response": "Alpha"}, "28": {"stimulus": 2062, "trial": 28, "rt": 458, "response": "Alpha"}, "29": {"stimulus": 1749, "trial": 29, "rt": 413, "response": "Alpha"}, "40": {"stimulus": 2187, "trial": 40, "rt": 1111, "response": "Alpha"}, "41": {"stimulus": 1655, "trial": 41, "rt": 402, "response": "Alpha"}, "1": {"stimulus": 93, "trial": 1, "rt": 1560, "response": "Beta"}, "0": {"stimulus": 1218, "trial": 0, "rt": 4290, "response": "Alpha"}, "3": {"stimulus": 1499, "trial": 3, "rt": 784, "response": "Alpha"}, "2": {"stimulus": 343, "trial": 2, "rt": 730, "response": "Beta"}, "5": {"stimulus": 1687, "trial": 5, "rt": 524, "response": "Alpha"}, "4": {"stimulus": 1062, "trial": 4, "rt": 1121, "response": "Alpha"}, "7": {"stimulus": 2280, "trial": 7, "rt": 838, "response": "Alpha"}, "6": {"stimulus": 30, "trial": 6, "rt": 867, "response": "Beta"}, "9": {"stimulus": 1124, "trial": 9, "rt": 1126, "response": "Alpha"}, "8": {"stimulus": 687, "trial": 8, "rt": 1901, "response": "Beta"}, "78": {"stimulus": 1562, "trial": 78, "rt": 645, "response": "Alpha"}, "51": {"stimulus": 2499, "trial": 51, "rt": 599, "response": "Alpha"}, "39": {"stimulus": 874, "trial": 39, "rt": 566, "response": "Alpha"}, "65": {"stimulus": 1468, "trial": 65, "rt": 455, "response": "Alpha"}, "76": {"stimulus": 937, "trial": 76, "rt": 844, "response": "Alpha"}, "75": {"stimulus": 1155, "trial": 75, "rt": 995, "response": "Alpha"}, "38": {"stimulus": 374, "trial": 38, "rt": 594, "response": "Beta"}, "73": {"stimulus": 655, "trial": 73, "rt": 655, "response": "Beta"}, "72": {"stimulus": 1530, "trial": 72, "rt": 543, "response": "Alpha"}, "71": {"stimulus": 999, "trial": 71, "rt": 1165, "response": "Beta"}, "70": {"stimulus": 2312, "trial": 70, "rt": 502, "response": "Alpha"}, "59": {"stimulus": 1405, "trial": 59, "rt": 572, "response": "Alpha"}, "79": {"stimulus": 812, "trial": 79, "rt": 710, "response": "Alpha"}, "58": {"stimulus": 1937, "trial": 58, "rt": 525, "response": "Alpha"}, "11": {"stimulus": 1093, "trial": 11, "rt": 722, "response": "Alpha"}, "10": {"stimulus": 2468, "trial": 10, "rt": 600, "response": "Alpha"}, "13": {"stimulus": 280, "trial": 13, "rt": 852, "response": "Beta"}, "12": {"stimulus": 2124, "trial": 12, "rt": 402, "response": "Alpha"}, "15": {"stimulus": 968, "trial": 15, "rt": 654, "response": "Alpha"}, "14": {"stimulus": 624, "trial": 14, "rt": 867, "response": "Beta"}, "17": {"stimulus": 2093, "trial": 17, "rt": 405, "response": "Alpha"}, "16": {"stimulus": 1280, "trial": 16, "rt": 460, "response": "Alpha"}, "19": {"stimulus": 1343, "trial": 19, "rt": 348, "response": "Alpha"}, "18": {"stimulus": 1905, "trial": 18, "rt": 413, "response": "Alpha"}, "31": {"stimulus": 1874, "trial": 31, "rt": 810, "response": "Alpha"}, "30": {"stimulus": 124, "trial": 30, "rt": 1055, "response": "Beta"}, "37": {"stimulus": 249, "trial": 37, "rt": 767, "response": "Beta"}, "36": {"stimulus": 2030, "trial": 36, "rt": 384, "response": "Alpha"}, "35": {"stimulus": 1187, "trial": 35, "rt": 428, "response": "Alpha"}, "34": {"stimulus": 312, "trial": 34, "rt": 718, "response": "Beta"}, "33": {"stimulus": 1812, "trial": 33, "rt": 359, "response": "Alpha"}, "55": {"stimulus": 843, "trial": 55, "rt": 801, "response": "Alpha"}, "74": {"stimulus": 718, "trial": 74, "rt": 1024, "response": "Alpha"}, "32": {"stimulus": 2249, "trial": 32, "rt": 431, "response": "Alpha"}, "57": {"stimulus": 2343, "trial": 57, "rt": 543, "response": "Alpha"}, "50": {"stimulus": 562, "trial": 50, "rt": 784, "response": "Alpha"}}, "experiment": {"Paradigm": "TACL", "Stimuli": "Size-Color Squares", "Experiment": "Generating-Multiple-Categories"}, "submit": {"timeTotal": 286725, "age": "19", "comments": "this experiment was nothing like what i have done previously on any other HITS, it's really cool", "sex": "MALE"}}