{"info": {"finish": 1548057461564, "participant": 142, "exposed": true, "lab": false, "start": 1548057101820, "counterbalance": 3, "gentype": 0, "condition": "Cluster", "browser": {"platform": "Win32", "userAgent": "Mozilla/5.0 (Windows NT 10.0; Win64; x64) AppleWebKit/537.36 (KHTML, like Gecko) Chrome/71.0.3578.98 Safari/537.36"}}, "observation": {"11": {"stimulus": 392, "trial": 11, "rt": 1605}, "10": {"stimulus": 1093, "trial": 10, "rt": 1734}, "1": {"stimulus": 392, "trial": 1, "rt": 2854}, "0": {"stimulus": 583, "trial": 0, "rt": 2769}, "3": {"stimulus": 1093, "trial": 3, "rt": 1715}, "2": {"stimulus": 1083, "trial": 2, "rt": 3936}, "5": {"stimulus": 1083, "trial": 5, "rt": 1976}, "4": {"stimulus": 1093, "trial": 4, "rt": 1554}, "7": {"stimulus": 583, "trial": 7, "rt": 1574}, "6": {"stimulus": 392, "trial": 6, "rt": 1806}, "9": {"stimulus": 583, "trial": 9, "rt": 1623}, "8": {"stimulus": 1083, "trial": 8, "rt": 1474}}, "generation": {"1": {"category": "Not-Alpha", "trial": 1, "stimulus": 2200, "rt": 5256}, "0": {"category": "Not-Alpha", "trial": 0, "stimulus": 2499, "rt": 10461}, "3": {"category": "Not-Alpha", "trial": 3, "stimulus": 2463, "rt": 8032}, "2": {"category": "Not-Alpha", "trial": 2, "stimulus": 49, "rt": 7620}, "5": {"category": "Not-Alpha", "trial": 5, "stimulus": 12, "rt": 11142}, "4": {"category": "Not-Alpha", "trial": 4, "stimulus": 0, "rt": 5428}, "7": {"category": "Not-Alpha", "trial": 7, "stimulus": 47, "rt": 7589}, "6": {"category": "Not-Alpha", "trial": 6, "stimulus": 2399, "rt": 8770}}, "generalization": {"56": {"stimulus": 2374, "trial": 56, "rt": 1088, "response": "Beta"}, "77": {"stimulus": 93, "trial": 77, "rt": 784, "response": "Beta"}, "54": {"stimulus": 2155, "trial": 54, "rt": 866, "response": "Beta"}, "42": {"stimulus": 62, "trial": 42, "rt": 897, "response": "Beta"}, "48": {"stimulus": 2437, "trial": 48, "rt": 1056, "response": "Beta"}, "43": {"stimulus": 2343, "trial": 43, "rt": 855, "response": "Beta"}, "60": {"stimulus": 1124, "trial": 60, "rt": 3147, "response": "Alpha"}, "61": {"stimulus": 2499, "trial": 61, "rt": 886, "response": "Beta"}, "62": {"stimulus": 1593, "trial": 62, "rt": 1119, "response": "Beta"}, "63": {"stimulus": 1874, "trial": 63, "rt": 1582, "response": "Beta"}, "64": {"stimulus": 749, "trial": 64, "rt": 2714, "response": "Beta"}, "49": {"stimulus": 2093, "trial": 49, "rt": 803, "response": "Beta"}, "66": {"stimulus": 530, "trial": 66, "rt": 1239, "response": "Alpha"}, "67": {"stimulus": 343, "trial": 67, "rt": 1310, "response": "Beta"}, "68": {"stimulus": 1499, "trial": 68, "rt": 1027, "response": "Beta"}, "69": {"stimulus": 2468, "trial": 69, "rt": 946, "response": "Beta"}, "80": {"stimulus": 968, "trial": 80, "rt": 1875, "response": "Beta"}, "52": {"stimulus": 687, "trial": 52, "rt": 2742, "response": "Alpha"}, "53": {"stimulus": 30, "trial": 53, "rt": 1329, "response": "Beta"}, "24": {"stimulus": 1937, "trial": 24, "rt": 806, "response": "Beta"}, "25": {"stimulus": 2187, "trial": 25, "rt": 735, "response": "Beta"}, "26": {"stimulus": 374, "trial": 26, "rt": 2329, "response": "Alpha"}, "27": {"stimulus": 1155, "trial": 27, "rt": 986, "response": "Beta"}, "20": {"stimulus": 1749, "trial": 20, "rt": 795, "response": "Beta"}, "21": {"stimulus": 1624, "trial": 21, "rt": 2391, "response": "Beta"}, "22": {"stimulus": 1812, "trial": 22, "rt": 835, "response": "Beta"}, "23": {"stimulus": 2249, "trial": 23, "rt": 794, "response": "Beta"}, "46": {"stimulus": 249, "trial": 46, "rt": 917, "response": "Beta"}, "47": {"stimulus": 874, "trial": 47, "rt": 1703, "response": "Alpha"}, "44": {"stimulus": 1249, "trial": 44, "rt": 897, "response": "Beta"}, "45": {"stimulus": 1968, "trial": 45, "rt": 906, "response": "Beta"}, "28": {"stimulus": 437, "trial": 28, "rt": 3592, "response": "Alpha"}, "29": {"stimulus": 655, "trial": 29, "rt": 1109, "response": "Beta"}, "40": {"stimulus": 2030, "trial": 40, "rt": 978, "response": "Beta"}, "41": {"stimulus": 1468, "trial": 41, "rt": 925, "response": "Beta"}, "1": {"stimulus": 1187, "trial": 1, "rt": 1281, "response": "Alpha"}, "0": {"stimulus": 562, "trial": 0, "rt": 2208, "response": "Alpha"}, "3": {"stimulus": 843, "trial": 3, "rt": 2623, "response": "Alpha"}, "2": {"stimulus": 1437, "trial": 2, "rt": 1239, "response": "Alpha"}, "5": {"stimulus": 1905, "trial": 5, "rt": 1251, "response": "Beta"}, "4": {"stimulus": 937, "trial": 4, "rt": 1239, "response": "Alpha"}, "7": {"stimulus": 1280, "trial": 7, "rt": 2300, "response": "Beta"}, "6": {"stimulus": 499, "trial": 6, "rt": 1128, "response": "Beta"}, "9": {"stimulus": 1780, "trial": 9, "rt": 1261, "response": "Beta"}, "8": {"stimulus": 2218, "trial": 8, "rt": 1108, "response": "Beta"}, "78": {"stimulus": 593, "trial": 78, "rt": 885, "response": "Beta"}, "51": {"stimulus": 405, "trial": 51, "rt": 1037, "response": "Beta"}, "39": {"stimulus": 1343, "trial": 39, "rt": 897, "response": "Beta"}, "65": {"stimulus": 1030, "trial": 65, "rt": 2903, "response": "Alpha"}, "76": {"stimulus": 1718, "trial": 76, "rt": 927, "response": "Beta"}, "75": {"stimulus": 2405, "trial": 75, "rt": 887, "response": "Beta"}, "38": {"stimulus": 218, "trial": 38, "rt": 1643, "response": "Beta"}, "73": {"stimulus": 124, "trial": 73, "rt": 1685, "response": "Beta"}, "72": {"stimulus": 0, "trial": 72, "rt": 1056, "response": "Beta"}, "71": {"stimulus": 624, "trial": 71, "rt": 1603, "response": "Alpha"}, "70": {"stimulus": 2312, "trial": 70, "rt": 1400, "response": "Beta"}, "59": {"stimulus": 1093, "trial": 59, "rt": 1348, "response": "Beta"}, "79": {"stimulus": 999, "trial": 79, "rt": 1038, "response": "Beta"}, "58": {"stimulus": 780, "trial": 58, "rt": 1835, "response": "Alpha"}, "11": {"stimulus": 1312, "trial": 11, "rt": 1038, "response": "Beta"}, "10": {"stimulus": 905, "trial": 10, "rt": 1129, "response": "Beta"}, "13": {"stimulus": 1062, "trial": 13, "rt": 2340, "response": "Beta"}, "12": {"stimulus": 312, "trial": 12, "rt": 1593, "response": "Beta"}, "15": {"stimulus": 1218, "trial": 15, "rt": 2562, "response": "Alpha"}, "14": {"stimulus": 2124, "trial": 14, "rt": 1148, "response": "Beta"}, "17": {"stimulus": 1530, "trial": 17, "rt": 2381, "response": "Alpha"}, "16": {"stimulus": 1405, "trial": 16, "rt": 1279, "response": "Beta"}, "19": {"stimulus": 187, "trial": 19, "rt": 1753, "response": "Beta"}, "18": {"stimulus": 1562, "trial": 18, "rt": 1038, "response": "Beta"}, "31": {"stimulus": 1687, "trial": 31, "rt": 975, "response": "Beta"}, "30": {"stimulus": 468, "trial": 30, "rt": 1219, "response": "Beta"}, "37": {"stimulus": 280, "trial": 37, "rt": 1542, "response": "Alpha"}, "36": {"stimulus": 1999, "trial": 36, "rt": 1269, "response": "Beta"}, "35": {"stimulus": 1655, "trial": 35, "rt": 1260, "response": "Beta"}, "34": {"stimulus": 812, "trial": 34, "rt": 1077, "response": "Beta"}, "33": {"stimulus": 155, "trial": 33, "rt": 1017, "response": "Beta"}, "55": {"stimulus": 1374, "trial": 55, "rt": 1623, "response": "Alpha"}, "74": {"stimulus": 718, "trial": 74, "rt": 956, "response": "Beta"}, "32": {"stimulus": 1843, "trial": 32, "rt": 997, "response": "Beta"}, "57": {"stimulus": 2062, "trial": 57, "rt": 835, "response": "Beta"}, "50": {"stimulus": 2280, "trial": 50, "rt": 815, "response": "Beta"}}, "experiment": {"Paradigm": "TACL", "Stimuli": "Size-Color Squares", "Experiment": "Generating-Multiple-Categories"}, "submit": {"timeTotal": 360050, "age": "23", "comments": "none", "sex": "female"}}