{"info": {"finish": 1548064940830, "participant": 155, "exposed": true, "lab": false, "start": 1548064443862, "counterbalance": 4, "gentype": 0, "condition": "Row", "browser": {"platform": "Win32", "userAgent": "Mozilla/5.0 (Windows NT 10.0; Win64; x64) AppleWebKit/537.36 (KHTML, like Gecko) Chrome/71.0.3578.98 Safari/537.36"}}, "observation": {"11": {"stimulus": 582, "trial": 11, "rt": 2302}, "10": {"stimulus": 612, "trial": 10, "rt": 2958}, "1": {"stimulus": 493, "trial": 1, "rt": 2014}, "0": {"stimulus": 421, "trial": 0, "rt": 3113}, "3": {"stimulus": 612, "trial": 3, "rt": 2239}, "2": {"stimulus": 582, "trial": 2, "rt": 1967}, "5": {"stimulus": 582, "trial": 5, "rt": 1989}, "4": {"stimulus": 421, "trial": 4, "rt": 2095}, "7": {"stimulus": 493, "trial": 7, "rt": 2215}, "6": {"stimulus": 612, "trial": 6, "rt": 1910}, "9": {"stimulus": 493, "trial": 9, "rt": 1783}, "8": {"stimulus": 421, "trial": 8, "rt": 2112}}, "generation": {"1": {"category": "Not-Alpha", "trial": 1, "stimulus": 2103, "rt": 8319}, "0": {"category": "Not-Alpha", "trial": 0, "stimulus": 1950, "rt": 18717}, "3": {"category": "Not-Alpha", "trial": 3, "stimulus": 2348, "rt": 9582}, "2": {"category": "Not-Alpha", "trial": 2, "stimulus": 2249, "rt": 7302}, "5": {"category": "Not-Alpha", "trial": 5, "stimulus": 2454, "rt": 9839}, "4": {"category": "Not-Alpha", "trial": 4, "stimulus": 2495, "rt": 16879}, "7": {"category": "Not-Alpha", "trial": 7, "stimulus": 2453, "rt": 90943}, "6": {"category": "Not-Alpha", "trial": 6, "stimulus": 2497, "rt": 8077}}, "generalization": {"56": {"stimulus": 1405, "trial": 56, "rt": 1294, "response": "Beta"}, "77": {"stimulus": 905, "trial": 77, "rt": 975, "response": "Beta"}, "54": {"stimulus": 1093, "trial": 54, "rt": 1223, "response": "Alpha"}, "42": {"stimulus": 749, "trial": 42, "rt": 1375, "response": "Beta"}, "48": {"stimulus": 1655, "trial": 48, "rt": 1887, "response": "Beta"}, "43": {"stimulus": 530, "trial": 43, "rt": 879, "response": "Alpha"}, "60": {"stimulus": 1562, "trial": 60, "rt": 1613, "response": "Alpha"}, "61": {"stimulus": 593, "trial": 61, "rt": 1214, "response": "Beta"}, "62": {"stimulus": 2093, "trial": 62, "rt": 999, "response": "Beta"}, "63": {"stimulus": 1374, "trial": 63, "rt": 845, "response": "Alpha"}, "64": {"stimulus": 718, "trial": 64, "rt": 814, "response": "Alpha"}, "49": {"stimulus": 624, "trial": 49, "rt": 1046, "response": "Alpha"}, "66": {"stimulus": 1937, "trial": 66, "rt": 687, "response": "Beta"}, "67": {"stimulus": 1187, "trial": 67, "rt": 966, "response": "Alpha"}, "68": {"stimulus": 2280, "trial": 68, "rt": 975, "response": "Beta"}, "69": {"stimulus": 62, "trial": 69, "rt": 1006, "response": "Alpha"}, "80": {"stimulus": 374, "trial": 80, "rt": 821, "response": "Alpha"}, "52": {"stimulus": 2030, "trial": 52, "rt": 1005, "response": "Beta"}, "53": {"stimulus": 249, "trial": 53, "rt": 1446, "response": "Alpha"}, "24": {"stimulus": 1280, "trial": 24, "rt": 1791, "response": "Beta"}, "25": {"stimulus": 2343, "trial": 25, "rt": 734, "response": "Beta"}, "26": {"stimulus": 1749, "trial": 26, "rt": 678, "response": "Beta"}, "27": {"stimulus": 2218, "trial": 27, "rt": 817, "response": "Beta"}, "20": {"stimulus": 1218, "trial": 20, "rt": 1343, "response": "Alpha"}, "21": {"stimulus": 874, "trial": 21, "rt": 815, "response": "Alpha"}, "22": {"stimulus": 1687, "trial": 22, "rt": 1014, "response": "Beta"}, "23": {"stimulus": 155, "trial": 23, "rt": 846, "response": "Alpha"}, "46": {"stimulus": 1030, "trial": 46, "rt": 1375, "response": "Alpha"}, "47": {"stimulus": 1124, "trial": 47, "rt": 807, "response": "Alpha"}, "44": {"stimulus": 937, "trial": 44, "rt": 694, "response": "Alpha"}, "45": {"stimulus": 780, "trial": 45, "rt": 695, "response": "Alpha"}, "28": {"stimulus": 499, "trial": 28, "rt": 1076, "response": "Alpha"}, "29": {"stimulus": 343, "trial": 29, "rt": 895, "response": "Alpha"}, "40": {"stimulus": 1499, "trial": 40, "rt": 2039, "response": "Beta"}, "41": {"stimulus": 2062, "trial": 41, "rt": 758, "response": "Beta"}, "1": {"stimulus": 0, "trial": 1, "rt": 1125, "response": "Beta"}, "0": {"stimulus": 437, "trial": 0, "rt": 1509, "response": "Alpha"}, "3": {"stimulus": 1905, "trial": 3, "rt": 1887, "response": "Beta"}, "2": {"stimulus": 2499, "trial": 2, "rt": 1285, "response": "Beta"}, "5": {"stimulus": 2312, "trial": 5, "rt": 1182, "response": "Beta"}, "4": {"stimulus": 1468, "trial": 4, "rt": 1023, "response": "Alpha"}, "7": {"stimulus": 843, "trial": 7, "rt": 919, "response": "Alpha"}, "6": {"stimulus": 1530, "trial": 6, "rt": 920, "response": "Alpha"}, "9": {"stimulus": 1343, "trial": 9, "rt": 2272, "response": "Beta"}, "8": {"stimulus": 2124, "trial": 8, "rt": 1367, "response": "Beta"}, "78": {"stimulus": 1968, "trial": 78, "rt": 670, "response": "Beta"}, "51": {"stimulus": 405, "trial": 51, "rt": 766, "response": "Alpha"}, "39": {"stimulus": 218, "trial": 39, "rt": 1030, "response": "Alpha"}, "65": {"stimulus": 1999, "trial": 65, "rt": 1327, "response": "Beta"}, "76": {"stimulus": 30, "trial": 76, "rt": 1022, "response": "Alpha"}, "75": {"stimulus": 1812, "trial": 75, "rt": 1094, "response": "Beta"}, "38": {"stimulus": 187, "trial": 38, "rt": 1073, "response": "Alpha"}, "73": {"stimulus": 812, "trial": 73, "rt": 688, "response": "Alpha"}, "72": {"stimulus": 968, "trial": 72, "rt": 807, "response": "Alpha"}, "71": {"stimulus": 2249, "trial": 71, "rt": 895, "response": "Beta"}, "70": {"stimulus": 2155, "trial": 70, "rt": 957, "response": "Beta"}, "59": {"stimulus": 1249, "trial": 59, "rt": 1055, "response": "Beta"}, "79": {"stimulus": 1155, "trial": 79, "rt": 2470, "response": "Alpha"}, "58": {"stimulus": 1312, "trial": 58, "rt": 998, "response": "Alpha"}, "11": {"stimulus": 312, "trial": 11, "rt": 1254, "response": "Alpha"}, "10": {"stimulus": 1062, "trial": 10, "rt": 1015, "response": "Alpha"}, "13": {"stimulus": 1437, "trial": 13, "rt": 1076, "response": "Alpha"}, "12": {"stimulus": 2468, "trial": 12, "rt": 1398, "response": "Alpha"}, "15": {"stimulus": 93, "trial": 15, "rt": 1438, "response": "Beta"}, "14": {"stimulus": 1718, "trial": 14, "rt": 831, "response": "Alpha"}, "17": {"stimulus": 562, "trial": 17, "rt": 982, "response": "Alpha"}, "16": {"stimulus": 999, "trial": 16, "rt": 838, "response": "Beta"}, "19": {"stimulus": 1624, "trial": 19, "rt": 37406, "response": "Alpha"}, "18": {"stimulus": 655, "trial": 18, "rt": 1112, "response": "Beta"}, "31": {"stimulus": 1593, "trial": 31, "rt": 847, "response": "Beta"}, "30": {"stimulus": 2187, "trial": 30, "rt": 1038, "response": "Beta"}, "37": {"stimulus": 2374, "trial": 37, "rt": 750, "response": "Beta"}, "36": {"stimulus": 1780, "trial": 36, "rt": 1214, "response": "Beta"}, "35": {"stimulus": 280, "trial": 35, "rt": 1061, "response": "Alpha"}, "34": {"stimulus": 2437, "trial": 34, "rt": 1470, "response": "Beta"}, "33": {"stimulus": 124, "trial": 33, "rt": 917, "response": "Alpha"}, "55": {"stimulus": 1874, "trial": 55, "rt": 919, "response": "Beta"}, "74": {"stimulus": 687, "trial": 74, "rt": 1223, "response": "Alpha"}, "32": {"stimulus": 1843, "trial": 32, "rt": 845, "response": "Beta"}, "57": {"stimulus": 2405, "trial": 57, "rt": 942, "response": "Beta"}, "50": {"stimulus": 468, "trial": 50, "rt": 2391, "response": "Alpha"}}, "experiment": {"Paradigm": "TACL", "Stimuli": "Size-Color Squares", "Experiment": "Generating-Multiple-Categories"}, "submit": {"timeTotal": 498447, "age": "29", "comments": "The experiment is interactive", "sex": "Female"}}