{"info": {"finish": 1548070714429, "participant": 160, "exposed": true, "lab": false, "start": 1548070439092, "counterbalance": 7, "gentype": 0, "condition": "Cluster", "browser": {"platform": "Win32", "userAgent": "Mozilla/5.0 (Windows NT 6.1) AppleWebKit/537.36 (KHTML, like Gecko) Chrome/71.0.3578.98 Safari/537.36"}}, "observation": {"11": {"stimulus": 392, "trial": 11, "rt": 1919}, "10": {"stimulus": 583, "trial": 10, "rt": 1879}, "1": {"stimulus": 583, "trial": 1, "rt": 3270}, "0": {"stimulus": 392, "trial": 0, "rt": 4977}, "3": {"stimulus": 1093, "trial": 3, "rt": 1744}, "2": {"stimulus": 1083, "trial": 2, "rt": 2452}, "5": {"stimulus": 1093, "trial": 5, "rt": 1846}, "4": {"stimulus": 1083, "trial": 4, "rt": 1935}, "7": {"stimulus": 392, "trial": 7, "rt": 1647}, "6": {"stimulus": 583, "trial": 6, "rt": 4811}, "9": {"stimulus": 1093, "trial": 9, "rt": 2253}, "8": {"stimulus": 1083, "trial": 8, "rt": 1880}}, "generation": {"1": {"category": "Not-Alpha", "trial": 1, "stimulus": 522, "rt": 4444}, "0": {"category": "Not-Alpha", "trial": 0, "stimulus": 923, "rt": 4110}, "3": {"category": "Not-Alpha", "trial": 3, "stimulus": 1320, "rt": 3590}, "2": {"category": "Not-Alpha", "trial": 2, "stimulus": 1312, "rt": 2870}, "5": {"category": "Not-Alpha", "trial": 5, "stimulus": 1478, "rt": 3083}, "4": {"category": "Not-Alpha", "trial": 4, "stimulus": 979, "rt": 3789}, "7": {"category": "Not-Alpha", "trial": 7, "stimulus": 1279, "rt": 6332}, "6": {"category": "Not-Alpha", "trial": 6, "stimulus": 1330, "rt": 8076}}, "generalization": {"56": {"stimulus": 1874, "trial": 56, "rt": 455, "response": "Alpha"}, "77": {"stimulus": 1530, "trial": 77, "rt": 495, "response": "Alpha"}, "54": {"stimulus": 1905, "trial": 54, "rt": 751, "response": "Alpha"}, "42": {"stimulus": 249, "trial": 42, "rt": 437, "response": "Alpha"}, "48": {"stimulus": 843, "trial": 48, "rt": 382, "response": "Alpha"}, "43": {"stimulus": 1593, "trial": 43, "rt": 735, "response": "Beta"}, "60": {"stimulus": 2437, "trial": 60, "rt": 246, "response": "Alpha"}, "61": {"stimulus": 280, "trial": 61, "rt": 383, "response": "Alpha"}, "62": {"stimulus": 1249, "trial": 62, "rt": 203, "response": "Alpha"}, "63": {"stimulus": 405, "trial": 63, "rt": 446, "response": "Alpha"}, "64": {"stimulus": 2062, "trial": 64, "rt": 630, "response": "Alpha"}, "49": {"stimulus": 1499, "trial": 49, "rt": 398, "response": "Beta"}, "66": {"stimulus": 1843, "trial": 66, "rt": 365, "response": "Alpha"}, "67": {"stimulus": 1655, "trial": 67, "rt": 452, "response": "Alpha"}, "68": {"stimulus": 62, "trial": 68, "rt": 359, "response": "Alpha"}, "69": {"stimulus": 2187, "trial": 69, "rt": 399, "response": "Alpha"}, "80": {"stimulus": 2155, "trial": 80, "rt": 543, "response": "Alpha"}, "52": {"stimulus": 1780, "trial": 52, "rt": 470, "response": "Alpha"}, "53": {"stimulus": 2030, "trial": 53, "rt": 533, "response": "Alpha"}, "24": {"stimulus": 968, "trial": 24, "rt": 798, "response": "Alpha"}, "25": {"stimulus": 718, "trial": 25, "rt": 838, "response": "Alpha"}, "26": {"stimulus": 124, "trial": 26, "rt": 551, "response": "Alpha"}, "27": {"stimulus": 1062, "trial": 27, "rt": 550, "response": "Alpha"}, "20": {"stimulus": 1374, "trial": 20, "rt": 790, "response": "Alpha"}, "21": {"stimulus": 93, "trial": 21, "rt": 670, "response": "Beta"}, "22": {"stimulus": 624, "trial": 22, "rt": 735, "response": "Alpha"}, "23": {"stimulus": 1749, "trial": 23, "rt": 806, "response": "Beta"}, "46": {"stimulus": 2405, "trial": 46, "rt": 430, "response": "Alpha"}, "47": {"stimulus": 593, "trial": 47, "rt": 359, "response": "Alpha"}, "44": {"stimulus": 1718, "trial": 44, "rt": 719, "response": "Alpha"}, "45": {"stimulus": 1030, "trial": 45, "rt": 518, "response": "Alpha"}, "28": {"stimulus": 187, "trial": 28, "rt": 753, "response": "Beta"}, "29": {"stimulus": 1312, "trial": 29, "rt": 822, "response": "Alpha"}, "40": {"stimulus": 2499, "trial": 40, "rt": 1262, "response": "Beta"}, "41": {"stimulus": 2280, "trial": 41, "rt": 710, "response": "Alpha"}, "1": {"stimulus": 1187, "trial": 1, "rt": 2294, "response": "Beta"}, "0": {"stimulus": 312, "trial": 0, "rt": 1947, "response": "Alpha"}, "3": {"stimulus": 1624, "trial": 3, "rt": 768, "response": "Alpha"}, "2": {"stimulus": 874, "trial": 2, "rt": 613, "response": "Alpha"}, "5": {"stimulus": 2374, "trial": 5, "rt": 567, "response": "Alpha"}, "4": {"stimulus": 780, "trial": 4, "rt": 1270, "response": "Beta"}, "7": {"stimulus": 468, "trial": 7, "rt": 632, "response": "Alpha"}, "6": {"stimulus": 2343, "trial": 6, "rt": 828, "response": "Beta"}, "9": {"stimulus": 1937, "trial": 9, "rt": 1023, "response": "Beta"}, "8": {"stimulus": 218, "trial": 8, "rt": 1039, "response": "Beta"}, "78": {"stimulus": 343, "trial": 78, "rt": 597, "response": "Alpha"}, "51": {"stimulus": 1218, "trial": 51, "rt": 416, "response": "Beta"}, "39": {"stimulus": 1405, "trial": 39, "rt": 504, "response": "Alpha"}, "65": {"stimulus": 1343, "trial": 65, "rt": 390, "response": "Alpha"}, "76": {"stimulus": 2124, "trial": 76, "rt": 1048, "response": "Alpha"}, "75": {"stimulus": 1155, "trial": 75, "rt": 2597, "response": "Alpha"}, "38": {"stimulus": 687, "trial": 38, "rt": 478, "response": "Alpha"}, "73": {"stimulus": 2249, "trial": 73, "rt": 493, "response": "Alpha"}, "72": {"stimulus": 1468, "trial": 72, "rt": 455, "response": "Alpha"}, "71": {"stimulus": 1968, "trial": 71, "rt": 589, "response": "Alpha"}, "70": {"stimulus": 999, "trial": 70, "rt": 501, "response": "Alpha"}, "59": {"stimulus": 1437, "trial": 59, "rt": 287, "response": "Alpha"}, "79": {"stimulus": 499, "trial": 79, "rt": 831, "response": "Beta"}, "58": {"stimulus": 2218, "trial": 58, "rt": 422, "response": "Alpha"}, "11": {"stimulus": 1999, "trial": 11, "rt": 521, "response": "Beta"}, "10": {"stimulus": 155, "trial": 10, "rt": 533, "response": "Alpha"}, "13": {"stimulus": 2093, "trial": 13, "rt": 519, "response": "Beta"}, "12": {"stimulus": 530, "trial": 12, "rt": 774, "response": "Alpha"}, "15": {"stimulus": 2312, "trial": 15, "rt": 862, "response": "Alpha"}, "14": {"stimulus": 562, "trial": 14, "rt": 758, "response": "Alpha"}, "17": {"stimulus": 2468, "trial": 17, "rt": 926, "response": "Alpha"}, "16": {"stimulus": 749, "trial": 16, "rt": 694, "response": "Beta"}, "19": {"stimulus": 374, "trial": 19, "rt": 711, "response": "Alpha"}, "18": {"stimulus": 1562, "trial": 18, "rt": 815, "response": "Alpha"}, "31": {"stimulus": 905, "trial": 31, "rt": 1181, "response": "Alpha"}, "30": {"stimulus": 1093, "trial": 30, "rt": 855, "response": "Beta"}, "37": {"stimulus": 655, "trial": 37, "rt": 643, "response": "Alpha"}, "36": {"stimulus": 1280, "trial": 36, "rt": 825, "response": "Alpha"}, "35": {"stimulus": 30, "trial": 35, "rt": 1237, "response": "Alpha"}, "34": {"stimulus": 0, "trial": 34, "rt": 510, "response": "Alpha"}, "33": {"stimulus": 1124, "trial": 33, "rt": 543, "response": "Alpha"}, "55": {"stimulus": 1812, "trial": 55, "rt": 530, "response": "Alpha"}, "74": {"stimulus": 1687, "trial": 74, "rt": 551, "response": "Alpha"}, "32": {"stimulus": 812, "trial": 32, "rt": 815, "response": "Beta"}, "57": {"stimulus": 437, "trial": 57, "rt": 430, "response": "Alpha"}, "50": {"stimulus": 937, "trial": 50, "rt": 454, "response": "Alpha"}}, "experiment": {"Paradigm": "TACL", "Stimuli": "Size-Color Squares", "Experiment": "Generating-Multiple-Categories"}, "submit": {"timeTotal": 276146, "age": "29", "comments": "good", "sex": "male"}}