{"info": {"finish": 1548070941976, "participant": 161, "exposed": true, "lab": false, "start": 1548070606833, "counterbalance": 6, "gentype": 0, "condition": "XOR", "browser": {"platform": "Win32", "userAgent": "Mozilla/5.0 (Windows NT 6.1) AppleWebKit/537.36 (KHTML, like Gecko) Chrome/70.0.3538.102 Safari/537.36 OPR/57.0.3098.116"}}, "observation": {"11": {"stimulus": 818, "trial": 11, "rt": 1975}, "10": {"stimulus": 1890, "trial": 10, "rt": 1480}, "1": {"stimulus": 818, "trial": 1, "rt": 2617}, "0": {"stimulus": 1890, "trial": 0, "rt": 5264}, "3": {"stimulus": 403, "trial": 3, "rt": 1662}, "2": {"stimulus": 1479, "trial": 2, "rt": 1695}, "5": {"stimulus": 403, "trial": 5, "rt": 2119}, "4": {"stimulus": 1479, "trial": 4, "rt": 1490}, "7": {"stimulus": 1890, "trial": 7, "rt": 2998}, "6": {"stimulus": 818, "trial": 6, "rt": 1592}, "9": {"stimulus": 1479, "trial": 9, "rt": 1536}, "8": {"stimulus": 403, "trial": 8, "rt": 3182}}, "generation": {"1": {"category": "Not-Alpha", "trial": 1, "stimulus": 1055, "rt": 6499}, "0": {"category": "Not-Alpha", "trial": 0, "stimulus": 1221, "rt": 11107}, "3": {"category": "Not-Alpha", "trial": 3, "stimulus": 1626, "rt": 5039}, "2": {"category": "Not-Alpha", "trial": 2, "stimulus": 1449, "rt": 9864}, "5": {"category": "Not-Alpha", "trial": 5, "stimulus": 825, "rt": 4593}, "4": {"category": "Not-Alpha", "trial": 4, "stimulus": 1155, "rt": 34476}, "7": {"category": "Not-Alpha", "trial": 7, "stimulus": 49, "rt": 6277}, "6": {"category": "Not-Alpha", "trial": 6, "stimulus": 1005, "rt": 3559}}, "generalization": {"56": {"stimulus": 249, "trial": 56, "rt": 976, "response": "Alpha"}, "77": {"stimulus": 1249, "trial": 77, "rt": 1313, "response": "Alpha"}, "54": {"stimulus": 1312, "trial": 54, "rt": 590, "response": "Alpha"}, "42": {"stimulus": 2062, "trial": 42, "rt": 1351, "response": "Beta"}, "48": {"stimulus": 1874, "trial": 48, "rt": 965, "response": "Alpha"}, "43": {"stimulus": 2280, "trial": 43, "rt": 1092, "response": "Beta"}, "60": {"stimulus": 1937, "trial": 60, "rt": 1121, "response": "Beta"}, "61": {"stimulus": 655, "trial": 61, "rt": 2834, "response": "Alpha"}, "62": {"stimulus": 1780, "trial": 62, "rt": 1415, "response": "Alpha"}, "63": {"stimulus": 2312, "trial": 63, "rt": 919, "response": "Beta"}, "64": {"stimulus": 1093, "trial": 64, "rt": 1089, "response": "Alpha"}, "49": {"stimulus": 1499, "trial": 49, "rt": 843, "response": "Beta"}, "66": {"stimulus": 405, "trial": 66, "rt": 704, "response": "Alpha"}, "67": {"stimulus": 2374, "trial": 67, "rt": 975, "response": "Beta"}, "68": {"stimulus": 1812, "trial": 68, "rt": 1393, "response": "Beta"}, "69": {"stimulus": 1030, "trial": 69, "rt": 1000, "response": "Alpha"}, "80": {"stimulus": 30, "trial": 80, "rt": 724, "response": "Alpha"}, "52": {"stimulus": 1155, "trial": 52, "rt": 727, "response": "Alpha"}, "53": {"stimulus": 1999, "trial": 53, "rt": 936, "response": "Alpha"}, "24": {"stimulus": 780, "trial": 24, "rt": 1215, "response": "Alpha"}, "25": {"stimulus": 1405, "trial": 25, "rt": 1025, "response": "Alpha"}, "26": {"stimulus": 2187, "trial": 26, "rt": 949, "response": "Beta"}, "27": {"stimulus": 2468, "trial": 27, "rt": 584, "response": "Beta"}, "20": {"stimulus": 812, "trial": 20, "rt": 912, "response": "Alpha"}, "21": {"stimulus": 1968, "trial": 21, "rt": 975, "response": "Alpha"}, "22": {"stimulus": 2249, "trial": 22, "rt": 1142, "response": "Beta"}, "23": {"stimulus": 124, "trial": 23, "rt": 1528, "response": "Alpha"}, "46": {"stimulus": 2030, "trial": 46, "rt": 1199, "response": "Beta"}, "47": {"stimulus": 874, "trial": 47, "rt": 1152, "response": "Alpha"}, "44": {"stimulus": 1562, "trial": 44, "rt": 1466, "response": "Alpha"}, "45": {"stimulus": 687, "trial": 45, "rt": 1473, "response": "Alpha"}, "28": {"stimulus": 1655, "trial": 28, "rt": 1270, "response": "Alpha"}, "29": {"stimulus": 1749, "trial": 29, "rt": 1444, "response": "Alpha"}, "40": {"stimulus": 468, "trial": 40, "rt": 1512, "response": "Alpha"}, "41": {"stimulus": 1374, "trial": 41, "rt": 993, "response": "Beta"}, "1": {"stimulus": 312, "trial": 1, "rt": 1567, "response": "Alpha"}, "0": {"stimulus": 499, "trial": 0, "rt": 1830, "response": "Alpha"}, "3": {"stimulus": 1280, "trial": 3, "rt": 1184, "response": "Alpha"}, "2": {"stimulus": 562, "trial": 2, "rt": 1168, "response": "Beta"}, "5": {"stimulus": 2499, "trial": 5, "rt": 787, "response": "Alpha"}, "4": {"stimulus": 2405, "trial": 4, "rt": 1223, "response": "Alpha"}, "7": {"stimulus": 1718, "trial": 7, "rt": 1007, "response": "Beta"}, "6": {"stimulus": 1343, "trial": 6, "rt": 1608, "response": "Alpha"}, "9": {"stimulus": 1437, "trial": 9, "rt": 1007, "response": "Alpha"}, "8": {"stimulus": 1624, "trial": 8, "rt": 904, "response": "Alpha"}, "78": {"stimulus": 2218, "trial": 78, "rt": 927, "response": "Beta"}, "51": {"stimulus": 1468, "trial": 51, "rt": 647, "response": "Alpha"}, "39": {"stimulus": 624, "trial": 39, "rt": 1046, "response": "Alpha"}, "65": {"stimulus": 1687, "trial": 65, "rt": 1319, "response": "Beta"}, "76": {"stimulus": 218, "trial": 76, "rt": 1088, "response": "Alpha"}, "75": {"stimulus": 1218, "trial": 75, "rt": 1199, "response": "Beta"}, "38": {"stimulus": 1905, "trial": 38, "rt": 1214, "response": "Beta"}, "73": {"stimulus": 343, "trial": 73, "rt": 1097, "response": "Alpha"}, "72": {"stimulus": 1530, "trial": 72, "rt": 1808, "response": "Alpha"}, "71": {"stimulus": 2155, "trial": 71, "rt": 1127, "response": "Beta"}, "70": {"stimulus": 2093, "trial": 70, "rt": 1055, "response": "Beta"}, "59": {"stimulus": 62, "trial": 59, "rt": 1458, "response": "Beta"}, "79": {"stimulus": 968, "trial": 79, "rt": 2297, "response": "Alpha"}, "58": {"stimulus": 374, "trial": 58, "rt": 1034, "response": "Alpha"}, "11": {"stimulus": 2124, "trial": 11, "rt": 808, "response": "Alpha"}, "10": {"stimulus": 593, "trial": 10, "rt": 1135, "response": "Alpha"}, "13": {"stimulus": 718, "trial": 13, "rt": 1255, "response": "Beta"}, "12": {"stimulus": 937, "trial": 12, "rt": 1617, "response": "Alpha"}, "15": {"stimulus": 0, "trial": 15, "rt": 814, "response": "Alpha"}, "14": {"stimulus": 843, "trial": 14, "rt": 904, "response": "Alpha"}, "17": {"stimulus": 2343, "trial": 17, "rt": 1153, "response": "Beta"}, "16": {"stimulus": 1187, "trial": 16, "rt": 903, "response": "Alpha"}, "19": {"stimulus": 999, "trial": 19, "rt": 761, "response": "Alpha"}, "18": {"stimulus": 1593, "trial": 18, "rt": 1249, "response": "Alpha"}, "31": {"stimulus": 155, "trial": 31, "rt": 1773, "response": "Alpha"}, "30": {"stimulus": 1124, "trial": 30, "rt": 786, "response": "Alpha"}, "37": {"stimulus": 1843, "trial": 37, "rt": 1007, "response": "Beta"}, "36": {"stimulus": 749, "trial": 36, "rt": 1649, "response": "Alpha"}, "35": {"stimulus": 280, "trial": 35, "rt": 1286, "response": "Beta"}, "34": {"stimulus": 2437, "trial": 34, "rt": 1649, "response": "Beta"}, "33": {"stimulus": 437, "trial": 33, "rt": 760, "response": "Alpha"}, "55": {"stimulus": 1062, "trial": 55, "rt": 575, "response": "Alpha"}, "74": {"stimulus": 530, "trial": 74, "rt": 1776, "response": "Alpha"}, "32": {"stimulus": 93, "trial": 32, "rt": 752, "response": "Alpha"}, "57": {"stimulus": 905, "trial": 57, "rt": 1141, "response": "Alpha"}, "50": {"stimulus": 187, "trial": 50, "rt": 738, "response": "Alpha"}}, "experiment": {"Paradigm": "TACL", "Stimuli": "Size-Color Squares", "Experiment": "Generating-Multiple-Categories"}, "submit": {"timeTotal": 336304, "age": "59", "comments": "nice", "sex": "msle"}}