{"info": {"finish": 1548071989592, "participant": 165, "exposed": true, "lab": false, "start": 1548071731594, "counterbalance": 2, "gentype": 1, "condition": "Row", "browser": {"platform": "Win32", "userAgent": "Mozilla/5.0 (Windows NT 10.0; Win64; x64) AppleWebKit/537.36 (KHTML, like Gecko) Chrome/71.0.3578.98 Safari/537.36"}}, "observation": {"11": {"stimulus": 421, "trial": 11, "rt": 2356}, "10": {"stimulus": 493, "trial": 10, "rt": 1480}, "1": {"stimulus": 612, "trial": 1, "rt": 1685}, "0": {"stimulus": 421, "trial": 0, "rt": 2259}, "3": {"stimulus": 582, "trial": 3, "rt": 2051}, "2": {"stimulus": 493, "trial": 2, "rt": 1875}, "5": {"stimulus": 612, "trial": 5, "rt": 1498}, "4": {"stimulus": 582, "trial": 4, "rt": 1551}, "7": {"stimulus": 493, "trial": 7, "rt": 2583}, "6": {"stimulus": 421, "trial": 6, "rt": 1948}, "9": {"stimulus": 582, "trial": 9, "rt": 1522}, "8": {"stimulus": 612, "trial": 8, "rt": 1571}}, "generation": {"1": {"category": "Beta", "trial": 1, "stimulus": 2454, "rt": 3518}, "0": {"category": "Beta", "trial": 0, "stimulus": 2450, "rt": 5557}, "3": {"category": "Beta", "trial": 3, "stimulus": 2462, "rt": 2978}, "2": {"category": "Beta", "trial": 2, "stimulus": 2456, "rt": 2582}, "5": {"category": "Beta", "trial": 5, "stimulus": 2470, "rt": 4317}, "4": {"category": "Beta", "trial": 4, "stimulus": 2464, "rt": 2996}, "7": {"category": "Beta", "trial": 7, "stimulus": 2477, "rt": 3076}, "6": {"category": "Beta", "trial": 6, "stimulus": 2473, "rt": 9182}}, "generalization": {"56": {"stimulus": 1530, "trial": 56, "rt": 853, "response": "Beta"}, "77": {"stimulus": 812, "trial": 77, "rt": 1061, "response": "Alpha"}, "54": {"stimulus": 530, "trial": 54, "rt": 489, "response": "Alpha"}, "42": {"stimulus": 1874, "trial": 42, "rt": 652, "response": "Beta"}, "48": {"stimulus": 1062, "trial": 48, "rt": 678, "response": "Alpha"}, "43": {"stimulus": 749, "trial": 43, "rt": 625, "response": "Alpha"}, "60": {"stimulus": 2437, "trial": 60, "rt": 572, "response": "Beta"}, "61": {"stimulus": 1624, "trial": 61, "rt": 632, "response": "Beta"}, "62": {"stimulus": 499, "trial": 62, "rt": 815, "response": "Alpha"}, "63": {"stimulus": 218, "trial": 63, "rt": 807, "response": "Alpha"}, "64": {"stimulus": 1593, "trial": 64, "rt": 632, "response": "Beta"}, "49": {"stimulus": 1280, "trial": 49, "rt": 601, "response": "Alpha"}, "66": {"stimulus": 1968, "trial": 66, "rt": 621, "response": "Beta"}, "67": {"stimulus": 1655, "trial": 67, "rt": 659, "response": "Beta"}, "68": {"stimulus": 1499, "trial": 68, "rt": 886, "response": "Alpha"}, "69": {"stimulus": 968, "trial": 69, "rt": 664, "response": "Alpha"}, "80": {"stimulus": 62, "trial": 80, "rt": 626, "response": "Alpha"}, "52": {"stimulus": 1562, "trial": 52, "rt": 618, "response": "Beta"}, "53": {"stimulus": 1937, "trial": 53, "rt": 540, "response": "Beta"}, "24": {"stimulus": 374, "trial": 24, "rt": 570, "response": "Alpha"}, "25": {"stimulus": 2187, "trial": 25, "rt": 624, "response": "Beta"}, "26": {"stimulus": 1405, "trial": 26, "rt": 482, "response": "Beta"}, "27": {"stimulus": 1437, "trial": 27, "rt": 543, "response": "Beta"}, "20": {"stimulus": 2030, "trial": 20, "rt": 1241, "response": "Beta"}, "21": {"stimulus": 1687, "trial": 21, "rt": 493, "response": "Beta"}, "22": {"stimulus": 1468, "trial": 22, "rt": 611, "response": "Beta"}, "23": {"stimulus": 655, "trial": 23, "rt": 595, "response": "Alpha"}, "46": {"stimulus": 1187, "trial": 46, "rt": 780, "response": "Alpha"}, "47": {"stimulus": 93, "trial": 47, "rt": 551, "response": "Alpha"}, "44": {"stimulus": 687, "trial": 44, "rt": 764, "response": "Alpha"}, "45": {"stimulus": 1749, "trial": 45, "rt": 694, "response": "Beta"}, "28": {"stimulus": 2468, "trial": 28, "rt": 1117, "response": "Beta"}, "29": {"stimulus": 2280, "trial": 29, "rt": 470, "response": "Beta"}, "40": {"stimulus": 937, "trial": 40, "rt": 873, "response": "Alpha"}, "41": {"stimulus": 1155, "trial": 41, "rt": 892, "response": "Alpha"}, "1": {"stimulus": 2124, "trial": 1, "rt": 659, "response": "Alpha"}, "0": {"stimulus": 1374, "trial": 0, "rt": 2546, "response": "Alpha"}, "3": {"stimulus": 1249, "trial": 3, "rt": 813, "response": "Alpha"}, "2": {"stimulus": 2062, "trial": 2, "rt": 3252, "response": "Beta"}, "5": {"stimulus": 2405, "trial": 5, "rt": 744, "response": "Beta"}, "4": {"stimulus": 0, "trial": 4, "rt": 770, "response": "Alpha"}, "7": {"stimulus": 1780, "trial": 7, "rt": 794, "response": "Beta"}, "6": {"stimulus": 1218, "trial": 6, "rt": 1148, "response": "Alpha"}, "9": {"stimulus": 1124, "trial": 9, "rt": 942, "response": "Alpha"}, "8": {"stimulus": 1905, "trial": 8, "rt": 702, "response": "Beta"}, "78": {"stimulus": 562, "trial": 78, "rt": 509, "response": "Alpha"}, "51": {"stimulus": 1843, "trial": 51, "rt": 1300, "response": "Beta"}, "39": {"stimulus": 312, "trial": 39, "rt": 610, "response": "Alpha"}, "65": {"stimulus": 1812, "trial": 65, "rt": 672, "response": "Beta"}, "76": {"stimulus": 593, "trial": 76, "rt": 691, "response": "Alpha"}, "75": {"stimulus": 2155, "trial": 75, "rt": 675, "response": "Beta"}, "38": {"stimulus": 2499, "trial": 38, "rt": 694, "response": "Beta"}, "73": {"stimulus": 437, "trial": 73, "rt": 729, "response": "Alpha"}, "72": {"stimulus": 1312, "trial": 72, "rt": 583, "response": "Beta"}, "71": {"stimulus": 280, "trial": 71, "rt": 700, "response": "Alpha"}, "70": {"stimulus": 874, "trial": 70, "rt": 547, "response": "Alpha"}, "59": {"stimulus": 2218, "trial": 59, "rt": 616, "response": "Beta"}, "79": {"stimulus": 999, "trial": 79, "rt": 511, "response": "Alpha"}, "58": {"stimulus": 405, "trial": 58, "rt": 612, "response": "Alpha"}, "11": {"stimulus": 2249, "trial": 11, "rt": 550, "response": "Beta"}, "10": {"stimulus": 2374, "trial": 10, "rt": 814, "response": "Beta"}, "13": {"stimulus": 343, "trial": 13, "rt": 619, "response": "Alpha"}, "12": {"stimulus": 718, "trial": 12, "rt": 668, "response": "Alpha"}, "15": {"stimulus": 1718, "trial": 15, "rt": 714, "response": "Beta"}, "14": {"stimulus": 249, "trial": 14, "rt": 1221, "response": "Alpha"}, "17": {"stimulus": 1030, "trial": 17, "rt": 1189, "response": "Alpha"}, "16": {"stimulus": 2312, "trial": 16, "rt": 522, "response": "Beta"}, "19": {"stimulus": 155, "trial": 19, "rt": 642, "response": "Alpha"}, "18": {"stimulus": 468, "trial": 18, "rt": 729, "response": "Alpha"}, "31": {"stimulus": 1343, "trial": 31, "rt": 2387, "response": "Alpha"}, "30": {"stimulus": 2343, "trial": 30, "rt": 959, "response": "Beta"}, "37": {"stimulus": 2093, "trial": 37, "rt": 614, "response": "Beta"}, "36": {"stimulus": 780, "trial": 36, "rt": 1862, "response": "Alpha"}, "35": {"stimulus": 30, "trial": 35, "rt": 673, "response": "Alpha"}, "34": {"stimulus": 187, "trial": 34, "rt": 4093, "response": "Alpha"}, "33": {"stimulus": 1999, "trial": 33, "rt": 928, "response": "Beta"}, "55": {"stimulus": 843, "trial": 55, "rt": 671, "response": "Alpha"}, "74": {"stimulus": 124, "trial": 74, "rt": 522, "response": "Alpha"}, "32": {"stimulus": 624, "trial": 32, "rt": 567, "response": "Alpha"}, "57": {"stimulus": 905, "trial": 57, "rt": 564, "response": "Alpha"}, "50": {"stimulus": 1093, "trial": 50, "rt": 1187, "response": "Alpha"}}, "experiment": {"Paradigm": "TACL", "Stimuli": "Size-Color Squares", "Experiment": "Generating-Multiple-Categories"}, "submit": {"timeTotal": 258098, "age": "24", "comments": "", "sex": "Male"}}