{"info": {"finish": 1548077537460, "participant": 172, "exposed": true, "lab": false, "start": 1548076720688, "counterbalance": 4, "gentype": 0, "condition": "XOR", "browser": {"platform": "MacIntel", "userAgent": "Mozilla/5.0 (Macintosh; Intel Mac OS X 10_13_6) AppleWebKit/537.36 (KHTML, like Gecko) Chrome/71.0.3578.98 Safari/537.36"}}, "observation": {"11": {"stimulus": 1890, "trial": 11, "rt": 1369}, "10": {"stimulus": 818, "trial": 10, "rt": 1365}, "1": {"stimulus": 1890, "trial": 1, "rt": 1989}, "0": {"stimulus": 1479, "trial": 0, "rt": 2260}, "3": {"stimulus": 818, "trial": 3, "rt": 2434}, "2": {"stimulus": 403, "trial": 2, "rt": 1457}, "5": {"stimulus": 1479, "trial": 5, "rt": 1500}, "4": {"stimulus": 818, "trial": 4, "rt": 1146}, "7": {"stimulus": 1890, "trial": 7, "rt": 1444}, "6": {"stimulus": 403, "trial": 6, "rt": 1468}, "9": {"stimulus": 1479, "trial": 9, "rt": 1426}, "8": {"stimulus": 403, "trial": 8, "rt": 1386}}, "generation": {"1": {"category": "Not-Alpha", "trial": 1, "stimulus": 2450, "rt": 3750}, "0": {"category": "Not-Alpha", "trial": 0, "stimulus": 49, "rt": 13491}, "3": {"category": "Not-Alpha", "trial": 3, "stimulus": 2249, "rt": 6172}, "2": {"category": "Not-Alpha", "trial": 2, "stimulus": 2150, "rt": 3452}, "5": {"category": "Not-Alpha", "trial": 5, "stimulus": 1281, "rt": 3542}, "4": {"category": "Not-Alpha", "trial": 4, "stimulus": 35, "rt": 7476}, "7": {"category": "Not-Alpha", "trial": 7, "stimulus": 2256, "rt": 4777}, "6": {"category": "Not-Alpha", "trial": 6, "stimulus": 828, "rt": 4642}}, "generalization": {"56": {"stimulus": 1468, "trial": 56, "rt": 984, "response": "Alpha"}, "77": {"stimulus": 1187, "trial": 77, "rt": 275, "response": "Alpha"}, "54": {"stimulus": 562, "trial": 54, "rt": 1270, "response": "Alpha"}, "42": {"stimulus": 1155, "trial": 42, "rt": 761, "response": "Alpha"}, "48": {"stimulus": 1530, "trial": 48, "rt": 1369, "response": "Alpha"}, "43": {"stimulus": 843, "trial": 43, "rt": 389, "response": "Alpha"}, "60": {"stimulus": 1812, "trial": 60, "rt": 1720, "response": "Alpha"}, "61": {"stimulus": 2030, "trial": 61, "rt": 459, "response": "Alpha"}, "62": {"stimulus": 2249, "trial": 62, "rt": 2731, "response": "Beta"}, "63": {"stimulus": 1593, "trial": 63, "rt": 1444, "response": "Beta"}, "64": {"stimulus": 1874, "trial": 64, "rt": 3152, "response": "Beta"}, "49": {"stimulus": 905, "trial": 49, "rt": 579, "response": "Alpha"}, "66": {"stimulus": 93, "trial": 66, "rt": 1645, "response": "Alpha"}, "67": {"stimulus": 999, "trial": 67, "rt": 67, "response": "Alpha"}, "68": {"stimulus": 1562, "trial": 68, "rt": 968, "response": "Alpha"}, "69": {"stimulus": 968, "trial": 69, "rt": 721, "response": "Beta"}, "80": {"stimulus": 2405, "trial": 80, "rt": 158, "response": "Beta"}, "52": {"stimulus": 2499, "trial": 52, "rt": 706, "response": "Alpha"}, "53": {"stimulus": 499, "trial": 53, "rt": 1267, "response": "Beta"}, "24": {"stimulus": 1030, "trial": 24, "rt": 554, "response": "Alpha"}, "25": {"stimulus": 624, "trial": 25, "rt": 532, "response": "Alpha"}, "26": {"stimulus": 30, "trial": 26, "rt": 405, "response": "Alpha"}, "27": {"stimulus": 780, "trial": 27, "rt": 1035, "response": "Beta"}, "20": {"stimulus": 155, "trial": 20, "rt": 918, "response": "Alpha"}, "21": {"stimulus": 937, "trial": 21, "rt": 429, "response": "Beta"}, "22": {"stimulus": 1905, "trial": 22, "rt": 2479, "response": "Alpha"}, "23": {"stimulus": 437, "trial": 23, "rt": 701, "response": "Beta"}, "46": {"stimulus": 1624, "trial": 46, "rt": 1509, "response": "Alpha"}, "47": {"stimulus": 1218, "trial": 47, "rt": 710, "response": "Beta"}, "44": {"stimulus": 1312, "trial": 44, "rt": 1065, "response": "Beta"}, "45": {"stimulus": 1749, "trial": 45, "rt": 1010, "response": "Alpha"}, "28": {"stimulus": 0, "trial": 28, "rt": 646, "response": "Alpha"}, "29": {"stimulus": 1280, "trial": 29, "rt": 906, "response": "Beta"}, "40": {"stimulus": 2280, "trial": 40, "rt": 703, "response": "Alpha"}, "41": {"stimulus": 2468, "trial": 41, "rt": 1149, "response": "Beta"}, "1": {"stimulus": 187, "trial": 1, "rt": 1359, "response": "Beta"}, "0": {"stimulus": 1124, "trial": 0, "rt": 2002, "response": "Alpha"}, "3": {"stimulus": 1843, "trial": 3, "rt": 984, "response": "Alpha"}, "2": {"stimulus": 2124, "trial": 2, "rt": 1363, "response": "Alpha"}, "5": {"stimulus": 1780, "trial": 5, "rt": 1104, "response": "Beta"}, "4": {"stimulus": 1374, "trial": 4, "rt": 1232, "response": "Beta"}, "7": {"stimulus": 62, "trial": 7, "rt": 775, "response": "Alpha"}, "6": {"stimulus": 312, "trial": 6, "rt": 1377, "response": "Alpha"}, "9": {"stimulus": 1655, "trial": 9, "rt": 335, "response": "Alpha"}, "8": {"stimulus": 1937, "trial": 8, "rt": 1206, "response": "Beta"}, "78": {"stimulus": 1249, "trial": 78, "rt": 186, "response": "Alpha"}, "51": {"stimulus": 2312, "trial": 51, "rt": 2087, "response": "Alpha"}, "39": {"stimulus": 1718, "trial": 39, "rt": 2385, "response": "Alpha"}, "65": {"stimulus": 874, "trial": 65, "rt": 491, "response": "Alpha"}, "76": {"stimulus": 2187, "trial": 76, "rt": 356, "response": "Alpha"}, "75": {"stimulus": 687, "trial": 75, "rt": 430, "response": "Alpha"}, "38": {"stimulus": 1999, "trial": 38, "rt": 2828, "response": "Alpha"}, "73": {"stimulus": 1343, "trial": 73, "rt": 2970, "response": "Beta"}, "72": {"stimulus": 530, "trial": 72, "rt": 603, "response": "Alpha"}, "71": {"stimulus": 1499, "trial": 71, "rt": 618, "response": "Alpha"}, "70": {"stimulus": 405, "trial": 70, "rt": 699, "response": "Alpha"}, "59": {"stimulus": 812, "trial": 59, "rt": 634, "response": "Alpha"}, "79": {"stimulus": 2093, "trial": 79, "rt": 151, "response": "Alpha"}, "58": {"stimulus": 593, "trial": 58, "rt": 3473, "response": "Beta"}, "11": {"stimulus": 1062, "trial": 11, "rt": 330, "response": "Alpha"}, "10": {"stimulus": 2437, "trial": 10, "rt": 349, "response": "Alpha"}, "13": {"stimulus": 1968, "trial": 13, "rt": 271, "response": "Alpha"}, "12": {"stimulus": 468, "trial": 12, "rt": 415, "response": "Alpha"}, "15": {"stimulus": 2218, "trial": 15, "rt": 821, "response": "Beta"}, "14": {"stimulus": 280, "trial": 14, "rt": 902, "response": "Beta"}, "17": {"stimulus": 2343, "trial": 17, "rt": 1219, "response": "Alpha"}, "16": {"stimulus": 343, "trial": 16, "rt": 432, "response": "Beta"}, "19": {"stimulus": 718, "trial": 19, "rt": 1902, "response": "Beta"}, "18": {"stimulus": 249, "trial": 18, "rt": 453, "response": "Alpha"}, "31": {"stimulus": 1093, "trial": 31, "rt": 461, "response": "Alpha"}, "30": {"stimulus": 1687, "trial": 30, "rt": 730, "response": "Alpha"}, "37": {"stimulus": 2062, "trial": 37, "rt": 898, "response": "Alpha"}, "36": {"stimulus": 1437, "trial": 36, "rt": 2368, "response": "Beta"}, "35": {"stimulus": 374, "trial": 35, "rt": 1242, "response": "Alpha"}, "34": {"stimulus": 2374, "trial": 34, "rt": 2396, "response": "Beta"}, "33": {"stimulus": 2155, "trial": 33, "rt": 775, "response": "Beta"}, "55": {"stimulus": 749, "trial": 55, "rt": 616, "response": "Alpha"}, "74": {"stimulus": 218, "trial": 74, "rt": 413, "response": "Alpha"}, "32": {"stimulus": 655, "trial": 32, "rt": 626, "response": "Alpha"}, "57": {"stimulus": 1405, "trial": 57, "rt": 604, "response": "Beta"}, "50": {"stimulus": 124, "trial": 50, "rt": 1354, "response": "Beta"}}, "experiment": {"Paradigm": "TACL", "Stimuli": "Size-Color Squares", "Experiment": "Generating-Multiple-Categories"}, "submit": {"timeTotal": 817073, "age": "25", "comments": "n/a", "sex": "female"}}