{"info": {"finish": 1548080191065, "participant": 181, "exposed": true, "lab": false, "start": 1548079843779, "counterbalance": 2, "gentype": 2, "condition": "XOR", "browser": {"platform": "Win32", "userAgent": "Mozilla/5.0 (Windows NT 10.0; Win64; x64) AppleWebKit/537.36 (KHTML, like Gecko) Chrome/71.0.3578.98 Safari/537.36"}}, "observation": {"11": {"stimulus": 1890, "trial": 11, "rt": 1516}, "10": {"stimulus": 818, "trial": 10, "rt": 1531}, "1": {"stimulus": 1479, "trial": 1, "rt": 2624}, "0": {"stimulus": 1890, "trial": 0, "rt": 2870}, "3": {"stimulus": 403, "trial": 3, "rt": 1959}, "2": {"stimulus": 818, "trial": 2, "rt": 2035}, "5": {"stimulus": 818, "trial": 5, "rt": 1656}, "4": {"stimulus": 1479, "trial": 4, "rt": 1940}, "7": {"stimulus": 403, "trial": 7, "rt": 2368}, "6": {"stimulus": 1890, "trial": 6, "rt": 1591}, "9": {"stimulus": 403, "trial": 9, "rt": 1560}, "8": {"stimulus": 1479, "trial": 8, "rt": 1508}}, "generation": {"1": {"category": "Beta", "trial": 1, "stimulus": 142, "rt": 9996}, "0": {"category": "Beta", "trial": 0, "stimulus": 49, "rt": 7750}, "3": {"category": "Beta", "trial": 3, "stimulus": 0, "rt": 6409}, "2": {"category": "Beta", "trial": 2, "stimulus": 26, "rt": 12768}, "5": {"category": "Gamma", "trial": 5, "stimulus": 2237, "rt": 13036}, "4": {"category": "Gamma", "trial": 4, "stimulus": 2499, "rt": 7315}, "7": {"category": "Gamma", "trial": 7, "stimulus": 2450, "rt": 3869}, "6": {"category": "Gamma", "trial": 6, "stimulus": 2122, "rt": 6223}}, "generalization": {"56": {"stimulus": 2249, "trial": 56, "rt": 1849, "response": "Gamma"}, "77": {"stimulus": 0, "trial": 77, "rt": 1012, "response": "Beta"}, "54": {"stimulus": 1249, "trial": 54, "rt": 502, "response": "Alpha"}, "42": {"stimulus": 30, "trial": 42, "rt": 817, "response": "Beta"}, "48": {"stimulus": 2405, "trial": 48, "rt": 1092, "response": "Gamma"}, "43": {"stimulus": 2062, "trial": 43, "rt": 921, "response": "Gamma"}, "60": {"stimulus": 624, "trial": 60, "rt": 803, "response": "Alpha"}, "61": {"stimulus": 937, "trial": 61, "rt": 557, "response": "Alpha"}, "62": {"stimulus": 155, "trial": 62, "rt": 914, "response": "Beta"}, "63": {"stimulus": 437, "trial": 63, "rt": 578, "response": "Beta"}, "64": {"stimulus": 1093, "trial": 64, "rt": 951, "response": "Alpha"}, "49": {"stimulus": 62, "trial": 49, "rt": 963, "response": "Beta"}, "66": {"stimulus": 280, "trial": 66, "rt": 874, "response": "Beta"}, "67": {"stimulus": 562, "trial": 67, "rt": 1135, "response": "Alpha"}, "68": {"stimulus": 1905, "trial": 68, "rt": 997, "response": "Gamma"}, "69": {"stimulus": 812, "trial": 69, "rt": 703, "response": "Alpha"}, "80": {"stimulus": 1124, "trial": 80, "rt": 1569, "response": "Alpha"}, "52": {"stimulus": 2374, "trial": 52, "rt": 1328, "response": "Gamma"}, "53": {"stimulus": 1280, "trial": 53, "rt": 1044, "response": "Alpha"}, "24": {"stimulus": 2030, "trial": 24, "rt": 1277, "response": "Gamma"}, "25": {"stimulus": 2093, "trial": 25, "rt": 1042, "response": "Beta"}, "26": {"stimulus": 874, "trial": 26, "rt": 1957, "response": "Alpha"}, "27": {"stimulus": 1655, "trial": 27, "rt": 1160, "response": "Alpha"}, "20": {"stimulus": 93, "trial": 20, "rt": 748, "response": "Beta"}, "21": {"stimulus": 1062, "trial": 21, "rt": 1098, "response": "Alpha"}, "22": {"stimulus": 1155, "trial": 22, "rt": 757, "response": "Alpha"}, "23": {"stimulus": 1218, "trial": 23, "rt": 618, "response": "Alpha"}, "46": {"stimulus": 718, "trial": 46, "rt": 864, "response": "Alpha"}, "47": {"stimulus": 593, "trial": 47, "rt": 888, "response": "Beta"}, "44": {"stimulus": 1530, "trial": 44, "rt": 903, "response": "Alpha"}, "45": {"stimulus": 1312, "trial": 45, "rt": 541, "response": "Alpha"}, "28": {"stimulus": 2280, "trial": 28, "rt": 673, "response": "Alpha"}, "29": {"stimulus": 405, "trial": 29, "rt": 1228, "response": "Beta"}, "40": {"stimulus": 780, "trial": 40, "rt": 1213, "response": "Alpha"}, "41": {"stimulus": 905, "trial": 41, "rt": 605, "response": "Alpha"}, "1": {"stimulus": 1499, "trial": 1, "rt": 1089, "response": "Alpha"}, "0": {"stimulus": 1187, "trial": 0, "rt": 3374, "response": "Alpha"}, "3": {"stimulus": 1624, "trial": 3, "rt": 1221, "response": "Alpha"}, "2": {"stimulus": 2437, "trial": 2, "rt": 1345, "response": "Gamma"}, "5": {"stimulus": 374, "trial": 5, "rt": 1282, "response": "Beta"}, "4": {"stimulus": 1468, "trial": 4, "rt": 657, "response": "Alpha"}, "7": {"stimulus": 2218, "trial": 7, "rt": 665, "response": "Alpha"}, "6": {"stimulus": 1687, "trial": 6, "rt": 920, "response": "Alpha"}, "9": {"stimulus": 2499, "trial": 9, "rt": 1267, "response": "Gamma"}, "8": {"stimulus": 1343, "trial": 8, "rt": 787, "response": "Alpha"}, "78": {"stimulus": 1749, "trial": 78, "rt": 752, "response": "Alpha"}, "51": {"stimulus": 1937, "trial": 51, "rt": 1066, "response": "Gamma"}, "39": {"stimulus": 2343, "trial": 39, "rt": 1406, "response": "Gamma"}, "65": {"stimulus": 1405, "trial": 65, "rt": 608, "response": "Alpha"}, "76": {"stimulus": 1812, "trial": 76, "rt": 2158, "response": "Alpha"}, "75": {"stimulus": 530, "trial": 75, "rt": 1422, "response": "Beta"}, "38": {"stimulus": 1718, "trial": 38, "rt": 477, "response": "Alpha"}, "73": {"stimulus": 1999, "trial": 73, "rt": 1379, "response": "Gamma"}, "72": {"stimulus": 1843, "trial": 72, "rt": 708, "response": "Alpha"}, "71": {"stimulus": 1374, "trial": 71, "rt": 895, "response": "Alpha"}, "70": {"stimulus": 218, "trial": 70, "rt": 812, "response": "Beta"}, "59": {"stimulus": 2468, "trial": 59, "rt": 1025, "response": "Gamma"}, "79": {"stimulus": 312, "trial": 79, "rt": 1469, "response": "Beta"}, "58": {"stimulus": 2124, "trial": 58, "rt": 1090, "response": "Alpha"}, "11": {"stimulus": 1437, "trial": 11, "rt": 642, "response": "Alpha"}, "10": {"stimulus": 968, "trial": 10, "rt": 1182, "response": "Alpha"}, "13": {"stimulus": 2155, "trial": 13, "rt": 1810, "response": "Gamma"}, "12": {"stimulus": 468, "trial": 12, "rt": 1174, "response": "Beta"}, "15": {"stimulus": 655, "trial": 15, "rt": 810, "response": "Alpha"}, "14": {"stimulus": 1593, "trial": 14, "rt": 1067, "response": "Alpha"}, "17": {"stimulus": 124, "trial": 17, "rt": 882, "response": "Beta"}, "16": {"stimulus": 999, "trial": 16, "rt": 805, "response": "Alpha"}, "19": {"stimulus": 187, "trial": 19, "rt": 835, "response": "Beta"}, "18": {"stimulus": 1780, "trial": 18, "rt": 1005, "response": "Alpha"}, "31": {"stimulus": 1030, "trial": 31, "rt": 983, "response": "Alpha"}, "30": {"stimulus": 343, "trial": 30, "rt": 1477, "response": "Beta"}, "37": {"stimulus": 1968, "trial": 37, "rt": 833, "response": "Alpha"}, "36": {"stimulus": 2312, "trial": 36, "rt": 1416, "response": "Gamma"}, "35": {"stimulus": 2187, "trial": 35, "rt": 493, "response": "Alpha"}, "34": {"stimulus": 1874, "trial": 34, "rt": 1237, "response": "Gamma"}, "33": {"stimulus": 499, "trial": 33, "rt": 640, "response": "Beta"}, "55": {"stimulus": 687, "trial": 55, "rt": 694, "response": "Alpha"}, "74": {"stimulus": 1562, "trial": 74, "rt": 1027, "response": "Alpha"}, "32": {"stimulus": 249, "trial": 32, "rt": 1005, "response": "Beta"}, "57": {"stimulus": 843, "trial": 57, "rt": 662, "response": "Alpha"}, "50": {"stimulus": 749, "trial": 50, "rt": 888, "response": "Alpha"}}, "experiment": {"Paradigm": "TACL", "Stimuli": "Size-Color Squares", "Experiment": "Generating-Multiple-Categories"}, "submit": {"timeTotal": 347786, "age": "30", "comments": "It was interesting", "sex": "Male"}}