{"info": {"finish": 1548084160639, "participant": 182, "exposed": true, "lab": false, "start": 1548083534554, "counterbalance": 0, "gentype": 1, "condition": "Cluster", "browser": {"platform": "Win32", "userAgent": "Mozilla/5.0 (Windows NT 10.0; Win64; x64) AppleWebKit/537.36 (KHTML, like Gecko) Chrome/71.0.3578.98 Safari/537.36"}}, "observation": {"11": {"stimulus": 1083, "trial": 11, "rt": 7863}, "10": {"stimulus": 583, "trial": 10, "rt": 10095}, "1": {"stimulus": 1083, "trial": 1, "rt": 10798}, "0": {"stimulus": 392, "trial": 0, "rt": 12052}, "3": {"stimulus": 583, "trial": 3, "rt": 32946}, "2": {"stimulus": 1093, "trial": 2, "rt": 13671}, "5": {"stimulus": 1093, "trial": 5, "rt": 17281}, "4": {"stimulus": 583, "trial": 4, "rt": 24153}, "7": {"stimulus": 392, "trial": 7, "rt": 7896}, "6": {"stimulus": 1083, "trial": 6, "rt": 10072}, "9": {"stimulus": 392, "trial": 9, "rt": 13049}, "8": {"stimulus": 1093, "trial": 8, "rt": 23287}}, "generation": {"1": {"category": "Beta", "trial": 1, "stimulus": 602, "rt": 8997}, "0": {"category": "Beta", "trial": 0, "stimulus": 1050, "rt": 36475}, "3": {"category": "Beta", "trial": 3, "stimulus": 1353, "rt": 15152}, "2": {"category": "Beta", "trial": 2, "stimulus": 952, "rt": 11038}, "5": {"category": "Beta", "trial": 5, "stimulus": 507, "rt": 9329}, "4": {"category": "Beta", "trial": 4, "stimulus": 808, "rt": 8552}, "7": {"category": "Beta", "trial": 7, "stimulus": 8, "rt": 8302}, "6": {"category": "Beta", "trial": 6, "stimulus": 509, "rt": 10063}}, "generalization": {"56": {"stimulus": 1530, "trial": 56, "rt": 4719, "response": "Alpha"}, "77": {"stimulus": 1937, "trial": 77, "rt": 1214, "response": "Beta"}, "54": {"stimulus": 718, "trial": 54, "rt": 1264, "response": "Beta"}, "42": {"stimulus": 2312, "trial": 42, "rt": 789, "response": "Beta"}, "48": {"stimulus": 687, "trial": 48, "rt": 1030, "response": "Alpha"}, "43": {"stimulus": 62, "trial": 43, "rt": 1088, "response": "Alpha"}, "60": {"stimulus": 2030, "trial": 60, "rt": 1582, "response": "Beta"}, "61": {"stimulus": 2062, "trial": 61, "rt": 1479, "response": "Beta"}, "62": {"stimulus": 1155, "trial": 62, "rt": 1439, "response": "Beta"}, "63": {"stimulus": 1874, "trial": 63, "rt": 3957, "response": "Beta"}, "64": {"stimulus": 1312, "trial": 64, "rt": 1181, "response": "Beta"}, "49": {"stimulus": 1437, "trial": 49, "rt": 1103, "response": "Beta"}, "66": {"stimulus": 124, "trial": 66, "rt": 792, "response": "Alpha"}, "67": {"stimulus": 1124, "trial": 67, "rt": 1070, "response": "Alpha"}, "68": {"stimulus": 1999, "trial": 68, "rt": 1246, "response": "Alpha"}, "69": {"stimulus": 2374, "trial": 69, "rt": 848, "response": "Beta"}, "80": {"stimulus": 655, "trial": 80, "rt": 760, "response": "Beta"}, "52": {"stimulus": 1843, "trial": 52, "rt": 2398, "response": "Alpha"}, "53": {"stimulus": 1780, "trial": 53, "rt": 991, "response": "Beta"}, "24": {"stimulus": 2280, "trial": 24, "rt": 1086, "response": "Beta"}, "25": {"stimulus": 812, "trial": 25, "rt": 1071, "response": "Beta"}, "26": {"stimulus": 1968, "trial": 26, "rt": 838, "response": "Beta"}, "27": {"stimulus": 2187, "trial": 27, "rt": 943, "response": "Alpha"}, "20": {"stimulus": 593, "trial": 20, "rt": 3192, "response": "Alpha"}, "21": {"stimulus": 2343, "trial": 21, "rt": 1559, "response": "Beta"}, "22": {"stimulus": 374, "trial": 22, "rt": 2159, "response": "Beta"}, "23": {"stimulus": 1249, "trial": 23, "rt": 2599, "response": "Alpha"}, "46": {"stimulus": 405, "trial": 46, "rt": 744, "response": "Beta"}, "47": {"stimulus": 2218, "trial": 47, "rt": 848, "response": "Beta"}, "44": {"stimulus": 499, "trial": 44, "rt": 1134, "response": "Alpha"}, "45": {"stimulus": 2249, "trial": 45, "rt": 918, "response": "Beta"}, "28": {"stimulus": 312, "trial": 28, "rt": 1134, "response": "Alpha"}, "29": {"stimulus": 1062, "trial": 29, "rt": 2791, "response": "Beta"}, "40": {"stimulus": 1905, "trial": 40, "rt": 3935, "response": "Beta"}, "41": {"stimulus": 1593, "trial": 41, "rt": 1063, "response": "Alpha"}, "1": {"stimulus": 1624, "trial": 1, "rt": 5998, "response": "Beta"}, "0": {"stimulus": 1374, "trial": 0, "rt": 6039, "response": "Alpha"}, "3": {"stimulus": 1655, "trial": 3, "rt": 2512, "response": "Beta"}, "2": {"stimulus": 1562, "trial": 2, "rt": 2272, "response": "Beta"}, "5": {"stimulus": 780, "trial": 5, "rt": 1501, "response": "Alpha"}, "4": {"stimulus": 968, "trial": 4, "rt": 1838, "response": "Alpha"}, "7": {"stimulus": 2155, "trial": 7, "rt": 1078, "response": "Beta"}, "6": {"stimulus": 905, "trial": 6, "rt": 1215, "response": "Beta"}, "9": {"stimulus": 843, "trial": 9, "rt": 1143, "response": "Alpha"}, "8": {"stimulus": 1280, "trial": 8, "rt": 1413, "response": "Alpha"}, "78": {"stimulus": 2405, "trial": 78, "rt": 1847, "response": "Beta"}, "51": {"stimulus": 155, "trial": 51, "rt": 919, "response": "Beta"}, "39": {"stimulus": 749, "trial": 39, "rt": 1591, "response": "Alpha"}, "65": {"stimulus": 624, "trial": 65, "rt": 549, "response": "Alpha"}, "76": {"stimulus": 1343, "trial": 76, "rt": 1086, "response": "Alpha"}, "75": {"stimulus": 874, "trial": 75, "rt": 3343, "response": "Beta"}, "38": {"stimulus": 218, "trial": 38, "rt": 1397, "response": "Beta"}, "73": {"stimulus": 1030, "trial": 73, "rt": 1679, "response": "Alpha"}, "72": {"stimulus": 437, "trial": 72, "rt": 943, "response": "Alpha"}, "71": {"stimulus": 30, "trial": 71, "rt": 1062, "response": "Alpha"}, "70": {"stimulus": 1093, "trial": 70, "rt": 1134, "response": "Alpha"}, "59": {"stimulus": 93, "trial": 59, "rt": 1735, "response": "Alpha"}, "79": {"stimulus": 937, "trial": 79, "rt": 2095, "response": "Alpha"}, "58": {"stimulus": 1718, "trial": 58, "rt": 951, "response": "Beta"}, "11": {"stimulus": 1687, "trial": 11, "rt": 4903, "response": "Beta"}, "10": {"stimulus": 249, "trial": 10, "rt": 1927, "response": "Alpha"}, "13": {"stimulus": 530, "trial": 13, "rt": 1768, "response": "Alpha"}, "12": {"stimulus": 1187, "trial": 12, "rt": 4670, "response": "Alpha"}, "15": {"stimulus": 2093, "trial": 15, "rt": 12841, "response": "Beta"}, "14": {"stimulus": 0, "trial": 14, "rt": 1599, "response": "Beta"}, "17": {"stimulus": 468, "trial": 17, "rt": 1159, "response": "Beta"}, "16": {"stimulus": 187, "trial": 16, "rt": 1558, "response": "Alpha"}, "19": {"stimulus": 2124, "trial": 19, "rt": 1006, "response": "Beta"}, "18": {"stimulus": 1499, "trial": 18, "rt": 1840, "response": "Alpha"}, "31": {"stimulus": 1812, "trial": 31, "rt": 830, "response": "Beta"}, "30": {"stimulus": 999, "trial": 30, "rt": 1215, "response": "Alpha"}, "37": {"stimulus": 280, "trial": 37, "rt": 960, "response": "Alpha"}, "36": {"stimulus": 2499, "trial": 36, "rt": 3703, "response": "Beta"}, "35": {"stimulus": 562, "trial": 35, "rt": 1214, "response": "Beta"}, "34": {"stimulus": 2468, "trial": 34, "rt": 654, "response": "Beta"}, "33": {"stimulus": 2437, "trial": 33, "rt": 4528, "response": "Beta"}, "55": {"stimulus": 1749, "trial": 55, "rt": 1333, "response": "Alpha"}, "74": {"stimulus": 1405, "trial": 74, "rt": 863, "response": "Beta"}, "32": {"stimulus": 1468, "trial": 32, "rt": 1087, "response": "Beta"}, "57": {"stimulus": 1218, "trial": 57, "rt": 1286, "response": "Beta"}, "50": {"stimulus": 343, "trial": 50, "rt": 957, "response": "Alpha"}}, "experiment": {"Paradigm": "TACL", "Stimuli": "Size-Color Squares", "Experiment": "Generating-Multiple-Categories"}, "submit": {"timeTotal": 626378, "age": "33", "comments": "N/A", "sex": "Female"}}