{"info": {"finish": 1548085152782, "participant": 183, "exposed": true, "lab": false, "start": 1548084817856, "counterbalance": 1, "gentype": 2, "condition": "XOR", "browser": {"platform": "Win32", "userAgent": "Mozilla/5.0 (Windows NT 10.0; Win64; x64) AppleWebKit/537.36 (KHTML, like Gecko) Chrome/71.0.3578.98 Safari/537.36"}}, "observation": {"11": {"stimulus": 1479, "trial": 11, "rt": 2279}, "10": {"stimulus": 818, "trial": 10, "rt": 1367}, "1": {"stimulus": 818, "trial": 1, "rt": 2100}, "0": {"stimulus": 1890, "trial": 0, "rt": 3664}, "3": {"stimulus": 403, "trial": 3, "rt": 1700}, "2": {"stimulus": 1479, "trial": 2, "rt": 1927}, "5": {"stimulus": 1890, "trial": 5, "rt": 1862}, "4": {"stimulus": 403, "trial": 4, "rt": 1903}, "7": {"stimulus": 818, "trial": 7, "rt": 1782}, "6": {"stimulus": 1479, "trial": 6, "rt": 1648}, "9": {"stimulus": 403, "trial": 9, "rt": 1757}, "8": {"stimulus": 1890, "trial": 8, "rt": 1389}}, "generation": {"1": {"category": "Beta", "trial": 1, "stimulus": 24, "rt": 6638}, "0": {"category": "Beta", "trial": 0, "stimulus": 18, "rt": 11894}, "3": {"category": "Beta", "trial": 3, "stimulus": 396, "rt": 5813}, "2": {"category": "Beta", "trial": 2, "stimulus": 379, "rt": 6936}, "5": {"category": "Gamma", "trial": 5, "stimulus": 659, "rt": 3630}, "4": {"category": "Gamma", "trial": 4, "stimulus": 1250, "rt": 6431}, "7": {"category": "Gamma", "trial": 7, "stimulus": 276, "rt": 3750}, "6": {"category": "Gamma", "trial": 6, "stimulus": 770, "rt": 3956}}, "generalization": {"56": {"stimulus": 2280, "trial": 56, "rt": 1887, "response": "Gamma"}, "77": {"stimulus": 93, "trial": 77, "rt": 815, "response": "Beta"}, "54": {"stimulus": 2249, "trial": 54, "rt": 983, "response": "Gamma"}, "42": {"stimulus": 124, "trial": 42, "rt": 870, "response": "Beta"}, "48": {"stimulus": 1718, "trial": 48, "rt": 1085, "response": "Alpha"}, "43": {"stimulus": 1749, "trial": 43, "rt": 671, "response": "Alpha"}, "60": {"stimulus": 2499, "trial": 60, "rt": 1461, "response": "Gamma"}, "61": {"stimulus": 530, "trial": 61, "rt": 831, "response": "Beta"}, "62": {"stimulus": 2093, "trial": 62, "rt": 694, "response": "Gamma"}, "63": {"stimulus": 1124, "trial": 63, "rt": 773, "response": "Alpha"}, "64": {"stimulus": 1062, "trial": 64, "rt": 567, "response": "Alpha"}, "49": {"stimulus": 593, "trial": 49, "rt": 3470, "response": "Alpha"}, "66": {"stimulus": 1655, "trial": 66, "rt": 853, "response": "Alpha"}, "67": {"stimulus": 1499, "trial": 67, "rt": 588, "response": "Alpha"}, "68": {"stimulus": 1405, "trial": 68, "rt": 526, "response": "Alpha"}, "69": {"stimulus": 1874, "trial": 69, "rt": 672, "response": "Alpha"}, "80": {"stimulus": 562, "trial": 80, "rt": 1310, "response": "Alpha"}, "52": {"stimulus": 1937, "trial": 52, "rt": 919, "response": "Gamma"}, "53": {"stimulus": 1999, "trial": 53, "rt": 902, "response": "Gamma"}, "24": {"stimulus": 687, "trial": 24, "rt": 1286, "response": "Alpha"}, "25": {"stimulus": 1343, "trial": 25, "rt": 884, "response": "Alpha"}, "26": {"stimulus": 1093, "trial": 26, "rt": 613, "response": "Alpha"}, "27": {"stimulus": 1155, "trial": 27, "rt": 646, "response": "Alpha"}, "20": {"stimulus": 2218, "trial": 20, "rt": 1558, "response": "Gamma"}, "21": {"stimulus": 1812, "trial": 21, "rt": 1367, "response": "Alpha"}, "22": {"stimulus": 2062, "trial": 22, "rt": 1734, "response": "Gamma"}, "23": {"stimulus": 2312, "trial": 23, "rt": 1262, "response": "Gamma"}, "46": {"stimulus": 1530, "trial": 46, "rt": 997, "response": "Beta"}, "47": {"stimulus": 437, "trial": 47, "rt": 3952, "response": "Beta"}, "44": {"stimulus": 812, "trial": 44, "rt": 749, "response": "Alpha"}, "45": {"stimulus": 249, "trial": 45, "rt": 2310, "response": "Beta"}, "28": {"stimulus": 1968, "trial": 28, "rt": 1070, "response": "Gamma"}, "29": {"stimulus": 1249, "trial": 29, "rt": 1117, "response": "Alpha"}, "40": {"stimulus": 2030, "trial": 40, "rt": 774, "response": "Gamma"}, "41": {"stimulus": 1218, "trial": 41, "rt": 934, "response": "Alpha"}, "1": {"stimulus": 499, "trial": 1, "rt": 1727, "response": "Alpha"}, "0": {"stimulus": 155, "trial": 0, "rt": 5933, "response": "Beta"}, "3": {"stimulus": 655, "trial": 3, "rt": 1124, "response": "Alpha"}, "2": {"stimulus": 0, "trial": 2, "rt": 1744, "response": "Gamma"}, "5": {"stimulus": 1280, "trial": 5, "rt": 982, "response": "Alpha"}, "4": {"stimulus": 1562, "trial": 4, "rt": 1381, "response": "Alpha"}, "7": {"stimulus": 405, "trial": 7, "rt": 1031, "response": "Beta"}, "6": {"stimulus": 343, "trial": 6, "rt": 982, "response": "Beta"}, "9": {"stimulus": 1437, "trial": 9, "rt": 941, "response": "Alpha"}, "8": {"stimulus": 2405, "trial": 8, "rt": 2983, "response": "Gamma"}, "78": {"stimulus": 62, "trial": 78, "rt": 549, "response": "Beta"}, "51": {"stimulus": 937, "trial": 51, "rt": 5463, "response": "Alpha"}, "39": {"stimulus": 187, "trial": 39, "rt": 861, "response": "Beta"}, "65": {"stimulus": 874, "trial": 65, "rt": 702, "response": "Alpha"}, "76": {"stimulus": 1780, "trial": 76, "rt": 1185, "response": "Alpha"}, "75": {"stimulus": 1030, "trial": 75, "rt": 3950, "response": "Alpha"}, "38": {"stimulus": 2124, "trial": 38, "rt": 991, "response": "Gamma"}, "73": {"stimulus": 218, "trial": 73, "rt": 598, "response": "Beta"}, "72": {"stimulus": 312, "trial": 72, "rt": 526, "response": "Beta"}, "71": {"stimulus": 30, "trial": 71, "rt": 1021, "response": "Beta"}, "70": {"stimulus": 624, "trial": 70, "rt": 935, "response": "Alpha"}, "59": {"stimulus": 2187, "trial": 59, "rt": 829, "response": "Gamma"}, "79": {"stimulus": 2374, "trial": 79, "rt": 1591, "response": "Gamma"}, "58": {"stimulus": 905, "trial": 58, "rt": 1533, "response": "Alpha"}, "11": {"stimulus": 1624, "trial": 11, "rt": 733, "response": "Alpha"}, "10": {"stimulus": 280, "trial": 10, "rt": 1805, "response": "Alpha"}, "13": {"stimulus": 843, "trial": 13, "rt": 615, "response": "Alpha"}, "12": {"stimulus": 780, "trial": 12, "rt": 654, "response": "Alpha"}, "15": {"stimulus": 374, "trial": 15, "rt": 1319, "response": "Beta"}, "14": {"stimulus": 1312, "trial": 14, "rt": 703, "response": "Alpha"}, "17": {"stimulus": 2468, "trial": 17, "rt": 1375, "response": "Alpha"}, "16": {"stimulus": 2437, "trial": 16, "rt": 2054, "response": "Alpha"}, "19": {"stimulus": 2155, "trial": 19, "rt": 1342, "response": "Alpha"}, "18": {"stimulus": 2343, "trial": 18, "rt": 686, "response": "Alpha"}, "31": {"stimulus": 1374, "trial": 31, "rt": 2253, "response": "Alpha"}, "30": {"stimulus": 749, "trial": 30, "rt": 1228, "response": "Alpha"}, "37": {"stimulus": 1593, "trial": 37, "rt": 526, "response": "Alpha"}, "36": {"stimulus": 1468, "trial": 36, "rt": 630, "response": "Alpha"}, "35": {"stimulus": 999, "trial": 35, "rt": 1334, "response": "Alpha"}, "34": {"stimulus": 1843, "trial": 34, "rt": 1159, "response": "Alpha"}, "33": {"stimulus": 718, "trial": 33, "rt": 822, "response": "Beta"}, "55": {"stimulus": 1905, "trial": 55, "rt": 644, "response": "Gamma"}, "74": {"stimulus": 968, "trial": 74, "rt": 655, "response": "Beta"}, "32": {"stimulus": 468, "trial": 32, "rt": 952, "response": "Beta"}, "57": {"stimulus": 1187, "trial": 57, "rt": 879, "response": "Alpha"}, "50": {"stimulus": 1687, "trial": 50, "rt": 3477, "response": "Alpha"}}, "experiment": {"Paradigm": "TACL", "Stimuli": "Size-Color Squares", "Experiment": "Generating-Multiple-Categories"}, "submit": {"timeTotal": 335191, "age": "32", "comments": "", "sex": "female"}}