{"info": {"finish": 1548091161962, "participant": 195, "exposed": true, "lab": false, "start": 1548090502698, "counterbalance": 3, "gentype": 1, "condition": "XOR", "browser": {"platform": "Win32", "userAgent": "Mozilla/5.0 (Windows NT 10.0; Win64; x64; rv:64.0) Gecko/20100101 Firefox/64.0"}}, "observation": {"11": {"stimulus": 818, "trial": 11, "rt": 1626}, "10": {"stimulus": 403, "trial": 10, "rt": 1786}, "1": {"stimulus": 1890, "trial": 1, "rt": 4114}, "0": {"stimulus": 403, "trial": 0, "rt": 2665}, "3": {"stimulus": 1479, "trial": 3, "rt": 3555}, "2": {"stimulus": 818, "trial": 2, "rt": 3215}, "5": {"stimulus": 1890, "trial": 5, "rt": 2605}, "4": {"stimulus": 403, "trial": 4, "rt": 3684}, "7": {"stimulus": 1479, "trial": 7, "rt": 7777}, "6": {"stimulus": 818, "trial": 6, "rt": 3974}, "9": {"stimulus": 1479, "trial": 9, "rt": 1545}, "8": {"stimulus": 1890, "trial": 8, "rt": 3262}}, "generation": {"1": {"category": "Beta", "trial": 1, "stimulus": 0, "rt": 18565}, "0": {"category": "Beta", "trial": 0, "stimulus": 49, "rt": 73183}, "3": {"category": "Beta", "trial": 3, "stimulus": 21, "rt": 26517}, "2": {"category": "Beta", "trial": 2, "stimulus": 37, "rt": 71983}, "5": {"category": "Beta", "trial": 5, "stimulus": 32, "rt": 39927}, "4": {"category": "Beta", "trial": 4, "stimulus": 14, "rt": 3610}, "7": {"category": "Beta", "trial": 7, "stimulus": 12, "rt": 3149}, "6": {"category": "Beta", "trial": 6, "stimulus": 24, "rt": 19161}}, "generalization": {"56": {"stimulus": 718, "trial": 56, "rt": 490, "response": "Alpha"}, "77": {"stimulus": 218, "trial": 77, "rt": 17723, "response": "Beta"}, "54": {"stimulus": 1280, "trial": 54, "rt": 820, "response": "Alpha"}, "42": {"stimulus": 1999, "trial": 42, "rt": 670, "response": "Alpha"}, "48": {"stimulus": 93, "trial": 48, "rt": 1166, "response": "Beta"}, "43": {"stimulus": 1468, "trial": 43, "rt": 685, "response": "Alpha"}, "60": {"stimulus": 1343, "trial": 60, "rt": 678, "response": "Alpha"}, "61": {"stimulus": 187, "trial": 61, "rt": 878, "response": "Beta"}, "62": {"stimulus": 468, "trial": 62, "rt": 880, "response": "Alpha"}, "63": {"stimulus": 1155, "trial": 63, "rt": 614, "response": "Alpha"}, "64": {"stimulus": 905, "trial": 64, "rt": 598, "response": "Alpha"}, "49": {"stimulus": 0, "trial": 49, "rt": 1345, "response": "Beta"}, "66": {"stimulus": 437, "trial": 66, "rt": 1420, "response": "Alpha"}, "67": {"stimulus": 499, "trial": 67, "rt": 1380, "response": "Alpha"}, "68": {"stimulus": 2499, "trial": 68, "rt": 1966, "response": "Alpha"}, "69": {"stimulus": 655, "trial": 69, "rt": 9580, "response": "Alpha"}, "80": {"stimulus": 2405, "trial": 80, "rt": 562, "response": "Alpha"}, "52": {"stimulus": 2343, "trial": 52, "rt": 1330, "response": "Alpha"}, "53": {"stimulus": 749, "trial": 53, "rt": 1005, "response": "Beta"}, "24": {"stimulus": 343, "trial": 24, "rt": 850, "response": "Beta"}, "25": {"stimulus": 1530, "trial": 25, "rt": 833, "response": "Alpha"}, "26": {"stimulus": 1843, "trial": 26, "rt": 1227, "response": "Alpha"}, "27": {"stimulus": 2249, "trial": 27, "rt": 1026, "response": "Alpha"}, "20": {"stimulus": 2187, "trial": 20, "rt": 561, "response": "Alpha"}, "21": {"stimulus": 562, "trial": 21, "rt": 1203, "response": "Beta"}, "22": {"stimulus": 2280, "trial": 22, "rt": 945, "response": "Alpha"}, "23": {"stimulus": 937, "trial": 23, "rt": 7906, "response": "Alpha"}, "46": {"stimulus": 1499, "trial": 46, "rt": 1118, "response": "Alpha"}, "47": {"stimulus": 312, "trial": 47, "rt": 1685, "response": "Alpha"}, "44": {"stimulus": 280, "trial": 44, "rt": 1213, "response": "Beta"}, "45": {"stimulus": 812, "trial": 45, "rt": 915, "response": "Beta"}, "28": {"stimulus": 624, "trial": 28, "rt": 2531, "response": "Beta"}, "29": {"stimulus": 687, "trial": 29, "rt": 953, "response": "Beta"}, "40": {"stimulus": 62, "trial": 40, "rt": 1473, "response": "Beta"}, "41": {"stimulus": 1624, "trial": 41, "rt": 8473, "response": "Alpha"}, "1": {"stimulus": 530, "trial": 1, "rt": 981, "response": "Alpha"}, "0": {"stimulus": 1124, "trial": 0, "rt": 2466, "response": "Alpha"}, "3": {"stimulus": 1187, "trial": 3, "rt": 2060, "response": "Alpha"}, "2": {"stimulus": 1718, "trial": 2, "rt": 1366, "response": "Alpha"}, "5": {"stimulus": 2030, "trial": 5, "rt": 617, "response": "Alpha"}, "4": {"stimulus": 2218, "trial": 4, "rt": 13204, "response": "Alpha"}, "7": {"stimulus": 968, "trial": 7, "rt": 1175, "response": "Beta"}, "6": {"stimulus": 2155, "trial": 6, "rt": 786, "response": "Alpha"}, "9": {"stimulus": 2437, "trial": 9, "rt": 566, "response": "Alpha"}, "8": {"stimulus": 2093, "trial": 8, "rt": 830, "response": "Alpha"}, "78": {"stimulus": 2468, "trial": 78, "rt": 580, "response": "Alpha"}, "51": {"stimulus": 1437, "trial": 51, "rt": 1799, "response": "Alpha"}, "39": {"stimulus": 593, "trial": 39, "rt": 1138, "response": "Alpha"}, "65": {"stimulus": 1905, "trial": 65, "rt": 1257, "response": "Alpha"}, "76": {"stimulus": 1312, "trial": 76, "rt": 1667, "response": "Alpha"}, "75": {"stimulus": 124, "trial": 75, "rt": 1374, "response": "Beta"}, "38": {"stimulus": 405, "trial": 38, "rt": 1029, "response": "Alpha"}, "73": {"stimulus": 780, "trial": 73, "rt": 741, "response": "Alpha"}, "72": {"stimulus": 1374, "trial": 72, "rt": 1816, "response": "Alpha"}, "71": {"stimulus": 1968, "trial": 71, "rt": 1053, "response": "Alpha"}, "70": {"stimulus": 1062, "trial": 70, "rt": 714, "response": "Alpha"}, "59": {"stimulus": 843, "trial": 59, "rt": 795, "response": "Alpha"}, "79": {"stimulus": 1687, "trial": 79, "rt": 750, "response": "Alpha"}, "58": {"stimulus": 1093, "trial": 58, "rt": 713, "response": "Alpha"}, "11": {"stimulus": 1593, "trial": 11, "rt": 732, "response": "Alpha"}, "10": {"stimulus": 1405, "trial": 10, "rt": 566, "response": "Alpha"}, "13": {"stimulus": 1812, "trial": 13, "rt": 708, "response": "Alpha"}, "12": {"stimulus": 1874, "trial": 12, "rt": 1661, "response": "Alpha"}, "15": {"stimulus": 1749, "trial": 15, "rt": 2517, "response": "Beta"}, "14": {"stimulus": 1249, "trial": 14, "rt": 2185, "response": "Beta"}, "17": {"stimulus": 2374, "trial": 17, "rt": 774, "response": "Alpha"}, "16": {"stimulus": 2312, "trial": 16, "rt": 823, "response": "Alpha"}, "19": {"stimulus": 1562, "trial": 19, "rt": 434, "response": "Alpha"}, "18": {"stimulus": 1655, "trial": 18, "rt": 495, "response": "Alpha"}, "31": {"stimulus": 1780, "trial": 31, "rt": 1108, "response": "Alpha"}, "30": {"stimulus": 1218, "trial": 30, "rt": 731, "response": "Alpha"}, "37": {"stimulus": 999, "trial": 37, "rt": 804, "response": "Alpha"}, "36": {"stimulus": 249, "trial": 36, "rt": 1730, "response": "Beta"}, "35": {"stimulus": 30, "trial": 35, "rt": 1318, "response": "Beta"}, "34": {"stimulus": 2124, "trial": 34, "rt": 2090, "response": "Alpha"}, "33": {"stimulus": 2062, "trial": 33, "rt": 673, "response": "Alpha"}, "55": {"stimulus": 155, "trial": 55, "rt": 898, "response": "Beta"}, "74": {"stimulus": 374, "trial": 74, "rt": 1272, "response": "Alpha"}, "32": {"stimulus": 1937, "trial": 32, "rt": 764, "response": "Alpha"}, "57": {"stimulus": 1030, "trial": 57, "rt": 506, "response": "Alpha"}, "50": {"stimulus": 874, "trial": 50, "rt": 947, "response": "Alpha"}}, "experiment": {"Paradigm": "TACL", "Stimuli": "Size-Color Squares", "Experiment": "Generating-Multiple-Categories"}, "submit": {"timeTotal": 659488, "age": "60", "comments": "Thanks", "sex": "male"}}