{"info": {"finish": 1548092206447, "participant": 197, "exposed": true, "lab": false, "start": 1548091924192, "counterbalance": 6, "gentype": 1, "condition": "Cluster", "browser": {"platform": "Win32", "userAgent": "Mozilla/5.0 (Windows NT 6.1; Win64; x64) AppleWebKit/537.36 (KHTML, like Gecko) Chrome/71.0.3578.98 Safari/537.36"}}, "observation": {"11": {"stimulus": 392, "trial": 11, "rt": 1278}, "10": {"stimulus": 1083, "trial": 10, "rt": 1351}, "1": {"stimulus": 1083, "trial": 1, "rt": 1943}, "0": {"stimulus": 1093, "trial": 0, "rt": 2579}, "3": {"stimulus": 583, "trial": 3, "rt": 1608}, "2": {"stimulus": 392, "trial": 2, "rt": 2103}, "5": {"stimulus": 583, "trial": 5, "rt": 1719}, "4": {"stimulus": 1093, "trial": 4, "rt": 1855}, "7": {"stimulus": 1083, "trial": 7, "rt": 1351}, "6": {"stimulus": 392, "trial": 6, "rt": 1384}, "9": {"stimulus": 1093, "trial": 9, "rt": 1359}, "8": {"stimulus": 583, "trial": 8, "rt": 1614}}, "generation": {"1": {"category": "Beta", "trial": 1, "stimulus": 2452, "rt": 6414}, "0": {"category": "Beta", "trial": 0, "stimulus": 2450, "rt": 16750}, "3": {"category": "Beta", "trial": 3, "stimulus": 2455, "rt": 3271}, "2": {"category": "Beta", "trial": 2, "stimulus": 2454, "rt": 4503}, "5": {"category": "Beta", "trial": 5, "stimulus": 2460, "rt": 3518}, "4": {"category": "Beta", "trial": 4, "stimulus": 2458, "rt": 3167}, "7": {"category": "Beta", "trial": 7, "stimulus": 2464, "rt": 3247}, "6": {"category": "Beta", "trial": 6, "stimulus": 2462, "rt": 6998}}, "generalization": {"56": {"stimulus": 2468, "trial": 56, "rt": 646, "response": "Beta"}, "77": {"stimulus": 1718, "trial": 77, "rt": 942, "response": "Beta"}, "54": {"stimulus": 1937, "trial": 54, "rt": 678, "response": "Beta"}, "42": {"stimulus": 1968, "trial": 42, "rt": 646, "response": "Beta"}, "48": {"stimulus": 2499, "trial": 48, "rt": 718, "response": "Beta"}, "43": {"stimulus": 1155, "trial": 43, "rt": 583, "response": "Alpha"}, "60": {"stimulus": 2187, "trial": 60, "rt": 615, "response": "Beta"}, "61": {"stimulus": 0, "trial": 61, "rt": 751, "response": "Alpha"}, "62": {"stimulus": 1030, "trial": 62, "rt": 573, "response": "Alpha"}, "63": {"stimulus": 1780, "trial": 63, "rt": 871, "response": "Beta"}, "64": {"stimulus": 812, "trial": 64, "rt": 615, "response": "Alpha"}, "49": {"stimulus": 93, "trial": 49, "rt": 655, "response": "Alpha"}, "66": {"stimulus": 655, "trial": 66, "rt": 526, "response": "Alpha"}, "67": {"stimulus": 1280, "trial": 67, "rt": 1454, "response": "Alpha"}, "68": {"stimulus": 2405, "trial": 68, "rt": 647, "response": "Beta"}, "69": {"stimulus": 405, "trial": 69, "rt": 592, "response": "Alpha"}, "80": {"stimulus": 874, "trial": 80, "rt": 471, "response": "Alpha"}, "52": {"stimulus": 1187, "trial": 52, "rt": 767, "response": "Alpha"}, "53": {"stimulus": 1530, "trial": 53, "rt": 734, "response": "Alpha"}, "24": {"stimulus": 2343, "trial": 24, "rt": 479, "response": "Beta"}, "25": {"stimulus": 280, "trial": 25, "rt": 630, "response": "Alpha"}, "26": {"stimulus": 1062, "trial": 26, "rt": 710, "response": "Alpha"}, "27": {"stimulus": 749, "trial": 27, "rt": 526, "response": "Alpha"}, "20": {"stimulus": 30, "trial": 20, "rt": 511, "response": "Alpha"}, "21": {"stimulus": 1374, "trial": 21, "rt": 680, "response": "Alpha"}, "22": {"stimulus": 312, "trial": 22, "rt": 499, "response": "Alpha"}, "23": {"stimulus": 1499, "trial": 23, "rt": 735, "response": "Beta"}, "46": {"stimulus": 937, "trial": 46, "rt": 727, "response": "Alpha"}, "47": {"stimulus": 843, "trial": 47, "rt": 1022, "response": "Alpha"}, "44": {"stimulus": 718, "trial": 44, "rt": 640, "response": "Alpha"}, "45": {"stimulus": 1343, "trial": 45, "rt": 1263, "response": "Beta"}, "28": {"stimulus": 1124, "trial": 28, "rt": 663, "response": "Alpha"}, "29": {"stimulus": 437, "trial": 29, "rt": 454, "response": "Alpha"}, "40": {"stimulus": 124, "trial": 40, "rt": 694, "response": "Alpha"}, "41": {"stimulus": 249, "trial": 41, "rt": 607, "response": "Alpha"}, "1": {"stimulus": 155, "trial": 1, "rt": 766, "response": "Alpha"}, "0": {"stimulus": 499, "trial": 0, "rt": 1750, "response": "Alpha"}, "3": {"stimulus": 62, "trial": 3, "rt": 712, "response": "Alpha"}, "2": {"stimulus": 2062, "trial": 2, "rt": 879, "response": "Beta"}, "5": {"stimulus": 1749, "trial": 5, "rt": 671, "response": "Beta"}, "4": {"stimulus": 2030, "trial": 4, "rt": 726, "response": "Beta"}, "7": {"stimulus": 1812, "trial": 7, "rt": 847, "response": "Beta"}, "6": {"stimulus": 1468, "trial": 6, "rt": 974, "response": "Beta"}, "9": {"stimulus": 374, "trial": 9, "rt": 718, "response": "Alpha"}, "8": {"stimulus": 2437, "trial": 8, "rt": 479, "response": "Beta"}, "78": {"stimulus": 1405, "trial": 78, "rt": 1016, "response": "Alpha"}, "51": {"stimulus": 624, "trial": 51, "rt": 591, "response": "Alpha"}, "39": {"stimulus": 1843, "trial": 39, "rt": 1135, "response": "Beta"}, "65": {"stimulus": 1624, "trial": 65, "rt": 806, "response": "Alpha"}, "76": {"stimulus": 1093, "trial": 76, "rt": 694, "response": "Alpha"}, "75": {"stimulus": 1905, "trial": 75, "rt": 711, "response": "Beta"}, "38": {"stimulus": 1562, "trial": 38, "rt": 694, "response": "Alpha"}, "73": {"stimulus": 968, "trial": 73, "rt": 486, "response": "Alpha"}, "72": {"stimulus": 905, "trial": 72, "rt": 551, "response": "Alpha"}, "71": {"stimulus": 1687, "trial": 71, "rt": 1311, "response": "Beta"}, "70": {"stimulus": 593, "trial": 70, "rt": 489, "response": "Alpha"}, "59": {"stimulus": 187, "trial": 59, "rt": 511, "response": "Alpha"}, "79": {"stimulus": 468, "trial": 79, "rt": 559, "response": "Alpha"}, "58": {"stimulus": 780, "trial": 58, "rt": 551, "response": "Alpha"}, "11": {"stimulus": 1312, "trial": 11, "rt": 1070, "response": "Alpha"}, "10": {"stimulus": 562, "trial": 10, "rt": 535, "response": "Alpha"}, "13": {"stimulus": 530, "trial": 13, "rt": 774, "response": "Alpha"}, "12": {"stimulus": 1437, "trial": 12, "rt": 1047, "response": "Beta"}, "15": {"stimulus": 1874, "trial": 15, "rt": 663, "response": "Beta"}, "14": {"stimulus": 1999, "trial": 14, "rt": 695, "response": "Beta"}, "17": {"stimulus": 1655, "trial": 17, "rt": 455, "response": "Beta"}, "16": {"stimulus": 2124, "trial": 16, "rt": 446, "response": "Beta"}, "19": {"stimulus": 2093, "trial": 19, "rt": 423, "response": "Beta"}, "18": {"stimulus": 2312, "trial": 18, "rt": 712, "response": "Beta"}, "31": {"stimulus": 2218, "trial": 31, "rt": 422, "response": "Beta"}, "30": {"stimulus": 2280, "trial": 30, "rt": 832, "response": "Beta"}, "37": {"stimulus": 999, "trial": 37, "rt": 663, "response": "Alpha"}, "36": {"stimulus": 2249, "trial": 36, "rt": 743, "response": "Beta"}, "35": {"stimulus": 1593, "trial": 35, "rt": 830, "response": "Beta"}, "34": {"stimulus": 2374, "trial": 34, "rt": 471, "response": "Beta"}, "33": {"stimulus": 2155, "trial": 33, "rt": 646, "response": "Beta"}, "55": {"stimulus": 687, "trial": 55, "rt": 663, "response": "Alpha"}, "74": {"stimulus": 218, "trial": 74, "rt": 503, "response": "Alpha"}, "32": {"stimulus": 343, "trial": 32, "rt": 663, "response": "Alpha"}, "57": {"stimulus": 1249, "trial": 57, "rt": 695, "response": "Alpha"}, "50": {"stimulus": 1218, "trial": 50, "rt": 854, "response": "Alpha"}}, "experiment": {"Paradigm": "TACL", "Stimuli": "Size-Color Squares", "Experiment": "Generating-Multiple-Categories"}, "submit": {"timeTotal": 282500, "age": "24", "comments": "none", "sex": "male"}}