{"info": {"finish": 1548092429501, "participant": 200, "exposed": true, "lab": false, "start": 1548092052306, "counterbalance": 0, "gentype": 2, "condition": "Row", "browser": {"platform": "Win32", "userAgent": "Mozilla/5.0 (Windows NT 10.0; Win64; x64; rv:64.0) Gecko/20100101 Firefox/64.0"}}, "observation": {"11": {"stimulus": 421, "trial": 11, "rt": 2206}, "10": {"stimulus": 612, "trial": 10, "rt": 1940}, "1": {"stimulus": 421, "trial": 1, "rt": 2534}, "0": {"stimulus": 493, "trial": 0, "rt": 5615}, "3": {"stimulus": 612, "trial": 3, "rt": 2205}, "2": {"stimulus": 582, "trial": 2, "rt": 1893}, "5": {"stimulus": 493, "trial": 5, "rt": 1957}, "4": {"stimulus": 421, "trial": 4, "rt": 2066}, "7": {"stimulus": 612, "trial": 7, "rt": 3066}, "6": {"stimulus": 582, "trial": 6, "rt": 2894}, "9": {"stimulus": 493, "trial": 9, "rt": 2146}, "8": {"stimulus": 582, "trial": 8, "rt": 4174}}, "generation": {"1": {"category": "Beta", "trial": 1, "stimulus": 1250, "rt": 13421}, "0": {"category": "Beta", "trial": 0, "stimulus": 254, "rt": 8106}, "3": {"category": "Beta", "trial": 3, "stimulus": 2499, "rt": 4715}, "2": {"category": "Beta", "trial": 2, "stimulus": 2450, "rt": 6822}, "5": {"category": "Gamma", "trial": 5, "stimulus": 1173, "rt": 7929}, "4": {"category": "Gamma", "trial": 4, "stimulus": 1250, "rt": 8678}, "7": {"category": "Gamma", "trial": 7, "stimulus": 1249, "rt": 5423}, "6": {"category": "Gamma", "trial": 6, "stimulus": 1237, "rt": 6354}}, "generalization": {"56": {"stimulus": 1437, "trial": 56, "rt": 1318, "response": "Beta"}, "77": {"stimulus": 1499, "trial": 77, "rt": 1316, "response": "Beta"}, "54": {"stimulus": 530, "trial": 54, "rt": 1363, "response": "Alpha"}, "42": {"stimulus": 1562, "trial": 42, "rt": 1191, "response": "Beta"}, "48": {"stimulus": 624, "trial": 48, "rt": 1365, "response": "Alpha"}, "43": {"stimulus": 1905, "trial": 43, "rt": 2786, "response": "Gamma"}, "60": {"stimulus": 1374, "trial": 60, "rt": 1692, "response": "Beta"}, "61": {"stimulus": 968, "trial": 61, "rt": 1394, "response": "Beta"}, "62": {"stimulus": 1999, "trial": 62, "rt": 1503, "response": "Gamma"}, "63": {"stimulus": 655, "trial": 63, "rt": 1574, "response": "Alpha"}, "64": {"stimulus": 468, "trial": 64, "rt": 862, "response": "Alpha"}, "49": {"stimulus": 1405, "trial": 49, "rt": 11410, "response": "Beta"}, "66": {"stimulus": 2187, "trial": 66, "rt": 1379, "response": "Gamma"}, "67": {"stimulus": 2155, "trial": 67, "rt": 1019, "response": "Gamma"}, "68": {"stimulus": 1343, "trial": 68, "rt": 1314, "response": "Beta"}, "69": {"stimulus": 1062, "trial": 69, "rt": 1002, "response": "Beta"}, "80": {"stimulus": 343, "trial": 80, "rt": 2228, "response": "Alpha"}, "52": {"stimulus": 1968, "trial": 52, "rt": 895, "response": "Gamma"}, "53": {"stimulus": 1280, "trial": 53, "rt": 1455, "response": "Beta"}, "24": {"stimulus": 2312, "trial": 24, "rt": 972, "response": "Gamma"}, "25": {"stimulus": 187, "trial": 25, "rt": 1455, "response": "Alpha"}, "26": {"stimulus": 62, "trial": 26, "rt": 801, "response": "Alpha"}, "27": {"stimulus": 2437, "trial": 27, "rt": 1784, "response": "Gamma"}, "20": {"stimulus": 155, "trial": 20, "rt": 926, "response": "Alpha"}, "21": {"stimulus": 218, "trial": 21, "rt": 799, "response": "Alpha"}, "22": {"stimulus": 1749, "trial": 22, "rt": 1629, "response": "Beta"}, "23": {"stimulus": 2030, "trial": 23, "rt": 1457, "response": "Gamma"}, "46": {"stimulus": 1687, "trial": 46, "rt": 1300, "response": "Beta"}, "47": {"stimulus": 1155, "trial": 47, "rt": 832, "response": "Beta"}, "44": {"stimulus": 374, "trial": 44, "rt": 1347, "response": "Alpha"}, "45": {"stimulus": 0, "trial": 45, "rt": 820, "response": "Alpha"}, "28": {"stimulus": 2062, "trial": 28, "rt": 1190, "response": "Beta"}, "29": {"stimulus": 1468, "trial": 29, "rt": 1033, "response": "Beta"}, "40": {"stimulus": 93, "trial": 40, "rt": 2139, "response": "Alpha"}, "41": {"stimulus": 1124, "trial": 41, "rt": 1394, "response": "Beta"}, "1": {"stimulus": 405, "trial": 1, "rt": 2338, "response": "Alpha"}, "0": {"stimulus": 1624, "trial": 0, "rt": 4430, "response": "Beta"}, "3": {"stimulus": 2218, "trial": 3, "rt": 1753, "response": "Beta"}, "2": {"stimulus": 749, "trial": 2, "rt": 2049, "response": "Alpha"}, "5": {"stimulus": 2124, "trial": 5, "rt": 1495, "response": "Beta"}, "4": {"stimulus": 249, "trial": 4, "rt": 1659, "response": "Alpha"}, "7": {"stimulus": 2468, "trial": 7, "rt": 1098, "response": "Beta"}, "6": {"stimulus": 2405, "trial": 6, "rt": 1114, "response": "Beta"}, "9": {"stimulus": 999, "trial": 9, "rt": 6854, "response": "Beta"}, "8": {"stimulus": 1312, "trial": 8, "rt": 2303, "response": "Gamma"}, "78": {"stimulus": 1030, "trial": 78, "rt": 926, "response": "Beta"}, "51": {"stimulus": 1937, "trial": 51, "rt": 2149, "response": "Gamma"}, "39": {"stimulus": 1093, "trial": 39, "rt": 864, "response": "Beta"}, "65": {"stimulus": 1812, "trial": 65, "rt": 2392, "response": "Beta"}, "76": {"stimulus": 874, "trial": 76, "rt": 1003, "response": "Alpha"}, "75": {"stimulus": 843, "trial": 75, "rt": 1474, "response": "Alpha"}, "38": {"stimulus": 1593, "trial": 38, "rt": 1319, "response": "Beta"}, "73": {"stimulus": 2249, "trial": 73, "rt": 1472, "response": "Gamma"}, "72": {"stimulus": 812, "trial": 72, "rt": 1955, "response": "Alpha"}, "71": {"stimulus": 30, "trial": 71, "rt": 1285, "response": "Alpha"}, "70": {"stimulus": 937, "trial": 70, "rt": 1724, "response": "Alpha"}, "59": {"stimulus": 2093, "trial": 59, "rt": 1379, "response": "Gamma"}, "79": {"stimulus": 2499, "trial": 79, "rt": 1675, "response": "Gamma"}, "58": {"stimulus": 1530, "trial": 58, "rt": 1372, "response": "Beta"}, "11": {"stimulus": 593, "trial": 11, "rt": 1426, "response": "Alpha"}, "10": {"stimulus": 1874, "trial": 10, "rt": 1332, "response": "Gamma"}, "13": {"stimulus": 905, "trial": 13, "rt": 973, "response": "Beta"}, "12": {"stimulus": 1187, "trial": 12, "rt": 1255, "response": "Beta"}, "15": {"stimulus": 780, "trial": 15, "rt": 1914, "response": "Alpha"}, "14": {"stimulus": 2374, "trial": 14, "rt": 1412, "response": "Gamma"}, "17": {"stimulus": 1249, "trial": 17, "rt": 1035, "response": "Beta"}, "16": {"stimulus": 1218, "trial": 16, "rt": 1956, "response": "Beta"}, "19": {"stimulus": 499, "trial": 19, "rt": 866, "response": "Alpha"}, "18": {"stimulus": 312, "trial": 18, "rt": 1377, "response": "Alpha"}, "31": {"stimulus": 2280, "trial": 31, "rt": 1396, "response": "Gamma"}, "30": {"stimulus": 124, "trial": 30, "rt": 2205, "response": "Alpha"}, "37": {"stimulus": 562, "trial": 37, "rt": 1379, "response": "Alpha"}, "36": {"stimulus": 1780, "trial": 36, "rt": 1893, "response": "Gamma"}, "35": {"stimulus": 280, "trial": 35, "rt": 1259, "response": "Alpha"}, "34": {"stimulus": 2343, "trial": 34, "rt": 1818, "response": "Gamma"}, "33": {"stimulus": 718, "trial": 33, "rt": 1332, "response": "Alpha"}, "55": {"stimulus": 1843, "trial": 55, "rt": 2804, "response": "Gamma"}, "74": {"stimulus": 437, "trial": 74, "rt": 1350, "response": "Alpha"}, "32": {"stimulus": 1655, "trial": 32, "rt": 1175, "response": "Beta"}, "57": {"stimulus": 687, "trial": 57, "rt": 1301, "response": "Alpha"}, "50": {"stimulus": 1718, "trial": 50, "rt": 894, "response": "Beta"}}, "experiment": {"Paradigm": "TACL", "Stimuli": "Size-Color Squares", "Experiment": "Generating-Multiple-Categories"}, "submit": {"timeTotal": 377353, "age": "49", "comments": "I enjoyed it. Good luck with your study.", "sex": "Male"}}