{"info": {"finish": 1548099626973, "participant": 214, "exposed": true, "lab": false, "start": 1548099289438, "counterbalance": 6, "gentype": 1, "condition": "Row", "browser": {"platform": "Win32", "userAgent": "Mozilla/5.0 (Windows NT 10.0; Win64; x64) AppleWebKit/537.36 (KHTML, like Gecko) Chrome/71.0.3578.98 Safari/537.36"}}, "observation": {"11": {"stimulus": 612, "trial": 11, "rt": 1399}, "10": {"stimulus": 493, "trial": 10, "rt": 1367}, "1": {"stimulus": 582, "trial": 1, "rt": 1542}, "0": {"stimulus": 612, "trial": 0, "rt": 2019}, "3": {"stimulus": 421, "trial": 3, "rt": 1686}, "2": {"stimulus": 493, "trial": 2, "rt": 1775}, "5": {"stimulus": 582, "trial": 5, "rt": 1504}, "4": {"stimulus": 612, "trial": 4, "rt": 1694}, "7": {"stimulus": 421, "trial": 7, "rt": 1423}, "6": {"stimulus": 493, "trial": 6, "rt": 1462}, "9": {"stimulus": 421, "trial": 9, "rt": 1381}, "8": {"stimulus": 582, "trial": 8, "rt": 1374}}, "generation": {"1": {"category": "Beta", "trial": 1, "stimulus": 1449, "rt": 6838}, "0": {"category": "Beta", "trial": 0, "stimulus": 1651, "rt": 5199}, "3": {"category": "Beta", "trial": 3, "stimulus": 0, "rt": 3014}, "2": {"category": "Beta", "trial": 2, "stimulus": 2463, "rt": 4631}, "5": {"category": "Beta", "trial": 5, "stimulus": 14, "rt": 4615}, "4": {"category": "Beta", "trial": 4, "stimulus": 850, "rt": 4030}, "7": {"category": "Beta", "trial": 7, "stimulus": 2473, "rt": 3557}, "6": {"category": "Beta", "trial": 6, "stimulus": 2499, "rt": 3246}}, "generalization": {"56": {"stimulus": 562, "trial": 56, "rt": 951, "response": "Beta"}, "77": {"stimulus": 62, "trial": 77, "rt": 519, "response": "Beta"}, "54": {"stimulus": 2374, "trial": 54, "rt": 12999, "response": "Beta"}, "42": {"stimulus": 1499, "trial": 42, "rt": 902, "response": "Alpha"}, "48": {"stimulus": 1812, "trial": 48, "rt": 550, "response": "Alpha"}, "43": {"stimulus": 468, "trial": 43, "rt": 2517, "response": "Beta"}, "60": {"stimulus": 530, "trial": 60, "rt": 839, "response": "Beta"}, "61": {"stimulus": 905, "trial": 61, "rt": 853, "response": "Beta"}, "62": {"stimulus": 1905, "trial": 62, "rt": 1110, "response": "Alpha"}, "63": {"stimulus": 968, "trial": 63, "rt": 798, "response": "Beta"}, "64": {"stimulus": 1187, "trial": 64, "rt": 863, "response": "Beta"}, "49": {"stimulus": 2499, "trial": 49, "rt": 1775, "response": "Alpha"}, "66": {"stimulus": 843, "trial": 66, "rt": 622, "response": "Beta"}, "67": {"stimulus": 124, "trial": 67, "rt": 535, "response": "Beta"}, "68": {"stimulus": 2249, "trial": 68, "rt": 844, "response": "Alpha"}, "69": {"stimulus": 2312, "trial": 69, "rt": 615, "response": "Alpha"}, "80": {"stimulus": 2093, "trial": 80, "rt": 904, "response": "Alpha"}, "52": {"stimulus": 1999, "trial": 52, "rt": 1904, "response": "Alpha"}, "53": {"stimulus": 1218, "trial": 53, "rt": 1222, "response": "Beta"}, "24": {"stimulus": 1124, "trial": 24, "rt": 2998, "response": "Alpha"}, "25": {"stimulus": 1343, "trial": 25, "rt": 1295, "response": "Alpha"}, "26": {"stimulus": 2062, "trial": 26, "rt": 903, "response": "Alpha"}, "27": {"stimulus": 1749, "trial": 27, "rt": 1303, "response": "Alpha"}, "20": {"stimulus": 2187, "trial": 20, "rt": 1486, "response": "Alpha"}, "21": {"stimulus": 999, "trial": 21, "rt": 926, "response": "Alpha"}, "22": {"stimulus": 2155, "trial": 22, "rt": 870, "response": "Beta"}, "23": {"stimulus": 812, "trial": 23, "rt": 1006, "response": "Alpha"}, "46": {"stimulus": 687, "trial": 46, "rt": 684, "response": "Beta"}, "47": {"stimulus": 1374, "trial": 47, "rt": 822, "response": "Alpha"}, "44": {"stimulus": 874, "trial": 44, "rt": 702, "response": "Beta"}, "45": {"stimulus": 343, "trial": 45, "rt": 750, "response": "Beta"}, "28": {"stimulus": 2030, "trial": 28, "rt": 822, "response": "Alpha"}, "29": {"stimulus": 2437, "trial": 29, "rt": 662, "response": "Alpha"}, "40": {"stimulus": 1624, "trial": 40, "rt": 1175, "response": "Alpha"}, "41": {"stimulus": 405, "trial": 41, "rt": 3391, "response": "Beta"}, "1": {"stimulus": 499, "trial": 1, "rt": 1221, "response": "Beta"}, "0": {"stimulus": 1968, "trial": 0, "rt": 1551, "response": "Alpha"}, "3": {"stimulus": 2343, "trial": 3, "rt": 958, "response": "Alpha"}, "2": {"stimulus": 1593, "trial": 2, "rt": 783, "response": "Alpha"}, "5": {"stimulus": 1093, "trial": 5, "rt": 1006, "response": "Beta"}, "4": {"stimulus": 1655, "trial": 4, "rt": 927, "response": "Alpha"}, "7": {"stimulus": 374, "trial": 7, "rt": 750, "response": "Beta"}, "6": {"stimulus": 1280, "trial": 6, "rt": 1045, "response": "Beta"}, "9": {"stimulus": 93, "trial": 9, "rt": 960, "response": "Beta"}, "8": {"stimulus": 1687, "trial": 8, "rt": 823, "response": "Alpha"}, "78": {"stimulus": 1030, "trial": 78, "rt": 847, "response": "Beta"}, "51": {"stimulus": 2468, "trial": 51, "rt": 999, "response": "Alpha"}, "39": {"stimulus": 593, "trial": 39, "rt": 2046, "response": "Beta"}, "65": {"stimulus": 1155, "trial": 65, "rt": 1502, "response": "Beta"}, "76": {"stimulus": 280, "trial": 76, "rt": 534, "response": "Beta"}, "75": {"stimulus": 218, "trial": 75, "rt": 622, "response": "Beta"}, "38": {"stimulus": 2280, "trial": 38, "rt": 1927, "response": "Alpha"}, "73": {"stimulus": 655, "trial": 73, "rt": 566, "response": "Beta"}, "72": {"stimulus": 249, "trial": 72, "rt": 534, "response": "Beta"}, "71": {"stimulus": 187, "trial": 71, "rt": 760, "response": "Beta"}, "70": {"stimulus": 0, "trial": 70, "rt": 1037, "response": "Beta"}, "59": {"stimulus": 2405, "trial": 59, "rt": 1039, "response": "Alpha"}, "79": {"stimulus": 1468, "trial": 79, "rt": 791, "response": "Alpha"}, "58": {"stimulus": 1780, "trial": 58, "rt": 1103, "response": "Alpha"}, "11": {"stimulus": 30, "trial": 11, "rt": 663, "response": "Beta"}, "10": {"stimulus": 2124, "trial": 10, "rt": 686, "response": "Alpha"}, "13": {"stimulus": 1937, "trial": 13, "rt": 846, "response": "Alpha"}, "12": {"stimulus": 1062, "trial": 12, "rt": 614, "response": "Alpha"}, "15": {"stimulus": 1312, "trial": 15, "rt": 640, "response": "Alpha"}, "14": {"stimulus": 1562, "trial": 14, "rt": 614, "response": "Alpha"}, "17": {"stimulus": 155, "trial": 17, "rt": 589, "response": "Beta"}, "16": {"stimulus": 437, "trial": 16, "rt": 663, "response": "Beta"}, "19": {"stimulus": 780, "trial": 19, "rt": 2127, "response": "Alpha"}, "18": {"stimulus": 1843, "trial": 18, "rt": 1960, "response": "Beta"}, "31": {"stimulus": 312, "trial": 31, "rt": 981, "response": "Beta"}, "30": {"stimulus": 1874, "trial": 30, "rt": 895, "response": "Alpha"}, "37": {"stimulus": 937, "trial": 37, "rt": 3743, "response": "Beta"}, "36": {"stimulus": 1405, "trial": 36, "rt": 1062, "response": "Beta"}, "35": {"stimulus": 2218, "trial": 35, "rt": 52663, "response": "Alpha"}, "34": {"stimulus": 749, "trial": 34, "rt": 686, "response": "Beta"}, "33": {"stimulus": 624, "trial": 33, "rt": 734, "response": "Beta"}, "55": {"stimulus": 1530, "trial": 55, "rt": 1111, "response": "Beta"}, "74": {"stimulus": 1249, "trial": 74, "rt": 1264, "response": "Beta"}, "32": {"stimulus": 718, "trial": 32, "rt": 983, "response": "Beta"}, "57": {"stimulus": 1437, "trial": 57, "rt": 846, "response": "Beta"}, "50": {"stimulus": 1718, "trial": 50, "rt": 680, "response": "Alpha"}}, "experiment": {"Paradigm": "TACL", "Stimuli": "Size-Color Squares", "Experiment": "Generating-Multiple-Categories"}, "submit": {"timeTotal": 338009, "age": "25", "comments": "No comment", "sex": "Female"}}