{"info": {"finish": 1548100022637, "participant": 215, "exposed": true, "lab": false, "start": 1548099757145, "counterbalance": 7, "gentype": 1, "condition": "XOR", "browser": {"platform": "Win32", "userAgent": "Mozilla/5.0 (Windows NT 6.1; Win64; x64) AppleWebKit/537.36 (KHTML, like Gecko) Chrome/71.0.3578.98 Safari/537.36"}}, "observation": {"11": {"stimulus": 1479, "trial": 11, "rt": 1429}, "10": {"stimulus": 1890, "trial": 10, "rt": 1589}, "1": {"stimulus": 1479, "trial": 1, "rt": 2084}, "0": {"stimulus": 403, "trial": 0, "rt": 2530}, "3": {"stimulus": 818, "trial": 3, "rt": 1626}, "2": {"stimulus": 1890, "trial": 2, "rt": 1877}, "5": {"stimulus": 1479, "trial": 5, "rt": 1528}, "4": {"stimulus": 818, "trial": 4, "rt": 1441}, "7": {"stimulus": 403, "trial": 7, "rt": 1438}, "6": {"stimulus": 1890, "trial": 6, "rt": 1717}, "9": {"stimulus": 403, "trial": 9, "rt": 1974}, "8": {"stimulus": 818, "trial": 8, "rt": 1462}}, "generation": {"1": {"category": "Beta", "trial": 1, "stimulus": 2450, "rt": 9196}, "0": {"category": "Beta", "trial": 0, "stimulus": 49, "rt": 16999}, "3": {"category": "Beta", "trial": 3, "stimulus": 2492, "rt": 7218}, "2": {"category": "Beta", "trial": 2, "stimulus": 2499, "rt": 5118}, "5": {"category": "Beta", "trial": 5, "stimulus": 2497, "rt": 2951}, "4": {"category": "Beta", "trial": 4, "stimulus": 2476, "rt": 3402}, "7": {"category": "Beta", "trial": 7, "stimulus": 2487, "rt": 2998}, "6": {"category": "Beta", "trial": 6, "stimulus": 2498, "rt": 1679}}, "generalization": {"56": {"stimulus": 2437, "trial": 56, "rt": 610, "response": "Beta"}, "77": {"stimulus": 93, "trial": 77, "rt": 724, "response": "Alpha"}, "54": {"stimulus": 2249, "trial": 54, "rt": 689, "response": "Beta"}, "42": {"stimulus": 1749, "trial": 42, "rt": 489, "response": "Beta"}, "48": {"stimulus": 0, "trial": 48, "rt": 641, "response": "Alpha"}, "43": {"stimulus": 405, "trial": 43, "rt": 547, "response": "Alpha"}, "60": {"stimulus": 937, "trial": 60, "rt": 711, "response": "Alpha"}, "61": {"stimulus": 780, "trial": 61, "rt": 568, "response": "Alpha"}, "62": {"stimulus": 1499, "trial": 62, "rt": 704, "response": "Beta"}, "63": {"stimulus": 2062, "trial": 63, "rt": 669, "response": "Alpha"}, "64": {"stimulus": 1062, "trial": 64, "rt": 548, "response": "Alpha"}, "49": {"stimulus": 1655, "trial": 49, "rt": 543, "response": "Alpha"}, "66": {"stimulus": 687, "trial": 66, "rt": 592, "response": "Alpha"}, "67": {"stimulus": 2124, "trial": 67, "rt": 548, "response": "Alpha"}, "68": {"stimulus": 2030, "trial": 68, "rt": 679, "response": "Beta"}, "69": {"stimulus": 718, "trial": 69, "rt": 524, "response": "Alpha"}, "80": {"stimulus": 312, "trial": 80, "rt": 543, "response": "Alpha"}, "52": {"stimulus": 374, "trial": 52, "rt": 520, "response": "Alpha"}, "53": {"stimulus": 1687, "trial": 53, "rt": 762, "response": "Beta"}, "24": {"stimulus": 437, "trial": 24, "rt": 777, "response": "Alpha"}, "25": {"stimulus": 2218, "trial": 25, "rt": 813, "response": "Alpha"}, "26": {"stimulus": 1218, "trial": 26, "rt": 619, "response": "Alpha"}, "27": {"stimulus": 812, "trial": 27, "rt": 669, "response": "Alpha"}, "20": {"stimulus": 905, "trial": 20, "rt": 1052, "response": "Alpha"}, "21": {"stimulus": 1812, "trial": 21, "rt": 513, "response": "Alpha"}, "22": {"stimulus": 62, "trial": 22, "rt": 520, "response": "Alpha"}, "23": {"stimulus": 2093, "trial": 23, "rt": 950, "response": "Beta"}, "46": {"stimulus": 468, "trial": 46, "rt": 587, "response": "Alpha"}, "47": {"stimulus": 2280, "trial": 47, "rt": 942, "response": "Beta"}, "44": {"stimulus": 249, "trial": 44, "rt": 550, "response": "Alpha"}, "45": {"stimulus": 1843, "trial": 45, "rt": 647, "response": "Beta"}, "28": {"stimulus": 1780, "trial": 28, "rt": 893, "response": "Alpha"}, "29": {"stimulus": 30, "trial": 29, "rt": 640, "response": "Alpha"}, "40": {"stimulus": 874, "trial": 40, "rt": 688, "response": "Alpha"}, "41": {"stimulus": 1312, "trial": 41, "rt": 522, "response": "Alpha"}, "1": {"stimulus": 1280, "trial": 1, "rt": 3225, "response": "Alpha"}, "0": {"stimulus": 2499, "trial": 0, "rt": 1317, "response": "Beta"}, "3": {"stimulus": 1562, "trial": 3, "rt": 2393, "response": "Alpha"}, "2": {"stimulus": 624, "trial": 2, "rt": 1382, "response": "Alpha"}, "5": {"stimulus": 124, "trial": 5, "rt": 1627, "response": "Alpha"}, "4": {"stimulus": 1718, "trial": 4, "rt": 1977, "response": "Alpha"}, "7": {"stimulus": 1343, "trial": 7, "rt": 2150, "response": "Alpha"}, "6": {"stimulus": 343, "trial": 6, "rt": 3720, "response": "Alpha"}, "9": {"stimulus": 187, "trial": 9, "rt": 2705, "response": "Alpha"}, "8": {"stimulus": 593, "trial": 8, "rt": 1898, "response": "Alpha"}, "78": {"stimulus": 1437, "trial": 78, "rt": 759, "response": "Alpha"}, "51": {"stimulus": 1374, "trial": 51, "rt": 513, "response": "Alpha"}, "39": {"stimulus": 655, "trial": 39, "rt": 629, "response": "Alpha"}, "65": {"stimulus": 1624, "trial": 65, "rt": 545, "response": "Alpha"}, "76": {"stimulus": 1937, "trial": 76, "rt": 1000, "response": "Beta"}, "75": {"stimulus": 1187, "trial": 75, "rt": 994, "response": "Alpha"}, "38": {"stimulus": 2374, "trial": 38, "rt": 679, "response": "Alpha"}, "73": {"stimulus": 999, "trial": 73, "rt": 625, "response": "Alpha"}, "72": {"stimulus": 1030, "trial": 72, "rt": 573, "response": "Alpha"}, "71": {"stimulus": 155, "trial": 71, "rt": 612, "response": "Alpha"}, "70": {"stimulus": 1593, "trial": 70, "rt": 711, "response": "Beta"}, "59": {"stimulus": 218, "trial": 59, "rt": 606, "response": "Alpha"}, "79": {"stimulus": 1124, "trial": 79, "rt": 631, "response": "Alpha"}, "58": {"stimulus": 1999, "trial": 58, "rt": 598, "response": "Beta"}, "11": {"stimulus": 1405, "trial": 11, "rt": 1252, "response": "Beta"}, "10": {"stimulus": 843, "trial": 10, "rt": 632, "response": "Alpha"}, "13": {"stimulus": 968, "trial": 13, "rt": 1877, "response": "Alpha"}, "12": {"stimulus": 1968, "trial": 12, "rt": 745, "response": "Beta"}, "15": {"stimulus": 1093, "trial": 15, "rt": 1372, "response": "Beta"}, "14": {"stimulus": 1468, "trial": 14, "rt": 795, "response": "Alpha"}, "17": {"stimulus": 2468, "trial": 17, "rt": 2064, "response": "Alpha"}, "16": {"stimulus": 1155, "trial": 16, "rt": 645, "response": "Alpha"}, "19": {"stimulus": 2312, "trial": 19, "rt": 950, "response": "Alpha"}, "18": {"stimulus": 749, "trial": 18, "rt": 1285, "response": "Beta"}, "31": {"stimulus": 2187, "trial": 31, "rt": 869, "response": "Beta"}, "30": {"stimulus": 1530, "trial": 30, "rt": 872, "response": "Alpha"}, "37": {"stimulus": 1905, "trial": 37, "rt": 596, "response": "Alpha"}, "36": {"stimulus": 2343, "trial": 36, "rt": 489, "response": "Beta"}, "35": {"stimulus": 1874, "trial": 35, "rt": 790, "response": "Alpha"}, "34": {"stimulus": 280, "trial": 34, "rt": 559, "response": "Alpha"}, "33": {"stimulus": 562, "trial": 33, "rt": 726, "response": "Alpha"}, "55": {"stimulus": 2155, "trial": 55, "rt": 603, "response": "Alpha"}, "74": {"stimulus": 1249, "trial": 74, "rt": 815, "response": "Beta"}, "32": {"stimulus": 530, "trial": 32, "rt": 860, "response": "Alpha"}, "57": {"stimulus": 2405, "trial": 57, "rt": 649, "response": "Alpha"}, "50": {"stimulus": 499, "trial": 50, "rt": 605, "response": "Alpha"}}, "experiment": {"Paradigm": "TACL", "Stimuli": "Size-Color Squares", "Experiment": "Generating-Multiple-Categories"}, "submit": {"timeTotal": 265651, "age": "32", "comments": "", "sex": "male"}}