{"info": {"finish": 1548106554551, "participant": 231, "exposed": true, "lab": false, "start": 1548105948234, "counterbalance": 4, "gentype": 1, "condition": "XOR", "browser": {"platform": "Win32", "userAgent": "Mozilla/5.0 (Windows NT 6.3; Win64; x64) AppleWebKit/537.36 (KHTML, like Gecko) Chrome/71.0.3578.98 Safari/537.36"}}, "observation": {"11": {"stimulus": 1479, "trial": 11, "rt": 1479}, "10": {"stimulus": 403, "trial": 10, "rt": 2347}, "1": {"stimulus": 1890, "trial": 1, "rt": 29302}, "0": {"stimulus": 403, "trial": 0, "rt": 31008}, "3": {"stimulus": 818, "trial": 3, "rt": 28104}, "2": {"stimulus": 1479, "trial": 2, "rt": 6152}, "5": {"stimulus": 403, "trial": 5, "rt": 2711}, "4": {"stimulus": 1479, "trial": 4, "rt": 9636}, "7": {"stimulus": 1890, "trial": 7, "rt": 2265}, "6": {"stimulus": 818, "trial": 6, "rt": 2696}, "9": {"stimulus": 1890, "trial": 9, "rt": 1777}, "8": {"stimulus": 818, "trial": 8, "rt": 1907}}, "generation": {"1": {"category": "Beta", "trial": 1, "stimulus": 2450, "rt": 8046}, "0": {"category": "Beta", "trial": 0, "stimulus": 2499, "rt": 13177}, "3": {"category": "Beta", "trial": 3, "stimulus": 28, "rt": 6149}, "2": {"category": "Beta", "trial": 2, "stimulus": 1224, "rt": 6639}, "5": {"category": "Beta", "trial": 5, "stimulus": 1618, "rt": 12556}, "4": {"category": "Beta", "trial": 4, "stimulus": 49, "rt": 4318}, "7": {"category": "Beta", "trial": 7, "stimulus": 2160, "rt": 3941}, "6": {"category": "Beta", "trial": 6, "stimulus": 544, "rt": 3687}}, "generalization": {"56": {"stimulus": 655, "trial": 56, "rt": 384, "response": "Alpha"}, "77": {"stimulus": 218, "trial": 77, "rt": 375, "response": "Alpha"}, "54": {"stimulus": 968, "trial": 54, "rt": 367, "response": "Beta"}, "42": {"stimulus": 1030, "trial": 42, "rt": 447, "response": "Beta"}, "48": {"stimulus": 1062, "trial": 48, "rt": 355, "response": "Alpha"}, "43": {"stimulus": 2187, "trial": 43, "rt": 457, "response": "Beta"}, "60": {"stimulus": 1187, "trial": 60, "rt": 414, "response": "Alpha"}, "61": {"stimulus": 1374, "trial": 61, "rt": 907, "response": "Alpha"}, "62": {"stimulus": 343, "trial": 62, "rt": 422, "response": "Beta"}, "63": {"stimulus": 1905, "trial": 63, "rt": 379, "response": "Alpha"}, "64": {"stimulus": 562, "trial": 64, "rt": 466, "response": "Alpha"}, "49": {"stimulus": 1124, "trial": 49, "rt": 392, "response": "Alpha"}, "66": {"stimulus": 1718, "trial": 66, "rt": 820, "response": "Beta"}, "67": {"stimulus": 2155, "trial": 67, "rt": 451, "response": "Alpha"}, "68": {"stimulus": 905, "trial": 68, "rt": 441, "response": "Alpha"}, "69": {"stimulus": 999, "trial": 69, "rt": 681, "response": "Beta"}, "80": {"stimulus": 2030, "trial": 80, "rt": 455, "response": "Beta"}, "52": {"stimulus": 280, "trial": 52, "rt": 427, "response": "Alpha"}, "53": {"stimulus": 1312, "trial": 53, "rt": 401, "response": "Alpha"}, "24": {"stimulus": 1843, "trial": 24, "rt": 441, "response": "Beta"}, "25": {"stimulus": 1343, "trial": 25, "rt": 914, "response": "Alpha"}, "26": {"stimulus": 1562, "trial": 26, "rt": 560, "response": "Beta"}, "27": {"stimulus": 312, "trial": 27, "rt": 834, "response": "Alpha"}, "20": {"stimulus": 530, "trial": 20, "rt": 412, "response": "Alpha"}, "21": {"stimulus": 2093, "trial": 21, "rt": 443, "response": "Alpha"}, "22": {"stimulus": 93, "trial": 22, "rt": 470, "response": "Beta"}, "23": {"stimulus": 187, "trial": 23, "rt": 574, "response": "Beta"}, "46": {"stimulus": 2062, "trial": 46, "rt": 680, "response": "Alpha"}, "47": {"stimulus": 1499, "trial": 47, "rt": 442, "response": "Beta"}, "44": {"stimulus": 374, "trial": 44, "rt": 1232, "response": "Alpha"}, "45": {"stimulus": 2374, "trial": 45, "rt": 423, "response": "Beta"}, "28": {"stimulus": 1780, "trial": 28, "rt": 1297, "response": "Alpha"}, "29": {"stimulus": 1874, "trial": 29, "rt": 950, "response": "Alpha"}, "40": {"stimulus": 30, "trial": 40, "rt": 566, "response": "Alpha"}, "41": {"stimulus": 62, "trial": 41, "rt": 406, "response": "Alpha"}, "1": {"stimulus": 1280, "trial": 1, "rt": 2912, "response": "Alpha"}, "0": {"stimulus": 155, "trial": 0, "rt": 2504, "response": "Alpha"}, "3": {"stimulus": 1624, "trial": 3, "rt": 1102, "response": "Beta"}, "2": {"stimulus": 405, "trial": 2, "rt": 4537, "response": "Alpha"}, "5": {"stimulus": 437, "trial": 5, "rt": 1322, "response": "Alpha"}, "4": {"stimulus": 249, "trial": 4, "rt": 1168, "response": "Beta"}, "7": {"stimulus": 812, "trial": 7, "rt": 1212, "response": "Beta"}, "6": {"stimulus": 780, "trial": 6, "rt": 1746, "response": "Beta"}, "9": {"stimulus": 2124, "trial": 9, "rt": 1224, "response": "Alpha"}, "8": {"stimulus": 1687, "trial": 8, "rt": 1093, "response": "Alpha"}, "78": {"stimulus": 1968, "trial": 78, "rt": 955, "response": "Beta"}, "51": {"stimulus": 2218, "trial": 51, "rt": 1202, "response": "Alpha"}, "39": {"stimulus": 1749, "trial": 39, "rt": 409, "response": "Beta"}, "65": {"stimulus": 468, "trial": 65, "rt": 456, "response": "Alpha"}, "76": {"stimulus": 2468, "trial": 76, "rt": 4097, "response": "Beta"}, "75": {"stimulus": 624, "trial": 75, "rt": 747, "response": "Beta"}, "38": {"stimulus": 1218, "trial": 38, "rt": 491, "response": "Alpha"}, "73": {"stimulus": 2499, "trial": 73, "rt": 1090, "response": "Beta"}, "72": {"stimulus": 2437, "trial": 72, "rt": 938, "response": "Alpha"}, "71": {"stimulus": 2405, "trial": 71, "rt": 1994, "response": "Beta"}, "70": {"stimulus": 1249, "trial": 70, "rt": 763, "response": "Beta"}, "59": {"stimulus": 1999, "trial": 59, "rt": 409, "response": "Beta"}, "79": {"stimulus": 2343, "trial": 79, "rt": 1316, "response": "Alpha"}, "58": {"stimulus": 0, "trial": 58, "rt": 447, "response": "Alpha"}, "11": {"stimulus": 593, "trial": 11, "rt": 1008, "response": "Alpha"}, "10": {"stimulus": 718, "trial": 10, "rt": 991, "response": "Beta"}, "13": {"stimulus": 1812, "trial": 13, "rt": 484, "response": "Beta"}, "12": {"stimulus": 1593, "trial": 12, "rt": 819, "response": "Alpha"}, "15": {"stimulus": 1530, "trial": 15, "rt": 475, "response": "Alpha"}, "14": {"stimulus": 1093, "trial": 14, "rt": 638, "response": "Alpha"}, "17": {"stimulus": 1437, "trial": 17, "rt": 451, "response": "Beta"}, "16": {"stimulus": 843, "trial": 16, "rt": 524, "response": "Beta"}, "19": {"stimulus": 124, "trial": 19, "rt": 415, "response": "Beta"}, "18": {"stimulus": 2312, "trial": 18, "rt": 482, "response": "Alpha"}, "31": {"stimulus": 1405, "trial": 31, "rt": 426, "response": "Alpha"}, "30": {"stimulus": 499, "trial": 30, "rt": 944, "response": "Beta"}, "37": {"stimulus": 2280, "trial": 37, "rt": 411, "response": "Alpha"}, "36": {"stimulus": 1937, "trial": 36, "rt": 507, "response": "Beta"}, "35": {"stimulus": 749, "trial": 35, "rt": 419, "response": "Alpha"}, "34": {"stimulus": 1155, "trial": 34, "rt": 416, "response": "Alpha"}, "33": {"stimulus": 1468, "trial": 33, "rt": 605, "response": "Beta"}, "55": {"stimulus": 2249, "trial": 55, "rt": 461, "response": "Beta"}, "74": {"stimulus": 874, "trial": 74, "rt": 575, "response": "Alpha"}, "32": {"stimulus": 937, "trial": 32, "rt": 493, "response": "Alpha"}, "57": {"stimulus": 1655, "trial": 57, "rt": 351, "response": "Alpha"}, "50": {"stimulus": 687, "trial": 50, "rt": 488, "response": "Beta"}}, "experiment": {"Paradigm": "TACL", "Stimuli": "Size-Color Squares", "Experiment": "Generating-Multiple-Categories"}, "submit": {"timeTotal": 607927, "age": "49", "comments": "", "sex": "Female"}}