{"info": {"finish": 1548106949874, "participant": 233, "exposed": true, "lab": false, "start": 1548106567795, "counterbalance": 0, "gentype": 1, "condition": "Cluster", "browser": {"platform": "Win32", "userAgent": "Mozilla/5.0 (Windows NT 10.0) AppleWebKit/537.36 (KHTML, like Gecko) Chrome/71.0.3578.98 Safari/537.36"}}, "observation": {"11": {"stimulus": 583, "trial": 11, "rt": 7638}, "10": {"stimulus": 392, "trial": 10, "rt": 7286}, "1": {"stimulus": 1083, "trial": 1, "rt": 4456}, "0": {"stimulus": 583, "trial": 0, "rt": 6235}, "3": {"stimulus": 392, "trial": 3, "rt": 4347}, "2": {"stimulus": 1093, "trial": 2, "rt": 6058}, "5": {"stimulus": 583, "trial": 5, "rt": 3964}, "4": {"stimulus": 1093, "trial": 4, "rt": 2885}, "7": {"stimulus": 1083, "trial": 7, "rt": 2297}, "6": {"stimulus": 392, "trial": 6, "rt": 3954}, "9": {"stimulus": 1093, "trial": 9, "rt": 3082}, "8": {"stimulus": 1083, "trial": 8, "rt": 3088}}, "generation": {"1": {"category": "Beta", "trial": 1, "stimulus": 966, "rt": 11994}, "0": {"category": "Beta", "trial": 0, "stimulus": 967, "rt": 13966}, "3": {"category": "Beta", "trial": 3, "stimulus": 1271, "rt": 5617}, "2": {"category": "Beta", "trial": 2, "stimulus": 1322, "rt": 6387}, "5": {"category": "Beta", "trial": 5, "stimulus": 2079, "rt": 20291}, "4": {"category": "Beta", "trial": 4, "stimulus": 1273, "rt": 25208}, "7": {"category": "Beta", "trial": 7, "stimulus": 819, "rt": 14559}, "6": {"category": "Beta", "trial": 6, "stimulus": 1465, "rt": 23077}}, "generalization": {"56": {"stimulus": 2155, "trial": 56, "rt": 1557, "response": "Beta"}, "77": {"stimulus": 155, "trial": 77, "rt": 565, "response": "Alpha"}, "54": {"stimulus": 1530, "trial": 54, "rt": 1502, "response": "Alpha"}, "42": {"stimulus": 1843, "trial": 42, "rt": 1045, "response": "Beta"}, "48": {"stimulus": 1093, "trial": 48, "rt": 1022, "response": "Alpha"}, "43": {"stimulus": 468, "trial": 43, "rt": 533, "response": "Beta"}, "60": {"stimulus": 1374, "trial": 60, "rt": 957, "response": "Alpha"}, "61": {"stimulus": 1187, "trial": 61, "rt": 758, "response": "Alpha"}, "62": {"stimulus": 1593, "trial": 62, "rt": 1007, "response": "Alpha"}, "63": {"stimulus": 1062, "trial": 63, "rt": 932, "response": "Alpha"}, "64": {"stimulus": 1968, "trial": 64, "rt": 732, "response": "Alpha"}, "49": {"stimulus": 218, "trial": 49, "rt": 2311, "response": "Alpha"}, "66": {"stimulus": 718, "trial": 66, "rt": 1183, "response": "Alpha"}, "67": {"stimulus": 374, "trial": 67, "rt": 662, "response": "Alpha"}, "68": {"stimulus": 812, "trial": 68, "rt": 798, "response": "Alpha"}, "69": {"stimulus": 749, "trial": 69, "rt": 1329, "response": "Alpha"}, "80": {"stimulus": 2187, "trial": 80, "rt": 1071, "response": "Beta"}, "52": {"stimulus": 2343, "trial": 52, "rt": 2316, "response": "Beta"}, "53": {"stimulus": 405, "trial": 53, "rt": 1237, "response": "Alpha"}, "24": {"stimulus": 1468, "trial": 24, "rt": 686, "response": "Alpha"}, "25": {"stimulus": 2312, "trial": 25, "rt": 1500, "response": "Beta"}, "26": {"stimulus": 1937, "trial": 26, "rt": 1327, "response": "Beta"}, "27": {"stimulus": 1405, "trial": 27, "rt": 2660, "response": "Beta"}, "20": {"stimulus": 843, "trial": 20, "rt": 414, "response": "Alpha"}, "21": {"stimulus": 968, "trial": 21, "rt": 382, "response": "Alpha"}, "22": {"stimulus": 1749, "trial": 22, "rt": 727, "response": "Alpha"}, "23": {"stimulus": 2093, "trial": 23, "rt": 621, "response": "Alpha"}, "46": {"stimulus": 2030, "trial": 46, "rt": 1334, "response": "Alpha"}, "47": {"stimulus": 2062, "trial": 47, "rt": 854, "response": "Alpha"}, "44": {"stimulus": 93, "trial": 44, "rt": 1759, "response": "Alpha"}, "45": {"stimulus": 2499, "trial": 45, "rt": 1717, "response": "Beta"}, "28": {"stimulus": 30, "trial": 28, "rt": 2270, "response": "Alpha"}, "29": {"stimulus": 1343, "trial": 29, "rt": 1806, "response": "Beta"}, "40": {"stimulus": 999, "trial": 40, "rt": 693, "response": "Alpha"}, "41": {"stimulus": 1780, "trial": 41, "rt": 486, "response": "Alpha"}, "1": {"stimulus": 1030, "trial": 1, "rt": 3189, "response": "Alpha"}, "0": {"stimulus": 624, "trial": 0, "rt": 5220, "response": "Beta"}, "3": {"stimulus": 1999, "trial": 3, "rt": 798, "response": "Alpha"}, "2": {"stimulus": 499, "trial": 2, "rt": 1207, "response": "Beta"}, "5": {"stimulus": 1562, "trial": 5, "rt": 670, "response": "Beta"}, "4": {"stimulus": 2437, "trial": 4, "rt": 880, "response": "Beta"}, "7": {"stimulus": 1499, "trial": 7, "rt": 1079, "response": "Alpha"}, "6": {"stimulus": 687, "trial": 6, "rt": 861, "response": "Alpha"}, "9": {"stimulus": 2468, "trial": 9, "rt": 1119, "response": "Beta"}, "8": {"stimulus": 1218, "trial": 8, "rt": 687, "response": "Alpha"}, "78": {"stimulus": 937, "trial": 78, "rt": 486, "response": "Alpha"}, "51": {"stimulus": 1280, "trial": 51, "rt": 1183, "response": "Alpha"}, "39": {"stimulus": 280, "trial": 39, "rt": 565, "response": "Beta"}, "65": {"stimulus": 0, "trial": 65, "rt": 935, "response": "Alpha"}, "76": {"stimulus": 593, "trial": 76, "rt": 492, "response": "Alpha"}, "75": {"stimulus": 530, "trial": 75, "rt": 1125, "response": "Alpha"}, "38": {"stimulus": 1687, "trial": 38, "rt": 655, "response": "Beta"}, "73": {"stimulus": 1312, "trial": 73, "rt": 542, "response": "Beta"}, "72": {"stimulus": 62, "trial": 72, "rt": 644, "response": "Beta"}, "71": {"stimulus": 2280, "trial": 71, "rt": 1136, "response": "Beta"}, "70": {"stimulus": 2374, "trial": 70, "rt": 500, "response": "Alpha"}, "59": {"stimulus": 1905, "trial": 59, "rt": 1253, "response": "Alpha"}, "79": {"stimulus": 343, "trial": 79, "rt": 653, "response": "Alpha"}, "58": {"stimulus": 874, "trial": 58, "rt": 701, "response": "Beta"}, "11": {"stimulus": 2218, "trial": 11, "rt": 830, "response": "Beta"}, "10": {"stimulus": 1812, "trial": 10, "rt": 877, "response": "Beta"}, "13": {"stimulus": 1249, "trial": 13, "rt": 2350, "response": "Beta"}, "12": {"stimulus": 1655, "trial": 12, "rt": 720, "response": "Beta"}, "15": {"stimulus": 655, "trial": 15, "rt": 1814, "response": "Alpha"}, "14": {"stimulus": 249, "trial": 14, "rt": 1590, "response": "Beta"}, "17": {"stimulus": 312, "trial": 17, "rt": 559, "response": "Alpha"}, "16": {"stimulus": 437, "trial": 16, "rt": 847, "response": "Alpha"}, "19": {"stimulus": 124, "trial": 19, "rt": 749, "response": "Beta"}, "18": {"stimulus": 780, "trial": 18, "rt": 686, "response": "Alpha"}, "31": {"stimulus": 2405, "trial": 31, "rt": 874, "response": "Beta"}, "30": {"stimulus": 1124, "trial": 30, "rt": 1761, "response": "Alpha"}, "37": {"stimulus": 1437, "trial": 37, "rt": 806, "response": "Beta"}, "36": {"stimulus": 2124, "trial": 36, "rt": 678, "response": "Beta"}, "35": {"stimulus": 1874, "trial": 35, "rt": 630, "response": "Beta"}, "34": {"stimulus": 1718, "trial": 34, "rt": 821, "response": "Beta"}, "33": {"stimulus": 187, "trial": 33, "rt": 790, "response": "Alpha"}, "55": {"stimulus": 905, "trial": 55, "rt": 805, "response": "Alpha"}, "74": {"stimulus": 1155, "trial": 74, "rt": 413, "response": "Beta"}, "32": {"stimulus": 2249, "trial": 32, "rt": 552, "response": "Beta"}, "57": {"stimulus": 1624, "trial": 57, "rt": 854, "response": "Alpha"}, "50": {"stimulus": 562, "trial": 50, "rt": 3461, "response": "Alpha"}}, "experiment": {"Paradigm": "TACL", "Stimuli": "Size-Color Squares", "Experiment": "Generating-Multiple-Categories"}, "submit": {"timeTotal": 383859, "age": "28", "comments": "no", "sex": "male"}}