{"info": {"finish": 1548107856485, "participant": 234, "exposed": true, "lab": false, "start": 1548107578382, "counterbalance": 2, "gentype": 1, "condition": "XOR", "browser": {"platform": "Win32", "userAgent": "Mozilla/5.0 (Windows NT 6.1) AppleWebKit/537.36 (KHTML, like Gecko) Chrome/71.0.3578.98 Safari/537.36"}}, "observation": {"11": {"stimulus": 403, "trial": 11, "rt": 1995}, "10": {"stimulus": 1479, "trial": 10, "rt": 1998}, "1": {"stimulus": 1890, "trial": 1, "rt": 2398}, "0": {"stimulus": 818, "trial": 0, "rt": 4511}, "3": {"stimulus": 403, "trial": 3, "rt": 1836}, "2": {"stimulus": 1479, "trial": 2, "rt": 1575}, "5": {"stimulus": 1890, "trial": 5, "rt": 1627}, "4": {"stimulus": 1479, "trial": 4, "rt": 1551}, "7": {"stimulus": 403, "trial": 7, "rt": 2053}, "6": {"stimulus": 818, "trial": 6, "rt": 5524}, "9": {"stimulus": 818, "trial": 9, "rt": 1447}, "8": {"stimulus": 1890, "trial": 8, "rt": 1550}}, "generation": {"1": {"category": "Beta", "trial": 1, "stimulus": 1880, "rt": 4457}, "0": {"category": "Beta", "trial": 0, "stimulus": 1687, "rt": 7190}, "3": {"category": "Beta", "trial": 3, "stimulus": 1266, "rt": 6535}, "2": {"category": "Beta", "trial": 2, "stimulus": 47, "rt": 3762}, "5": {"category": "Beta", "trial": 5, "stimulus": 1338, "rt": 4201}, "4": {"category": "Beta", "trial": 4, "stimulus": 1374, "rt": 4936}, "7": {"category": "Beta", "trial": 7, "stimulus": 986, "rt": 8241}, "6": {"category": "Beta", "trial": 6, "stimulus": 1378, "rt": 6785}}, "generalization": {"56": {"stimulus": 624, "trial": 56, "rt": 813, "response": "Beta"}, "77": {"stimulus": 530, "trial": 77, "rt": 1332, "response": "Alpha"}, "54": {"stimulus": 2155, "trial": 54, "rt": 540, "response": "Beta"}, "42": {"stimulus": 1187, "trial": 42, "rt": 845, "response": "Beta"}, "48": {"stimulus": 1968, "trial": 48, "rt": 547, "response": "Beta"}, "43": {"stimulus": 0, "trial": 43, "rt": 1118, "response": "Alpha"}, "60": {"stimulus": 1249, "trial": 60, "rt": 613, "response": "Beta"}, "61": {"stimulus": 812, "trial": 61, "rt": 1128, "response": "Alpha"}, "62": {"stimulus": 187, "trial": 62, "rt": 731, "response": "Alpha"}, "63": {"stimulus": 1124, "trial": 63, "rt": 750, "response": "Alpha"}, "64": {"stimulus": 2249, "trial": 64, "rt": 1188, "response": "Beta"}, "49": {"stimulus": 1280, "trial": 49, "rt": 832, "response": "Beta"}, "66": {"stimulus": 1937, "trial": 66, "rt": 638, "response": "Alpha"}, "67": {"stimulus": 2312, "trial": 67, "rt": 577, "response": "Beta"}, "68": {"stimulus": 1093, "trial": 68, "rt": 728, "response": "Beta"}, "69": {"stimulus": 780, "trial": 69, "rt": 916, "response": "Alpha"}, "80": {"stimulus": 1874, "trial": 80, "rt": 1104, "response": "Beta"}, "52": {"stimulus": 1405, "trial": 52, "rt": 657, "response": "Beta"}, "53": {"stimulus": 62, "trial": 53, "rt": 1293, "response": "Beta"}, "24": {"stimulus": 1999, "trial": 24, "rt": 505, "response": "Beta"}, "25": {"stimulus": 687, "trial": 25, "rt": 1198, "response": "Alpha"}, "26": {"stimulus": 1030, "trial": 26, "rt": 776, "response": "Alpha"}, "27": {"stimulus": 1062, "trial": 27, "rt": 1206, "response": "Beta"}, "20": {"stimulus": 1812, "trial": 20, "rt": 528, "response": "Beta"}, "21": {"stimulus": 593, "trial": 21, "rt": 929, "response": "Alpha"}, "22": {"stimulus": 749, "trial": 22, "rt": 820, "response": "Alpha"}, "23": {"stimulus": 1312, "trial": 23, "rt": 841, "response": "Beta"}, "46": {"stimulus": 1687, "trial": 46, "rt": 513, "response": "Beta"}, "47": {"stimulus": 1437, "trial": 47, "rt": 593, "response": "Beta"}, "44": {"stimulus": 1218, "trial": 44, "rt": 1116, "response": "Beta"}, "45": {"stimulus": 1562, "trial": 45, "rt": 678, "response": "Beta"}, "28": {"stimulus": 1749, "trial": 28, "rt": 668, "response": "Beta"}, "29": {"stimulus": 2030, "trial": 29, "rt": 656, "response": "Beta"}, "40": {"stimulus": 1530, "trial": 40, "rt": 1275, "response": "Beta"}, "41": {"stimulus": 2093, "trial": 41, "rt": 635, "response": "Beta"}, "1": {"stimulus": 2280, "trial": 1, "rt": 828, "response": "Beta"}, "0": {"stimulus": 468, "trial": 0, "rt": 2276, "response": "Alpha"}, "3": {"stimulus": 1343, "trial": 3, "rt": 1194, "response": "Beta"}, "2": {"stimulus": 93, "trial": 2, "rt": 767, "response": "Alpha"}, "5": {"stimulus": 905, "trial": 5, "rt": 1122, "response": "Alpha"}, "4": {"stimulus": 2343, "trial": 4, "rt": 498, "response": "Alpha"}, "7": {"stimulus": 843, "trial": 7, "rt": 1519, "response": "Alpha"}, "6": {"stimulus": 1468, "trial": 6, "rt": 469, "response": "Beta"}, "9": {"stimulus": 499, "trial": 9, "rt": 720, "response": "Beta"}, "8": {"stimulus": 874, "trial": 8, "rt": 906, "response": "Alpha"}, "78": {"stimulus": 655, "trial": 78, "rt": 896, "response": "Alpha"}, "51": {"stimulus": 343, "trial": 51, "rt": 870, "response": "Alpha"}, "39": {"stimulus": 218, "trial": 39, "rt": 1117, "response": "Alpha"}, "65": {"stimulus": 2374, "trial": 65, "rt": 7348, "response": "Beta"}, "76": {"stimulus": 1655, "trial": 76, "rt": 861, "response": "Beta"}, "75": {"stimulus": 937, "trial": 75, "rt": 1508, "response": "Beta"}, "38": {"stimulus": 2437, "trial": 38, "rt": 794, "response": "Beta"}, "73": {"stimulus": 999, "trial": 73, "rt": 894, "response": "Alpha"}, "72": {"stimulus": 30, "trial": 72, "rt": 991, "response": "Alpha"}, "71": {"stimulus": 1780, "trial": 71, "rt": 867, "response": "Beta"}, "70": {"stimulus": 968, "trial": 70, "rt": 631, "response": "Alpha"}, "59": {"stimulus": 1155, "trial": 59, "rt": 618, "response": "Beta"}, "79": {"stimulus": 374, "trial": 79, "rt": 552, "response": "Alpha"}, "58": {"stimulus": 2062, "trial": 58, "rt": 652, "response": "Beta"}, "11": {"stimulus": 2124, "trial": 11, "rt": 766, "response": "Beta"}, "10": {"stimulus": 2187, "trial": 10, "rt": 1977, "response": "Alpha"}, "13": {"stimulus": 437, "trial": 13, "rt": 1258, "response": "Alpha"}, "12": {"stimulus": 2499, "trial": 12, "rt": 540, "response": "Beta"}, "15": {"stimulus": 1374, "trial": 15, "rt": 715, "response": "Beta"}, "14": {"stimulus": 124, "trial": 14, "rt": 1050, "response": "Alpha"}, "17": {"stimulus": 405, "trial": 17, "rt": 1144, "response": "Alpha"}, "16": {"stimulus": 2405, "trial": 16, "rt": 731, "response": "Beta"}, "19": {"stimulus": 562, "trial": 19, "rt": 1145, "response": "Alpha"}, "18": {"stimulus": 1624, "trial": 18, "rt": 603, "response": "Beta"}, "31": {"stimulus": 249, "trial": 31, "rt": 884, "response": "Alpha"}, "30": {"stimulus": 1593, "trial": 30, "rt": 703, "response": "Beta"}, "37": {"stimulus": 155, "trial": 37, "rt": 835, "response": "Alpha"}, "36": {"stimulus": 2468, "trial": 36, "rt": 635, "response": "Beta"}, "35": {"stimulus": 1843, "trial": 35, "rt": 920, "response": "Beta"}, "34": {"stimulus": 312, "trial": 34, "rt": 1185, "response": "Alpha"}, "33": {"stimulus": 1499, "trial": 33, "rt": 1033, "response": "Beta"}, "55": {"stimulus": 280, "trial": 55, "rt": 1019, "response": "Alpha"}, "74": {"stimulus": 2218, "trial": 74, "rt": 919, "response": "Beta"}, "32": {"stimulus": 718, "trial": 32, "rt": 395, "response": "Alpha"}, "57": {"stimulus": 1718, "trial": 57, "rt": 879, "response": "Beta"}, "50": {"stimulus": 1905, "trial": 50, "rt": 817, "response": "Beta"}}, "experiment": {"Paradigm": "TACL", "Stimuli": "Size-Color Squares", "Experiment": "Generating-Multiple-Categories"}, "submit": {"timeTotal": 279494, "age": "34", "comments": "Awesome", "sex": "Male"}}