{"info": {"finish": 1548115449198, "participant": 248, "exposed": true, "lab": false, "start": 1548114958809, "counterbalance": 5, "gentype": 1, "condition": "Cluster", "browser": {"platform": "Win32", "userAgent": "Mozilla/5.0 (Windows NT 5.1) AppleWebKit/537.36 (KHTML, like Gecko) Chrome/49.0.2623.112 Safari/537.36"}}, "observation": {"11": {"stimulus": 583, "trial": 11, "rt": 1808}, "10": {"stimulus": 392, "trial": 10, "rt": 1943}, "1": {"stimulus": 392, "trial": 1, "rt": 3135}, "0": {"stimulus": 583, "trial": 0, "rt": 6715}, "3": {"stimulus": 1083, "trial": 3, "rt": 3510}, "2": {"stimulus": 1093, "trial": 2, "rt": 2246}, "5": {"stimulus": 1083, "trial": 5, "rt": 1862}, "4": {"stimulus": 583, "trial": 4, "rt": 2199}, "7": {"stimulus": 392, "trial": 7, "rt": 2277}, "6": {"stimulus": 1093, "trial": 6, "rt": 2614}, "9": {"stimulus": 1093, "trial": 9, "rt": 2920}, "8": {"stimulus": 1083, "trial": 8, "rt": 1934}}, "generation": {"1": {"category": "Beta", "trial": 1, "stimulus": 850, "rt": 9498}, "0": {"category": "Beta", "trial": 0, "stimulus": 950, "rt": 30345}, "3": {"category": "Beta", "trial": 3, "stimulus": 0, "rt": 9685}, "2": {"category": "Beta", "trial": 2, "stimulus": 505, "rt": 9236}, "5": {"category": "Beta", "trial": 5, "stimulus": 1505, "rt": 9473}, "4": {"category": "Beta", "trial": 4, "stimulus": 1803, "rt": 8078}, "7": {"category": "Beta", "trial": 7, "stimulus": 904, "rt": 20385}, "6": {"category": "Beta", "trial": 6, "stimulus": 603, "rt": 8346}}, "generalization": {"56": {"stimulus": 1530, "trial": 56, "rt": 1327, "response": "Alpha"}, "77": {"stimulus": 2093, "trial": 77, "rt": 934, "response": "Alpha"}, "54": {"stimulus": 999, "trial": 54, "rt": 727, "response": "Alpha"}, "42": {"stimulus": 718, "trial": 42, "rt": 1311, "response": "Beta"}, "48": {"stimulus": 2312, "trial": 48, "rt": 958, "response": "Beta"}, "43": {"stimulus": 624, "trial": 43, "rt": 701, "response": "Beta"}, "60": {"stimulus": 2280, "trial": 60, "rt": 1963, "response": "Alpha"}, "61": {"stimulus": 1280, "trial": 61, "rt": 1079, "response": "Alpha"}, "62": {"stimulus": 30, "trial": 62, "rt": 720, "response": "Alpha"}, "63": {"stimulus": 1905, "trial": 63, "rt": 1427, "response": "Beta"}, "64": {"stimulus": 1343, "trial": 64, "rt": 1090, "response": "Alpha"}, "49": {"stimulus": 2374, "trial": 49, "rt": 1718, "response": "Beta"}, "66": {"stimulus": 1437, "trial": 66, "rt": 1220, "response": "Alpha"}, "67": {"stimulus": 1874, "trial": 67, "rt": 4037, "response": "Alpha"}, "68": {"stimulus": 1968, "trial": 68, "rt": 2048, "response": "Beta"}, "69": {"stimulus": 1937, "trial": 69, "rt": 1086, "response": "Alpha"}, "80": {"stimulus": 1062, "trial": 80, "rt": 1622, "response": "Beta"}, "52": {"stimulus": 530, "trial": 52, "rt": 909, "response": "Alpha"}, "53": {"stimulus": 937, "trial": 53, "rt": 860, "response": "Alpha"}, "24": {"stimulus": 405, "trial": 24, "rt": 1118, "response": "Beta"}, "25": {"stimulus": 1405, "trial": 25, "rt": 911, "response": "Beta"}, "26": {"stimulus": 2249, "trial": 26, "rt": 1407, "response": "Alpha"}, "27": {"stimulus": 218, "trial": 27, "rt": 1247, "response": "Alpha"}, "20": {"stimulus": 1624, "trial": 20, "rt": 822, "response": "Alpha"}, "21": {"stimulus": 2405, "trial": 21, "rt": 1245, "response": "Beta"}, "22": {"stimulus": 749, "trial": 22, "rt": 1054, "response": "Alpha"}, "23": {"stimulus": 374, "trial": 23, "rt": 1309, "response": "Alpha"}, "46": {"stimulus": 812, "trial": 46, "rt": 990, "response": "Beta"}, "47": {"stimulus": 1780, "trial": 47, "rt": 1233, "response": "Alpha"}, "44": {"stimulus": 2187, "trial": 44, "rt": 663, "response": "Alpha"}, "45": {"stimulus": 1749, "trial": 45, "rt": 615, "response": "Alpha"}, "28": {"stimulus": 2030, "trial": 28, "rt": 950, "response": "Alpha"}, "29": {"stimulus": 437, "trial": 29, "rt": 630, "response": "Alpha"}, "40": {"stimulus": 1687, "trial": 40, "rt": 549, "response": "Alpha"}, "41": {"stimulus": 249, "trial": 41, "rt": 565, "response": "Alpha"}, "1": {"stimulus": 2468, "trial": 1, "rt": 1557, "response": "Alpha"}, "0": {"stimulus": 2062, "trial": 0, "rt": 5645, "response": "Alpha"}, "3": {"stimulus": 780, "trial": 3, "rt": 902, "response": "Alpha"}, "2": {"stimulus": 874, "trial": 2, "rt": 1215, "response": "Alpha"}, "5": {"stimulus": 312, "trial": 5, "rt": 1623, "response": "Alpha"}, "4": {"stimulus": 905, "trial": 4, "rt": 1304, "response": "Beta"}, "7": {"stimulus": 1030, "trial": 7, "rt": 848, "response": "Alpha"}, "6": {"stimulus": 124, "trial": 6, "rt": 1008, "response": "Alpha"}, "9": {"stimulus": 655, "trial": 9, "rt": 1199, "response": "Beta"}, "8": {"stimulus": 1593, "trial": 8, "rt": 2614, "response": "Alpha"}, "78": {"stimulus": 343, "trial": 78, "rt": 690, "response": "Alpha"}, "51": {"stimulus": 1124, "trial": 51, "rt": 2090, "response": "Alpha"}, "39": {"stimulus": 687, "trial": 39, "rt": 1055, "response": "Alpha"}, "65": {"stimulus": 0, "trial": 65, "rt": 918, "response": "Beta"}, "76": {"stimulus": 2218, "trial": 76, "rt": 1366, "response": "Beta"}, "75": {"stimulus": 1499, "trial": 75, "rt": 983, "response": "Alpha"}, "38": {"stimulus": 2499, "trial": 38, "rt": 558, "response": "Alpha"}, "73": {"stimulus": 155, "trial": 73, "rt": 950, "response": "Beta"}, "72": {"stimulus": 468, "trial": 72, "rt": 2886, "response": "Beta"}, "71": {"stimulus": 2124, "trial": 71, "rt": 1095, "response": "Alpha"}, "70": {"stimulus": 593, "trial": 70, "rt": 654, "response": "Alpha"}, "59": {"stimulus": 2343, "trial": 59, "rt": 594, "response": "Alpha"}, "79": {"stimulus": 499, "trial": 79, "rt": 635, "response": "Alpha"}, "58": {"stimulus": 1093, "trial": 58, "rt": 1063, "response": "Alpha"}, "11": {"stimulus": 1562, "trial": 11, "rt": 2999, "response": "Alpha"}, "10": {"stimulus": 1155, "trial": 10, "rt": 583, "response": "Beta"}, "13": {"stimulus": 1718, "trial": 13, "rt": 1379, "response": "Alpha"}, "12": {"stimulus": 968, "trial": 12, "rt": 954, "response": "Alpha"}, "15": {"stimulus": 1218, "trial": 15, "rt": 1214, "response": "Alpha"}, "14": {"stimulus": 1187, "trial": 14, "rt": 701, "response": "Alpha"}, "17": {"stimulus": 93, "trial": 17, "rt": 1726, "response": "Alpha"}, "16": {"stimulus": 1655, "trial": 16, "rt": 1221, "response": "Beta"}, "19": {"stimulus": 562, "trial": 19, "rt": 4926, "response": "Beta"}, "18": {"stimulus": 62, "trial": 18, "rt": 8758, "response": "Beta"}, "31": {"stimulus": 1249, "trial": 31, "rt": 529, "response": "Alpha"}, "30": {"stimulus": 1843, "trial": 30, "rt": 549, "response": "Alpha"}, "37": {"stimulus": 187, "trial": 37, "rt": 601, "response": "Alpha"}, "36": {"stimulus": 2437, "trial": 36, "rt": 679, "response": "Alpha"}, "35": {"stimulus": 1999, "trial": 35, "rt": 519, "response": "Alpha"}, "34": {"stimulus": 843, "trial": 34, "rt": 717, "response": "Alpha"}, "33": {"stimulus": 1468, "trial": 33, "rt": 880, "response": "Alpha"}, "55": {"stimulus": 1812, "trial": 55, "rt": 1014, "response": "Beta"}, "74": {"stimulus": 1312, "trial": 74, "rt": 831, "response": "Beta"}, "32": {"stimulus": 1374, "trial": 32, "rt": 1550, "response": "Alpha"}, "57": {"stimulus": 2155, "trial": 57, "rt": 967, "response": "Beta"}, "50": {"stimulus": 280, "trial": 50, "rt": 808, "response": "Alpha"}}, "experiment": {"Paradigm": "TACL", "Stimuli": "Size-Color Squares", "Experiment": "Generating-Multiple-Categories"}, "submit": {"timeTotal": 490652, "age": "31", "comments": "Thanks for the interesting study.", "sex": "female"}}