{"info": {"finish": 1548118876289, "participant": 252, "exposed": true, "lab": false, "start": 1548118458988, "counterbalance": 5, "gentype": 1, "condition": "Row", "browser": {"platform": "Win32", "userAgent": "Mozilla/5.0 (Windows NT 10.0; Win64; x64) AppleWebKit/537.36 (KHTML, like Gecko) Chrome/71.0.3578.98 Safari/537.36"}}, "observation": {"11": {"stimulus": 493, "trial": 11, "rt": 1311}, "10": {"stimulus": 582, "trial": 10, "rt": 1670}, "1": {"stimulus": 493, "trial": 1, "rt": 7216}, "0": {"stimulus": 582, "trial": 0, "rt": 73216}, "3": {"stimulus": 421, "trial": 3, "rt": 2366}, "2": {"stimulus": 612, "trial": 2, "rt": 1866}, "5": {"stimulus": 582, "trial": 5, "rt": 1605}, "4": {"stimulus": 493, "trial": 4, "rt": 1593}, "7": {"stimulus": 421, "trial": 7, "rt": 1451}, "6": {"stimulus": 612, "trial": 6, "rt": 2133}, "9": {"stimulus": 612, "trial": 9, "rt": 1945}, "8": {"stimulus": 421, "trial": 8, "rt": 2319}}, "generation": {"1": {"category": "Beta", "trial": 1, "stimulus": 2452, "rt": 7534}, "0": {"category": "Beta", "trial": 0, "stimulus": 2450, "rt": 15475}, "3": {"category": "Beta", "trial": 3, "stimulus": 2478, "rt": 5645}, "2": {"category": "Beta", "trial": 2, "stimulus": 2494, "rt": 4015}, "5": {"category": "Beta", "trial": 5, "stimulus": 2484, "rt": 3998}, "4": {"category": "Beta", "trial": 4, "stimulus": 2466, "rt": 4006}, "7": {"category": "Beta", "trial": 7, "stimulus": 2499, "rt": 4404}, "6": {"category": "Beta", "trial": 6, "stimulus": 2486, "rt": 5256}}, "generalization": {"56": {"stimulus": 968, "trial": 56, "rt": 789, "response": "Beta"}, "77": {"stimulus": 155, "trial": 77, "rt": 459, "response": "Alpha"}, "54": {"stimulus": 2249, "trial": 54, "rt": 592, "response": "Beta"}, "42": {"stimulus": 1280, "trial": 42, "rt": 632, "response": "Beta"}, "48": {"stimulus": 1530, "trial": 48, "rt": 1935, "response": "Beta"}, "43": {"stimulus": 749, "trial": 43, "rt": 973, "response": "Alpha"}, "60": {"stimulus": 343, "trial": 60, "rt": 876, "response": "Alpha"}, "61": {"stimulus": 1687, "trial": 61, "rt": 997, "response": "Beta"}, "62": {"stimulus": 1499, "trial": 62, "rt": 482, "response": "Beta"}, "63": {"stimulus": 187, "trial": 63, "rt": 851, "response": "Alpha"}, "64": {"stimulus": 2499, "trial": 64, "rt": 545, "response": "Beta"}, "49": {"stimulus": 1780, "trial": 49, "rt": 608, "response": "Beta"}, "66": {"stimulus": 1968, "trial": 66, "rt": 522, "response": "Beta"}, "67": {"stimulus": 2187, "trial": 67, "rt": 711, "response": "Beta"}, "68": {"stimulus": 1843, "trial": 68, "rt": 699, "response": "Beta"}, "69": {"stimulus": 0, "trial": 69, "rt": 766, "response": "Alpha"}, "80": {"stimulus": 937, "trial": 80, "rt": 1648, "response": "Alpha"}, "52": {"stimulus": 218, "trial": 52, "rt": 708, "response": "Alpha"}, "53": {"stimulus": 874, "trial": 53, "rt": 1632, "response": "Beta"}, "24": {"stimulus": 780, "trial": 24, "rt": 966, "response": "Alpha"}, "25": {"stimulus": 2062, "trial": 25, "rt": 694, "response": "Beta"}, "26": {"stimulus": 718, "trial": 26, "rt": 717, "response": "Alpha"}, "27": {"stimulus": 2437, "trial": 27, "rt": 514, "response": "Beta"}, "20": {"stimulus": 499, "trial": 20, "rt": 872, "response": "Alpha"}, "21": {"stimulus": 2405, "trial": 21, "rt": 850, "response": "Beta"}, "22": {"stimulus": 1593, "trial": 22, "rt": 1295, "response": "Alpha"}, "23": {"stimulus": 1905, "trial": 23, "rt": 4334, "response": "Alpha"}, "46": {"stimulus": 1218, "trial": 46, "rt": 1265, "response": "Beta"}, "47": {"stimulus": 1937, "trial": 47, "rt": 702, "response": "Beta"}, "44": {"stimulus": 1624, "trial": 44, "rt": 856, "response": "Beta"}, "45": {"stimulus": 1093, "trial": 45, "rt": 1006, "response": "Alpha"}, "28": {"stimulus": 280, "trial": 28, "rt": 767, "response": "Alpha"}, "29": {"stimulus": 1812, "trial": 29, "rt": 642, "response": "Beta"}, "40": {"stimulus": 62, "trial": 40, "rt": 724, "response": "Beta"}, "41": {"stimulus": 1249, "trial": 41, "rt": 616, "response": "Beta"}, "1": {"stimulus": 905, "trial": 1, "rt": 2468, "response": "Alpha"}, "0": {"stimulus": 468, "trial": 0, "rt": 1863, "response": "Alpha"}, "3": {"stimulus": 812, "trial": 3, "rt": 630, "response": "Alpha"}, "2": {"stimulus": 2312, "trial": 2, "rt": 835, "response": "Beta"}, "5": {"stimulus": 2155, "trial": 5, "rt": 560, "response": "Alpha"}, "4": {"stimulus": 2030, "trial": 4, "rt": 592, "response": "Beta"}, "7": {"stimulus": 1999, "trial": 7, "rt": 1506, "response": "Alpha"}, "6": {"stimulus": 1562, "trial": 6, "rt": 1679, "response": "Alpha"}, "9": {"stimulus": 655, "trial": 9, "rt": 695, "response": "Alpha"}, "8": {"stimulus": 624, "trial": 8, "rt": 943, "response": "Alpha"}, "78": {"stimulus": 1874, "trial": 78, "rt": 811, "response": "Beta"}, "51": {"stimulus": 1030, "trial": 51, "rt": 1014, "response": "Alpha"}, "39": {"stimulus": 405, "trial": 39, "rt": 702, "response": "Beta"}, "65": {"stimulus": 562, "trial": 65, "rt": 631, "response": "Alpha"}, "76": {"stimulus": 1124, "trial": 76, "rt": 797, "response": "Alpha"}, "75": {"stimulus": 1187, "trial": 75, "rt": 725, "response": "Alpha"}, "38": {"stimulus": 530, "trial": 38, "rt": 740, "response": "Beta"}, "73": {"stimulus": 1343, "trial": 73, "rt": 749, "response": "Alpha"}, "72": {"stimulus": 2468, "trial": 72, "rt": 686, "response": "Beta"}, "71": {"stimulus": 312, "trial": 71, "rt": 639, "response": "Alpha"}, "70": {"stimulus": 374, "trial": 70, "rt": 905, "response": "Alpha"}, "59": {"stimulus": 999, "trial": 59, "rt": 1228, "response": "Beta"}, "79": {"stimulus": 2124, "trial": 79, "rt": 818, "response": "Beta"}, "58": {"stimulus": 2280, "trial": 58, "rt": 500, "response": "Beta"}, "11": {"stimulus": 2374, "trial": 11, "rt": 12950, "response": "Beta"}, "10": {"stimulus": 2343, "trial": 10, "rt": 756, "response": "Beta"}, "13": {"stimulus": 1312, "trial": 13, "rt": 623, "response": "Alpha"}, "12": {"stimulus": 1437, "trial": 12, "rt": 2937, "response": "Alpha"}, "15": {"stimulus": 1749, "trial": 15, "rt": 653, "response": "Alpha"}, "14": {"stimulus": 1718, "trial": 14, "rt": 874, "response": "Alpha"}, "17": {"stimulus": 249, "trial": 17, "rt": 960, "response": "Alpha"}, "16": {"stimulus": 1468, "trial": 16, "rt": 2372, "response": "Alpha"}, "19": {"stimulus": 124, "trial": 19, "rt": 941, "response": "Alpha"}, "18": {"stimulus": 2093, "trial": 18, "rt": 728, "response": "Beta"}, "31": {"stimulus": 93, "trial": 31, "rt": 539, "response": "Alpha"}, "30": {"stimulus": 1655, "trial": 30, "rt": 913, "response": "Beta"}, "37": {"stimulus": 30, "trial": 37, "rt": 719, "response": "Alpha"}, "36": {"stimulus": 1062, "trial": 36, "rt": 483, "response": "Beta"}, "35": {"stimulus": 687, "trial": 35, "rt": 740, "response": "Alpha"}, "34": {"stimulus": 1405, "trial": 34, "rt": 1125, "response": "Beta"}, "33": {"stimulus": 437, "trial": 33, "rt": 818, "response": "Alpha"}, "55": {"stimulus": 1374, "trial": 55, "rt": 840, "response": "Beta"}, "74": {"stimulus": 2218, "trial": 74, "rt": 1084, "response": "Beta"}, "32": {"stimulus": 593, "trial": 32, "rt": 741, "response": "Alpha"}, "57": {"stimulus": 1155, "trial": 57, "rt": 552, "response": "Beta"}, "50": {"stimulus": 843, "trial": 50, "rt": 981, "response": "Alpha"}}, "experiment": {"Paradigm": "TACL", "Stimuli": "Size-Color Squares", "Experiment": "Generating-Multiple-Categories"}, "submit": {"timeTotal": 419785, "age": "31", "comments": "I still wasn't sure exactly which ones were Beta! ", "sex": "female"}}