{"info": {"finish": 1548122086604, "participant": 256, "exposed": true, "lab": false, "start": 1548121470328, "counterbalance": 3, "gentype": 0, "condition": "Row", "browser": {"platform": "Win32", "userAgent": "Mozilla/5.0 (Windows NT 10.0; Win64; x64) AppleWebKit/537.36 (KHTML, like Gecko) Chrome/71.0.3578.98 Safari/537.36"}}, "observation": {"11": {"stimulus": 612, "trial": 11, "rt": 2586}, "10": {"stimulus": 421, "trial": 10, "rt": 2186}, "1": {"stimulus": 493, "trial": 1, "rt": 2587}, "0": {"stimulus": 582, "trial": 0, "rt": 5019}, "3": {"stimulus": 612, "trial": 3, "rt": 1868}, "2": {"stimulus": 421, "trial": 2, "rt": 2738}, "5": {"stimulus": 582, "trial": 5, "rt": 1760}, "4": {"stimulus": 421, "trial": 4, "rt": 3089}, "7": {"stimulus": 612, "trial": 7, "rt": 2051}, "6": {"stimulus": 493, "trial": 6, "rt": 2160}, "9": {"stimulus": 582, "trial": 9, "rt": 2488}, "8": {"stimulus": 493, "trial": 8, "rt": 2302}}, "generation": {"1": {"category": "Not-Alpha", "trial": 1, "stimulus": 1499, "rt": 10373}, "0": {"category": "Not-Alpha", "trial": 0, "stimulus": 1352, "rt": 42333}, "3": {"category": "Not-Alpha", "trial": 3, "stimulus": 2474, "rt": 15563}, "2": {"category": "Not-Alpha", "trial": 2, "stimulus": 2450, "rt": 8227}, "5": {"category": "Not-Alpha", "trial": 5, "stimulus": 1326, "rt": 7152}, "4": {"category": "Not-Alpha", "trial": 4, "stimulus": 2492, "rt": 8083}, "7": {"category": "Not-Alpha", "trial": 7, "stimulus": 1087, "rt": 23894}, "6": {"category": "Not-Alpha", "trial": 6, "stimulus": 2499, "rt": 7853}}, "generalization": {"56": {"stimulus": 1968, "trial": 56, "rt": 908, "response": "Beta"}, "77": {"stimulus": 2249, "trial": 77, "rt": 722, "response": "Beta"}, "54": {"stimulus": 499, "trial": 54, "rt": 1835, "response": "Alpha"}, "42": {"stimulus": 343, "trial": 42, "rt": 1265, "response": "Alpha"}, "48": {"stimulus": 2093, "trial": 48, "rt": 833, "response": "Beta"}, "43": {"stimulus": 62, "trial": 43, "rt": 820, "response": "Alpha"}, "60": {"stimulus": 2062, "trial": 60, "rt": 1395, "response": "Beta"}, "61": {"stimulus": 0, "trial": 61, "rt": 4971, "response": "Alpha"}, "62": {"stimulus": 1593, "trial": 62, "rt": 1193, "response": "Beta"}, "63": {"stimulus": 1405, "trial": 63, "rt": 942, "response": "Beta"}, "64": {"stimulus": 2437, "trial": 64, "rt": 844, "response": "Beta"}, "49": {"stimulus": 937, "trial": 49, "rt": 916, "response": "Beta"}, "66": {"stimulus": 1624, "trial": 66, "rt": 831, "response": "Beta"}, "67": {"stimulus": 562, "trial": 67, "rt": 1238, "response": "Beta"}, "68": {"stimulus": 1905, "trial": 68, "rt": 711, "response": "Beta"}, "69": {"stimulus": 1124, "trial": 69, "rt": 856, "response": "Beta"}, "80": {"stimulus": 2280, "trial": 80, "rt": 638, "response": "Beta"}, "52": {"stimulus": 1780, "trial": 52, "rt": 628, "response": "Beta"}, "53": {"stimulus": 2405, "trial": 53, "rt": 689, "response": "Beta"}, "24": {"stimulus": 2187, "trial": 24, "rt": 872, "response": "Beta"}, "25": {"stimulus": 1249, "trial": 25, "rt": 4353, "response": "Beta"}, "26": {"stimulus": 780, "trial": 26, "rt": 905, "response": "Beta"}, "27": {"stimulus": 2218, "trial": 27, "rt": 738, "response": "Beta"}, "20": {"stimulus": 1093, "trial": 20, "rt": 1242, "response": "Beta"}, "21": {"stimulus": 312, "trial": 21, "rt": 1194, "response": "Alpha"}, "22": {"stimulus": 1312, "trial": 22, "rt": 848, "response": "Beta"}, "23": {"stimulus": 1530, "trial": 23, "rt": 757, "response": "Beta"}, "46": {"stimulus": 1999, "trial": 46, "rt": 783, "response": "Beta"}, "47": {"stimulus": 1218, "trial": 47, "rt": 880, "response": "Beta"}, "44": {"stimulus": 1437, "trial": 44, "rt": 1713, "response": "Beta"}, "45": {"stimulus": 1812, "trial": 45, "rt": 2872, "response": "Beta"}, "28": {"stimulus": 1749, "trial": 28, "rt": 698, "response": "Beta"}, "29": {"stimulus": 1155, "trial": 29, "rt": 785, "response": "Beta"}, "40": {"stimulus": 655, "trial": 40, "rt": 3175, "response": "Beta"}, "41": {"stimulus": 2374, "trial": 41, "rt": 722, "response": "Beta"}, "1": {"stimulus": 530, "trial": 1, "rt": 2450, "response": "Beta"}, "0": {"stimulus": 155, "trial": 0, "rt": 2557, "response": "Alpha"}, "3": {"stimulus": 405, "trial": 3, "rt": 4017, "response": "Alpha"}, "2": {"stimulus": 280, "trial": 2, "rt": 3257, "response": "Alpha"}, "5": {"stimulus": 905, "trial": 5, "rt": 892, "response": "Beta"}, "4": {"stimulus": 968, "trial": 4, "rt": 1124, "response": "Beta"}, "7": {"stimulus": 1937, "trial": 7, "rt": 978, "response": "Beta"}, "6": {"stimulus": 593, "trial": 6, "rt": 5923, "response": "Beta"}, "9": {"stimulus": 187, "trial": 9, "rt": 1642, "response": "Alpha"}, "8": {"stimulus": 1874, "trial": 8, "rt": 674, "response": "Beta"}, "78": {"stimulus": 1280, "trial": 78, "rt": 690, "response": "Beta"}, "51": {"stimulus": 1187, "trial": 51, "rt": 846, "response": "Beta"}, "39": {"stimulus": 1343, "trial": 39, "rt": 14165, "response": "Beta"}, "65": {"stimulus": 624, "trial": 65, "rt": 1474, "response": "Beta"}, "76": {"stimulus": 1843, "trial": 76, "rt": 4307, "response": "Beta"}, "75": {"stimulus": 1499, "trial": 75, "rt": 906, "response": "Beta"}, "38": {"stimulus": 2312, "trial": 38, "rt": 627, "response": "Beta"}, "73": {"stimulus": 124, "trial": 73, "rt": 1592, "response": "Alpha"}, "72": {"stimulus": 2155, "trial": 72, "rt": 723, "response": "Beta"}, "71": {"stimulus": 1062, "trial": 71, "rt": 806, "response": "Beta"}, "70": {"stimulus": 1468, "trial": 70, "rt": 737, "response": "Beta"}, "59": {"stimulus": 93, "trial": 59, "rt": 967, "response": "Alpha"}, "79": {"stimulus": 1718, "trial": 79, "rt": 615, "response": "Beta"}, "58": {"stimulus": 218, "trial": 58, "rt": 1386, "response": "Alpha"}, "11": {"stimulus": 1562, "trial": 11, "rt": 1351, "response": "Beta"}, "10": {"stimulus": 30, "trial": 10, "rt": 10376, "response": "Alpha"}, "13": {"stimulus": 374, "trial": 13, "rt": 4272, "response": "Beta"}, "12": {"stimulus": 999, "trial": 12, "rt": 770, "response": "Beta"}, "15": {"stimulus": 2124, "trial": 15, "rt": 645, "response": "Beta"}, "14": {"stimulus": 1687, "trial": 14, "rt": 1920, "response": "Beta"}, "17": {"stimulus": 437, "trial": 17, "rt": 6466, "response": "Beta"}, "16": {"stimulus": 687, "trial": 16, "rt": 1108, "response": "Beta"}, "19": {"stimulus": 468, "trial": 19, "rt": 24322, "response": "Alpha"}, "18": {"stimulus": 1374, "trial": 18, "rt": 1086, "response": "Beta"}, "31": {"stimulus": 2030, "trial": 31, "rt": 693, "response": "Beta"}, "30": {"stimulus": 812, "trial": 30, "rt": 7143, "response": "Beta"}, "37": {"stimulus": 2343, "trial": 37, "rt": 830, "response": "Beta"}, "36": {"stimulus": 749, "trial": 36, "rt": 24328, "response": "Beta"}, "35": {"stimulus": 1655, "trial": 35, "rt": 1078, "response": "Beta"}, "34": {"stimulus": 249, "trial": 34, "rt": 1330, "response": "Alpha"}, "33": {"stimulus": 2499, "trial": 33, "rt": 2351, "response": "Beta"}, "55": {"stimulus": 1030, "trial": 55, "rt": 742, "response": "Beta"}, "74": {"stimulus": 718, "trial": 74, "rt": 1459, "response": "Beta"}, "32": {"stimulus": 843, "trial": 32, "rt": 2256, "response": "Beta"}, "57": {"stimulus": 874, "trial": 57, "rt": 3593, "response": "Beta"}, "50": {"stimulus": 2468, "trial": 50, "rt": 723, "response": "Beta"}}, "experiment": {"Paradigm": "TACL", "Stimuli": "Size-Color Squares", "Experiment": "Generating-Multiple-Categories"}, "submit": {"timeTotal": 616817, "age": "49", "comments": "Interesting and fun survey. Thank you and Good Luck with your studies.", "sex": "female"}}