{"info": {"finish": 1548122174902, "participant": 258, "exposed": true, "lab": false, "start": 1548121791312, "counterbalance": 3, "gentype": 2, "condition": "XOR", "browser": {"platform": "Win32", "userAgent": "Mozilla/5.0 (Windows NT 10.0; Win64; x64) AppleWebKit/537.36 (KHTML, like Gecko) Chrome/71.0.3578.98 Safari/537.36"}}, "observation": {"11": {"stimulus": 818, "trial": 11, "rt": 1533}, "10": {"stimulus": 1479, "trial": 10, "rt": 1992}, "1": {"stimulus": 1479, "trial": 1, "rt": 3036}, "0": {"stimulus": 818, "trial": 0, "rt": 3248}, "3": {"stimulus": 403, "trial": 3, "rt": 1904}, "2": {"stimulus": 1890, "trial": 2, "rt": 9486}, "5": {"stimulus": 818, "trial": 5, "rt": 2367}, "4": {"stimulus": 1479, "trial": 4, "rt": 2360}, "7": {"stimulus": 1890, "trial": 7, "rt": 1881}, "6": {"stimulus": 403, "trial": 6, "rt": 1660}, "9": {"stimulus": 1890, "trial": 9, "rt": 1581}, "8": {"stimulus": 403, "trial": 8, "rt": 1869}}, "generation": {"1": {"category": "Beta", "trial": 1, "stimulus": 2392, "rt": 5775}, "0": {"category": "Beta", "trial": 0, "stimulus": 2336, "rt": 15023}, "3": {"category": "Beta", "trial": 3, "stimulus": 2339, "rt": 5118}, "2": {"category": "Beta", "trial": 2, "stimulus": 2390, "rt": 4805}, "5": {"category": "Gamma", "trial": 5, "stimulus": 5, "rt": 7408}, "4": {"category": "Gamma", "trial": 4, "stimulus": 0, "rt": 6770}, "7": {"category": "Gamma", "trial": 7, "stimulus": 257, "rt": 3291}, "6": {"category": "Gamma", "trial": 6, "stimulus": 100, "rt": 4195}}, "generalization": {"56": {"stimulus": 2499, "trial": 56, "rt": 1139, "response": "Beta"}, "77": {"stimulus": 0, "trial": 77, "rt": 687, "response": "Gamma"}, "54": {"stimulus": 1155, "trial": 54, "rt": 1067, "response": "Alpha"}, "42": {"stimulus": 343, "trial": 42, "rt": 2230, "response": "Gamma"}, "48": {"stimulus": 1687, "trial": 48, "rt": 1637, "response": "Alpha"}, "43": {"stimulus": 1062, "trial": 43, "rt": 1522, "response": "Alpha"}, "60": {"stimulus": 1749, "trial": 60, "rt": 1722, "response": "Alpha"}, "61": {"stimulus": 187, "trial": 61, "rt": 1553, "response": "Gamma"}, "62": {"stimulus": 1999, "trial": 62, "rt": 1172, "response": "Beta"}, "63": {"stimulus": 312, "trial": 63, "rt": 1830, "response": "Gamma"}, "64": {"stimulus": 1593, "trial": 64, "rt": 1571, "response": "Alpha"}, "49": {"stimulus": 1937, "trial": 49, "rt": 1532, "response": "Beta"}, "66": {"stimulus": 2405, "trial": 66, "rt": 1724, "response": "Beta"}, "67": {"stimulus": 1280, "trial": 67, "rt": 1249, "response": "Alpha"}, "68": {"stimulus": 1562, "trial": 68, "rt": 1241, "response": "Alpha"}, "69": {"stimulus": 1812, "trial": 69, "rt": 1272, "response": "Alpha"}, "80": {"stimulus": 687, "trial": 80, "rt": 1643, "response": "Gamma"}, "52": {"stimulus": 1499, "trial": 52, "rt": 2023, "response": "Alpha"}, "53": {"stimulus": 1780, "trial": 53, "rt": 825, "response": "Alpha"}, "24": {"stimulus": 499, "trial": 24, "rt": 1427, "response": "Alpha"}, "25": {"stimulus": 30, "trial": 25, "rt": 1573, "response": "Gamma"}, "26": {"stimulus": 249, "trial": 26, "rt": 970, "response": "Gamma"}, "27": {"stimulus": 437, "trial": 27, "rt": 1256, "response": "Alpha"}, "20": {"stimulus": 937, "trial": 20, "rt": 1659, "response": "Alpha"}, "21": {"stimulus": 593, "trial": 21, "rt": 1232, "response": "Gamma"}, "22": {"stimulus": 749, "trial": 22, "rt": 2745, "response": "Alpha"}, "23": {"stimulus": 2218, "trial": 23, "rt": 1603, "response": "Beta"}, "46": {"stimulus": 1187, "trial": 46, "rt": 1603, "response": "Alpha"}, "47": {"stimulus": 780, "trial": 47, "rt": 1451, "response": "Alpha"}, "44": {"stimulus": 2249, "trial": 44, "rt": 1629, "response": "Beta"}, "45": {"stimulus": 2374, "trial": 45, "rt": 1428, "response": "Beta"}, "28": {"stimulus": 2062, "trial": 28, "rt": 5882, "response": "Beta"}, "29": {"stimulus": 1249, "trial": 29, "rt": 1324, "response": "Alpha"}, "40": {"stimulus": 62, "trial": 40, "rt": 1462, "response": "Gamma"}, "41": {"stimulus": 843, "trial": 41, "rt": 1571, "response": "Alpha"}, "1": {"stimulus": 1905, "trial": 1, "rt": 4554, "response": "Beta"}, "0": {"stimulus": 2155, "trial": 0, "rt": 3618, "response": "Gamma"}, "3": {"stimulus": 1530, "trial": 3, "rt": 768, "response": "Alpha"}, "2": {"stimulus": 1624, "trial": 2, "rt": 1265, "response": "Alpha"}, "5": {"stimulus": 562, "trial": 5, "rt": 905, "response": "Gamma"}, "4": {"stimulus": 905, "trial": 4, "rt": 3102, "response": "Gamma"}, "7": {"stimulus": 374, "trial": 7, "rt": 1759, "response": "Gamma"}, "6": {"stimulus": 1030, "trial": 6, "rt": 2108, "response": "Alpha"}, "9": {"stimulus": 124, "trial": 9, "rt": 2157, "response": "Gamma"}, "8": {"stimulus": 218, "trial": 8, "rt": 1564, "response": "Gamma"}, "78": {"stimulus": 1437, "trial": 78, "rt": 1475, "response": "Alpha"}, "51": {"stimulus": 2312, "trial": 51, "rt": 969, "response": "Beta"}, "39": {"stimulus": 2280, "trial": 39, "rt": 1634, "response": "Beta"}, "65": {"stimulus": 812, "trial": 65, "rt": 2682, "response": "Alpha"}, "76": {"stimulus": 155, "trial": 76, "rt": 725, "response": "Gamma"}, "75": {"stimulus": 405, "trial": 75, "rt": 1578, "response": "Gamma"}, "38": {"stimulus": 874, "trial": 38, "rt": 1115, "response": "Alpha"}, "73": {"stimulus": 1312, "trial": 73, "rt": 3235, "response": "Alpha"}, "72": {"stimulus": 1124, "trial": 72, "rt": 1700, "response": "Alpha"}, "71": {"stimulus": 2437, "trial": 71, "rt": 1456, "response": "Beta"}, "70": {"stimulus": 1093, "trial": 70, "rt": 3258, "response": "Gamma"}, "59": {"stimulus": 1968, "trial": 59, "rt": 1211, "response": "Beta"}, "79": {"stimulus": 1343, "trial": 79, "rt": 1732, "response": "Alpha"}, "58": {"stimulus": 2124, "trial": 58, "rt": 1332, "response": "Beta"}, "11": {"stimulus": 2187, "trial": 11, "rt": 1306, "response": "Beta"}, "10": {"stimulus": 468, "trial": 10, "rt": 953, "response": "Gamma"}, "13": {"stimulus": 530, "trial": 13, "rt": 1177, "response": "Alpha"}, "12": {"stimulus": 93, "trial": 12, "rt": 1983, "response": "Gamma"}, "15": {"stimulus": 2343, "trial": 15, "rt": 1235, "response": "Beta"}, "14": {"stimulus": 2030, "trial": 14, "rt": 2117, "response": "Beta"}, "17": {"stimulus": 624, "trial": 17, "rt": 1507, "response": "Gamma"}, "16": {"stimulus": 1843, "trial": 16, "rt": 1683, "response": "Beta"}, "19": {"stimulus": 2093, "trial": 19, "rt": 1315, "response": "Beta"}, "18": {"stimulus": 655, "trial": 18, "rt": 1066, "response": "Gamma"}, "31": {"stimulus": 1218, "trial": 31, "rt": 930, "response": "Alpha"}, "30": {"stimulus": 1468, "trial": 30, "rt": 1958, "response": "Alpha"}, "37": {"stimulus": 1405, "trial": 37, "rt": 1081, "response": "Alpha"}, "36": {"stimulus": 718, "trial": 36, "rt": 2261, "response": "Alpha"}, "35": {"stimulus": 999, "trial": 35, "rt": 1202, "response": "Alpha"}, "34": {"stimulus": 1874, "trial": 34, "rt": 808, "response": "Beta"}, "33": {"stimulus": 280, "trial": 33, "rt": 1334, "response": "Gamma"}, "55": {"stimulus": 1655, "trial": 55, "rt": 742, "response": "Alpha"}, "74": {"stimulus": 968, "trial": 74, "rt": 6950, "response": "Alpha"}, "32": {"stimulus": 1374, "trial": 32, "rt": 857, "response": "Alpha"}, "57": {"stimulus": 2468, "trial": 57, "rt": 785, "response": "Beta"}, "50": {"stimulus": 1718, "trial": 50, "rt": 1747, "response": "Beta"}}, "experiment": {"Paradigm": "TACL", "Stimuli": "Size-Color Squares", "Experiment": "Generating-Multiple-Categories"}, "submit": {"timeTotal": 384017, "age": "28", "comments": "thanks for the survey", "sex": "female"}}