{"info": {"finish": 1548123156123, "participant": 261, "exposed": true, "lab": false, "start": 1548122477039, "counterbalance": 4, "gentype": 2, "condition": "Cluster", "browser": {"platform": "Win32", "userAgent": "Mozilla/5.0 (Windows NT 10.0) AppleWebKit/537.36 (KHTML, like Gecko) Chrome/71.0.3578.98 Safari/537.36"}}, "observation": {"11": {"stimulus": 1093, "trial": 11, "rt": 2229}, "10": {"stimulus": 583, "trial": 10, "rt": 2384}, "1": {"stimulus": 392, "trial": 1, "rt": 23947}, "0": {"stimulus": 1083, "trial": 0, "rt": 64750}, "3": {"stimulus": 583, "trial": 3, "rt": 17350}, "2": {"stimulus": 1093, "trial": 2, "rt": 6159}, "5": {"stimulus": 1083, "trial": 5, "rt": 2532}, "4": {"stimulus": 583, "trial": 4, "rt": 7960}, "7": {"stimulus": 1093, "trial": 7, "rt": 2390}, "6": {"stimulus": 392, "trial": 6, "rt": 3291}, "9": {"stimulus": 392, "trial": 9, "rt": 2595}, "8": {"stimulus": 1083, "trial": 8, "rt": 3194}}, "generation": {"1": {"category": "Beta", "trial": 1, "stimulus": 1199, "rt": 13541}, "0": {"category": "Beta", "trial": 0, "stimulus": 99, "rt": 20008}, "3": {"category": "Beta", "trial": 3, "stimulus": 49, "rt": 10312}, "2": {"category": "Beta", "trial": 2, "stimulus": 499, "rt": 7262}, "5": {"category": "Gamma", "trial": 5, "stimulus": 1005, "rt": 11191}, "4": {"category": "Gamma", "trial": 4, "stimulus": 910, "rt": 16166}, "7": {"category": "Gamma", "trial": 7, "stimulus": 809, "rt": 7797}, "6": {"category": "Gamma", "trial": 6, "stimulus": 1109, "rt": 11179}}, "generalization": {"56": {"stimulus": 2030, "trial": 56, "rt": 3001, "response": "Alpha"}, "77": {"stimulus": 2187, "trial": 77, "rt": 1934, "response": "Alpha"}, "54": {"stimulus": 874, "trial": 54, "rt": 10756, "response": "Alpha"}, "42": {"stimulus": 1405, "trial": 42, "rt": 6145, "response": "Alpha"}, "48": {"stimulus": 843, "trial": 48, "rt": 1330, "response": "Beta"}, "43": {"stimulus": 593, "trial": 43, "rt": 1217, "response": "Beta"}, "60": {"stimulus": 1468, "trial": 60, "rt": 1073, "response": "Alpha"}, "61": {"stimulus": 1749, "trial": 61, "rt": 2223, "response": "Beta"}, "62": {"stimulus": 624, "trial": 62, "rt": 2019, "response": "Alpha"}, "63": {"stimulus": 2374, "trial": 63, "rt": 1697, "response": "Alpha"}, "64": {"stimulus": 93, "trial": 64, "rt": 1485, "response": "Beta"}, "49": {"stimulus": 562, "trial": 49, "rt": 1741, "response": "Alpha"}, "66": {"stimulus": 187, "trial": 66, "rt": 1499, "response": "Beta"}, "67": {"stimulus": 999, "trial": 67, "rt": 1402, "response": "Beta"}, "68": {"stimulus": 2280, "trial": 68, "rt": 1496, "response": "Alpha"}, "69": {"stimulus": 1624, "trial": 69, "rt": 1186, "response": "Alpha"}, "80": {"stimulus": 1374, "trial": 80, "rt": 1726, "response": "Alpha"}, "52": {"stimulus": 530, "trial": 52, "rt": 2626, "response": "Beta"}, "53": {"stimulus": 1562, "trial": 53, "rt": 2877, "response": "Alpha"}, "24": {"stimulus": 343, "trial": 24, "rt": 2530, "response": "Beta"}, "25": {"stimulus": 2093, "trial": 25, "rt": 3684, "response": "Beta"}, "26": {"stimulus": 1655, "trial": 26, "rt": 2167, "response": "Gamma"}, "27": {"stimulus": 280, "trial": 27, "rt": 5300, "response": "Alpha"}, "20": {"stimulus": 0, "trial": 20, "rt": 1311, "response": "Gamma"}, "21": {"stimulus": 1718, "trial": 21, "rt": 1244, "response": "Alpha"}, "22": {"stimulus": 1812, "trial": 22, "rt": 3595, "response": "Gamma"}, "23": {"stimulus": 62, "trial": 23, "rt": 38945, "response": "Gamma"}, "46": {"stimulus": 437, "trial": 46, "rt": 1122, "response": "Beta"}, "47": {"stimulus": 2155, "trial": 47, "rt": 2469, "response": "Alpha"}, "44": {"stimulus": 2312, "trial": 44, "rt": 3489, "response": "Alpha"}, "45": {"stimulus": 1905, "trial": 45, "rt": 3986, "response": "Alpha"}, "28": {"stimulus": 30, "trial": 28, "rt": 1225, "response": "Alpha"}, "29": {"stimulus": 1062, "trial": 29, "rt": 4265, "response": "Alpha"}, "40": {"stimulus": 1124, "trial": 40, "rt": 3084, "response": "Alpha"}, "41": {"stimulus": 1843, "trial": 41, "rt": 1264, "response": "Beta"}, "1": {"stimulus": 499, "trial": 1, "rt": 1769, "response": "Beta"}, "0": {"stimulus": 155, "trial": 0, "rt": 2558, "response": "Gamma"}, "3": {"stimulus": 1530, "trial": 3, "rt": 1192, "response": "Alpha"}, "2": {"stimulus": 749, "trial": 2, "rt": 1162, "response": "Beta"}, "5": {"stimulus": 655, "trial": 5, "rt": 1140, "response": "Beta"}, "4": {"stimulus": 1874, "trial": 4, "rt": 1420, "response": "Alpha"}, "7": {"stimulus": 1249, "trial": 7, "rt": 1174, "response": "Beta"}, "6": {"stimulus": 374, "trial": 6, "rt": 5319, "response": "Alpha"}, "9": {"stimulus": 2124, "trial": 9, "rt": 1482, "response": "Alpha"}, "8": {"stimulus": 968, "trial": 8, "rt": 1388, "response": "Alpha"}, "78": {"stimulus": 2249, "trial": 78, "rt": 1939, "response": "Beta"}, "51": {"stimulus": 812, "trial": 51, "rt": 1361, "response": "Alpha"}, "39": {"stimulus": 1999, "trial": 39, "rt": 1481, "response": "Beta"}, "65": {"stimulus": 1687, "trial": 65, "rt": 4269, "response": "Beta"}, "76": {"stimulus": 687, "trial": 76, "rt": 2775, "response": "Beta"}, "75": {"stimulus": 1437, "trial": 75, "rt": 1045, "response": "Beta"}, "38": {"stimulus": 218, "trial": 38, "rt": 3505, "response": "Alpha"}, "73": {"stimulus": 2218, "trial": 73, "rt": 1759, "response": "Gamma"}, "72": {"stimulus": 1312, "trial": 72, "rt": 1480, "response": "Gamma"}, "71": {"stimulus": 2468, "trial": 71, "rt": 5590, "response": "Alpha"}, "70": {"stimulus": 2437, "trial": 70, "rt": 1283, "response": "Alpha"}, "59": {"stimulus": 1593, "trial": 59, "rt": 792, "response": "Beta"}, "79": {"stimulus": 2405, "trial": 79, "rt": 1400, "response": "Gamma"}, "58": {"stimulus": 2343, "trial": 58, "rt": 1172, "response": "Beta"}, "11": {"stimulus": 1343, "trial": 11, "rt": 1483, "response": "Beta"}, "10": {"stimulus": 718, "trial": 10, "rt": 1463, "response": "Alpha"}, "13": {"stimulus": 780, "trial": 13, "rt": 1522, "response": "Alpha"}, "12": {"stimulus": 1030, "trial": 12, "rt": 4284, "response": "Alpha"}, "15": {"stimulus": 405, "trial": 15, "rt": 1354, "response": "Gamma"}, "14": {"stimulus": 1937, "trial": 14, "rt": 3056, "response": "Alpha"}, "17": {"stimulus": 1093, "trial": 17, "rt": 2304, "response": "Beta"}, "16": {"stimulus": 124, "trial": 16, "rt": 1906, "response": "Alpha"}, "19": {"stimulus": 1968, "trial": 19, "rt": 1918, "response": "Alpha"}, "18": {"stimulus": 937, "trial": 18, "rt": 1951, "response": "Beta"}, "31": {"stimulus": 1280, "trial": 31, "rt": 1864, "response": "Beta"}, "30": {"stimulus": 468, "trial": 30, "rt": 1590, "response": "Alpha"}, "37": {"stimulus": 1780, "trial": 37, "rt": 2406, "response": "Beta"}, "36": {"stimulus": 1218, "trial": 36, "rt": 30959, "response": "Alpha"}, "35": {"stimulus": 312, "trial": 35, "rt": 2067, "response": "Alpha"}, "34": {"stimulus": 2062, "trial": 34, "rt": 1953, "response": "Alpha"}, "33": {"stimulus": 2499, "trial": 33, "rt": 926, "response": "Beta"}, "55": {"stimulus": 1187, "trial": 55, "rt": 1180, "response": "Beta"}, "74": {"stimulus": 1499, "trial": 74, "rt": 1461, "response": "Beta"}, "32": {"stimulus": 249, "trial": 32, "rt": 5635, "response": "Beta"}, "57": {"stimulus": 905, "trial": 57, "rt": 1490, "response": "Gamma"}, "50": {"stimulus": 1155, "trial": 50, "rt": 1332, "response": "Alpha"}}, "experiment": {"Paradigm": "TACL", "Stimuli": "Size-Color Squares", "Experiment": "Generating-Multiple-Categories"}, "submit": {"timeTotal": 679450, "age": "47", "comments": "No additional comments", "sex": "female"}}