{"info": {"finish": 1548124701933, "participant": 266, "exposed": true, "lab": false, "start": 1548124355087, "counterbalance": 6, "gentype": 2, "condition": "Row", "browser": {"platform": "MacIntel", "userAgent": "Mozilla/5.0 (Macintosh; Intel Mac OS X 10_14_2) AppleWebKit/537.36 (KHTML, like Gecko) Chrome/71.0.3578.98 Safari/537.36"}}, "observation": {"11": {"stimulus": 612, "trial": 11, "rt": 2634}, "10": {"stimulus": 421, "trial": 10, "rt": 1803}, "1": {"stimulus": 582, "trial": 1, "rt": 3714}, "0": {"stimulus": 493, "trial": 0, "rt": 4340}, "3": {"stimulus": 612, "trial": 3, "rt": 2699}, "2": {"stimulus": 421, "trial": 2, "rt": 3022}, "5": {"stimulus": 493, "trial": 5, "rt": 1964}, "4": {"stimulus": 582, "trial": 4, "rt": 2453}, "7": {"stimulus": 612, "trial": 7, "rt": 2389}, "6": {"stimulus": 421, "trial": 6, "rt": 2330}, "9": {"stimulus": 493, "trial": 9, "rt": 2269}, "8": {"stimulus": 582, "trial": 8, "rt": 1876}}, "generation": {"1": {"category": "Beta", "trial": 1, "stimulus": 2105, "rt": 8081}, "0": {"category": "Beta", "trial": 0, "stimulus": 2400, "rt": 15564}, "3": {"category": "Beta", "trial": 3, "stimulus": 50, "rt": 6170}, "2": {"category": "Beta", "trial": 2, "stimulus": 0, "rt": 4456}, "5": {"category": "Gamma", "trial": 5, "stimulus": 2463, "rt": 6637}, "4": {"category": "Gamma", "trial": 4, "stimulus": 2452, "rt": 7138}, "7": {"category": "Gamma", "trial": 7, "stimulus": 2499, "rt": 3143}, "6": {"category": "Gamma", "trial": 6, "stimulus": 2478, "rt": 4638}}, "generalization": {"56": {"stimulus": 874, "trial": 56, "rt": 799, "response": "Alpha"}, "77": {"stimulus": 999, "trial": 77, "rt": 886, "response": "Alpha"}, "54": {"stimulus": 2343, "trial": 54, "rt": 2065, "response": "Gamma"}, "42": {"stimulus": 2155, "trial": 42, "rt": 1116, "response": "Gamma"}, "48": {"stimulus": 1030, "trial": 48, "rt": 1467, "response": "Alpha"}, "43": {"stimulus": 1812, "trial": 43, "rt": 483, "response": "Gamma"}, "60": {"stimulus": 2187, "trial": 60, "rt": 912, "response": "Gamma"}, "61": {"stimulus": 2062, "trial": 61, "rt": 683, "response": "Gamma"}, "62": {"stimulus": 1187, "trial": 62, "rt": 1250, "response": "Alpha"}, "63": {"stimulus": 374, "trial": 63, "rt": 953, "response": "Alpha"}, "64": {"stimulus": 1093, "trial": 64, "rt": 1143, "response": "Alpha"}, "49": {"stimulus": 62, "trial": 49, "rt": 779, "response": "Beta"}, "66": {"stimulus": 1530, "trial": 66, "rt": 2416, "response": "Alpha"}, "67": {"stimulus": 1062, "trial": 67, "rt": 1181, "response": "Alpha"}, "68": {"stimulus": 624, "trial": 68, "rt": 1247, "response": "Alpha"}, "69": {"stimulus": 2374, "trial": 69, "rt": 1337, "response": "Gamma"}, "80": {"stimulus": 280, "trial": 80, "rt": 2460, "response": "Alpha"}, "52": {"stimulus": 530, "trial": 52, "rt": 1599, "response": "Alpha"}, "53": {"stimulus": 1499, "trial": 53, "rt": 1305, "response": "Alpha"}, "24": {"stimulus": 1874, "trial": 24, "rt": 1648, "response": "Gamma"}, "25": {"stimulus": 1155, "trial": 25, "rt": 1033, "response": "Alpha"}, "26": {"stimulus": 655, "trial": 26, "rt": 643, "response": "Beta"}, "27": {"stimulus": 405, "trial": 27, "rt": 570, "response": "Beta"}, "20": {"stimulus": 1343, "trial": 20, "rt": 938, "response": "Alpha"}, "21": {"stimulus": 1749, "trial": 21, "rt": 987, "response": "Alpha"}, "22": {"stimulus": 1468, "trial": 22, "rt": 3759, "response": "Alpha"}, "23": {"stimulus": 2030, "trial": 23, "rt": 1174, "response": "Gamma"}, "46": {"stimulus": 187, "trial": 46, "rt": 878, "response": "Beta"}, "47": {"stimulus": 2093, "trial": 47, "rt": 896, "response": "Gamma"}, "44": {"stimulus": 2499, "trial": 44, "rt": 519, "response": "Gamma"}, "45": {"stimulus": 562, "trial": 45, "rt": 3554, "response": "Alpha"}, "28": {"stimulus": 780, "trial": 28, "rt": 617, "response": "Beta"}, "29": {"stimulus": 218, "trial": 29, "rt": 543, "response": "Beta"}, "40": {"stimulus": 2249, "trial": 40, "rt": 702, "response": "Gamma"}, "41": {"stimulus": 437, "trial": 41, "rt": 1820, "response": "Beta"}, "1": {"stimulus": 1124, "trial": 1, "rt": 2280, "response": "Alpha"}, "0": {"stimulus": 2124, "trial": 0, "rt": 8893, "response": "Gamma"}, "3": {"stimulus": 2218, "trial": 3, "rt": 1011, "response": "Gamma"}, "2": {"stimulus": 2312, "trial": 2, "rt": 1107, "response": "Gamma"}, "5": {"stimulus": 1405, "trial": 5, "rt": 1396, "response": "Alpha"}, "4": {"stimulus": 249, "trial": 4, "rt": 3062, "response": "Beta"}, "7": {"stimulus": 30, "trial": 7, "rt": 946, "response": "Beta"}, "6": {"stimulus": 1562, "trial": 6, "rt": 1036, "response": "Alpha"}, "9": {"stimulus": 968, "trial": 9, "rt": 828, "response": "Alpha"}, "8": {"stimulus": 937, "trial": 8, "rt": 1247, "response": "Alpha"}, "78": {"stimulus": 1843, "trial": 78, "rt": 1214, "response": "Gamma"}, "51": {"stimulus": 1937, "trial": 51, "rt": 2269, "response": "Gamma"}, "39": {"stimulus": 1655, "trial": 39, "rt": 596, "response": "Beta"}, "65": {"stimulus": 124, "trial": 65, "rt": 1519, "response": "Beta"}, "76": {"stimulus": 1280, "trial": 76, "rt": 631, "response": "Gamma"}, "75": {"stimulus": 1374, "trial": 75, "rt": 2836, "response": "Gamma"}, "38": {"stimulus": 155, "trial": 38, "rt": 1208, "response": "Beta"}, "73": {"stimulus": 1718, "trial": 73, "rt": 652, "response": "Gamma"}, "72": {"stimulus": 1437, "trial": 72, "rt": 1413, "response": "Gamma"}, "71": {"stimulus": 1312, "trial": 71, "rt": 1387, "response": "Gamma"}, "70": {"stimulus": 687, "trial": 70, "rt": 1527, "response": "Alpha"}, "59": {"stimulus": 843, "trial": 59, "rt": 1148, "response": "Alpha"}, "79": {"stimulus": 1999, "trial": 79, "rt": 749, "response": "Gamma"}, "58": {"stimulus": 2405, "trial": 58, "rt": 782, "response": "Gamma"}, "11": {"stimulus": 1624, "trial": 11, "rt": 5537, "response": "Alpha"}, "10": {"stimulus": 2280, "trial": 10, "rt": 1181, "response": "Gamma"}, "13": {"stimulus": 749, "trial": 13, "rt": 627, "response": "Beta"}, "12": {"stimulus": 343, "trial": 12, "rt": 1026, "response": "Beta"}, "15": {"stimulus": 2437, "trial": 15, "rt": 1057, "response": "Gamma"}, "14": {"stimulus": 1905, "trial": 14, "rt": 1182, "response": "Alpha"}, "17": {"stimulus": 312, "trial": 17, "rt": 1118, "response": "Beta"}, "16": {"stimulus": 1687, "trial": 16, "rt": 545, "response": "Gamma"}, "19": {"stimulus": 93, "trial": 19, "rt": 996, "response": "Beta"}, "18": {"stimulus": 2468, "trial": 18, "rt": 885, "response": "Gamma"}, "31": {"stimulus": 1593, "trial": 31, "rt": 1406, "response": "Alpha"}, "30": {"stimulus": 499, "trial": 30, "rt": 700, "response": "Beta"}, "37": {"stimulus": 1780, "trial": 37, "rt": 1764, "response": "Alpha"}, "36": {"stimulus": 0, "trial": 36, "rt": 851, "response": "Beta"}, "35": {"stimulus": 905, "trial": 35, "rt": 1044, "response": "Alpha"}, "34": {"stimulus": 1218, "trial": 34, "rt": 1221, "response": "Alpha"}, "33": {"stimulus": 718, "trial": 33, "rt": 1045, "response": "Alpha"}, "55": {"stimulus": 468, "trial": 55, "rt": 2207, "response": "Alpha"}, "74": {"stimulus": 812, "trial": 74, "rt": 1943, "response": "Alpha"}, "32": {"stimulus": 1249, "trial": 32, "rt": 880, "response": "Alpha"}, "57": {"stimulus": 1968, "trial": 57, "rt": 868, "response": "Gamma"}, "50": {"stimulus": 593, "trial": 50, "rt": 1435, "response": "Alpha"}}, "experiment": {"Paradigm": "TACL", "Stimuli": "Size-Color Squares", "Experiment": "Generating-Multiple-Categories"}, "submit": {"timeTotal": 347179, "age": "30", "comments": "seemed straight forward", "sex": "female"}}