{"info": {"finish": 1548124622883, "participant": 267, "exposed": true, "lab": false, "start": 1548124372297, "counterbalance": 6, "gentype": 2, "condition": "Cluster", "browser": {"platform": "Win32", "userAgent": "Mozilla/5.0 (Windows NT 6.3; Win64; x64) AppleWebKit/537.36 (KHTML, like Gecko) Chrome/71.0.3578.98 Safari/537.36"}}, "observation": {"11": {"stimulus": 583, "trial": 11, "rt": 2015}, "10": {"stimulus": 1083, "trial": 10, "rt": 1549}, "1": {"stimulus": 1093, "trial": 1, "rt": 1538}, "0": {"stimulus": 1083, "trial": 0, "rt": 1953}, "3": {"stimulus": 583, "trial": 3, "rt": 1421}, "2": {"stimulus": 392, "trial": 2, "rt": 2011}, "5": {"stimulus": 1093, "trial": 5, "rt": 1375}, "4": {"stimulus": 583, "trial": 4, "rt": 1391}, "7": {"stimulus": 392, "trial": 7, "rt": 1448}, "6": {"stimulus": 1083, "trial": 6, "rt": 1499}, "9": {"stimulus": 1093, "trial": 9, "rt": 1491}, "8": {"stimulus": 392, "trial": 8, "rt": 1469}}, "generation": {"1": {"category": "Beta", "trial": 1, "stimulus": 806, "rt": 3530}, "0": {"category": "Beta", "trial": 0, "stimulus": 1808, "rt": 4738}, "3": {"category": "Beta", "trial": 3, "stimulus": 2255, "rt": 2803}, "2": {"category": "Beta", "trial": 2, "stimulus": 154, "rt": 3341}, "5": {"category": "Gamma", "trial": 5, "stimulus": 1720, "rt": 2692}, "4": {"category": "Gamma", "trial": 4, "stimulus": 2472, "rt": 10813}, "7": {"category": "Gamma", "trial": 7, "stimulus": 820, "rt": 4730}, "6": {"category": "Gamma", "trial": 6, "stimulus": 1370, "rt": 3043}}, "generalization": {"56": {"stimulus": 874, "trial": 56, "rt": 1376, "response": "Gamma"}, "77": {"stimulus": 499, "trial": 77, "rt": 905, "response": "Alpha"}, "54": {"stimulus": 1499, "trial": 54, "rt": 1069, "response": "Alpha"}, "42": {"stimulus": 1593, "trial": 42, "rt": 1093, "response": "Alpha"}, "48": {"stimulus": 562, "trial": 48, "rt": 546, "response": "Beta"}, "43": {"stimulus": 624, "trial": 43, "rt": 1019, "response": "Gamma"}, "60": {"stimulus": 30, "trial": 60, "rt": 2103, "response": "Gamma"}, "61": {"stimulus": 2030, "trial": 61, "rt": 733, "response": "Gamma"}, "62": {"stimulus": 343, "trial": 62, "rt": 811, "response": "Alpha"}, "63": {"stimulus": 655, "trial": 63, "rt": 779, "response": "Beta"}, "64": {"stimulus": 0, "trial": 64, "rt": 387, "response": "Beta"}, "49": {"stimulus": 1968, "trial": 49, "rt": 629, "response": "Beta"}, "66": {"stimulus": 937, "trial": 66, "rt": 1147, "response": "Alpha"}, "67": {"stimulus": 1249, "trial": 67, "rt": 782, "response": "Alpha"}, "68": {"stimulus": 687, "trial": 68, "rt": 465, "response": "Alpha"}, "69": {"stimulus": 1030, "trial": 69, "rt": 473, "response": "Alpha"}, "80": {"stimulus": 2280, "trial": 80, "rt": 519, "response": "Alpha"}, "52": {"stimulus": 1405, "trial": 52, "rt": 655, "response": "Beta"}, "53": {"stimulus": 1280, "trial": 53, "rt": 1359, "response": "Gamma"}, "24": {"stimulus": 2062, "trial": 24, "rt": 435, "response": "Beta"}, "25": {"stimulus": 1155, "trial": 25, "rt": 402, "response": "Beta"}, "26": {"stimulus": 1937, "trial": 26, "rt": 975, "response": "Alpha"}, "27": {"stimulus": 2187, "trial": 27, "rt": 451, "response": "Alpha"}, "20": {"stimulus": 405, "trial": 20, "rt": 1839, "response": "Beta"}, "21": {"stimulus": 2374, "trial": 21, "rt": 827, "response": "Gamma"}, "22": {"stimulus": 1655, "trial": 22, "rt": 762, "response": "Beta"}, "23": {"stimulus": 62, "trial": 23, "rt": 403, "response": "Beta"}, "46": {"stimulus": 2437, "trial": 46, "rt": 1415, "response": "Alpha"}, "47": {"stimulus": 2093, "trial": 47, "rt": 865, "response": "Alpha"}, "44": {"stimulus": 1187, "trial": 44, "rt": 1291, "response": "Alpha"}, "45": {"stimulus": 905, "trial": 45, "rt": 473, "response": "Beta"}, "28": {"stimulus": 1062, "trial": 28, "rt": 848, "response": "Beta"}, "29": {"stimulus": 468, "trial": 29, "rt": 1080, "response": "Gamma"}, "40": {"stimulus": 1780, "trial": 40, "rt": 695, "response": "Gamma"}, "41": {"stimulus": 2249, "trial": 41, "rt": 929, "response": "Alpha"}, "1": {"stimulus": 1624, "trial": 1, "rt": 982, "response": "Gamma"}, "0": {"stimulus": 2343, "trial": 0, "rt": 2075, "response": "Alpha"}, "3": {"stimulus": 2155, "trial": 3, "rt": 701, "response": "Beta"}, "2": {"stimulus": 2405, "trial": 2, "rt": 740, "response": "Beta"}, "5": {"stimulus": 1530, "trial": 5, "rt": 865, "response": "Gamma"}, "4": {"stimulus": 1218, "trial": 4, "rt": 419, "response": "Beta"}, "7": {"stimulus": 1562, "trial": 7, "rt": 771, "response": "Beta"}, "6": {"stimulus": 1124, "trial": 6, "rt": 1188, "response": "Gamma"}, "9": {"stimulus": 2124, "trial": 9, "rt": 944, "response": "Gamma"}, "8": {"stimulus": 812, "trial": 8, "rt": 496, "response": "Beta"}, "78": {"stimulus": 2499, "trial": 78, "rt": 632, "response": "Alpha"}, "51": {"stimulus": 93, "trial": 51, "rt": 825, "response": "Alpha"}, "39": {"stimulus": 218, "trial": 39, "rt": 872, "response": "Gamma"}, "65": {"stimulus": 1312, "trial": 65, "rt": 484, "response": "Beta"}, "76": {"stimulus": 124, "trial": 76, "rt": 927, "response": "Gamma"}, "75": {"stimulus": 780, "trial": 75, "rt": 1178, "response": "Gamma"}, "38": {"stimulus": 1843, "trial": 38, "rt": 967, "response": "Alpha"}, "73": {"stimulus": 1812, "trial": 73, "rt": 584, "response": "Beta"}, "72": {"stimulus": 1437, "trial": 72, "rt": 849, "response": "Alpha"}, "71": {"stimulus": 1718, "trial": 71, "rt": 852, "response": "Gamma"}, "70": {"stimulus": 249, "trial": 70, "rt": 639, "response": "Alpha"}, "59": {"stimulus": 718, "trial": 59, "rt": 1039, "response": "Gamma"}, "79": {"stimulus": 1687, "trial": 79, "rt": 505, "response": "Alpha"}, "58": {"stimulus": 530, "trial": 58, "rt": 795, "response": "Alpha"}, "11": {"stimulus": 2312, "trial": 11, "rt": 534, "response": "Beta"}, "10": {"stimulus": 2468, "trial": 10, "rt": 852, "response": "Beta"}, "13": {"stimulus": 1093, "trial": 13, "rt": 812, "response": "Alpha"}, "12": {"stimulus": 1374, "trial": 12, "rt": 827, "response": "Gamma"}, "15": {"stimulus": 999, "trial": 15, "rt": 449, "response": "Alpha"}, "14": {"stimulus": 1999, "trial": 14, "rt": 434, "response": "Alpha"}, "17": {"stimulus": 155, "trial": 17, "rt": 835, "response": "Beta"}, "16": {"stimulus": 1343, "trial": 16, "rt": 426, "response": "Alpha"}, "19": {"stimulus": 1749, "trial": 19, "rt": 803, "response": "Alpha"}, "18": {"stimulus": 2218, "trial": 18, "rt": 1452, "response": "Gamma"}, "31": {"stimulus": 749, "trial": 31, "rt": 750, "response": "Alpha"}, "30": {"stimulus": 187, "trial": 30, "rt": 1444, "response": "Gamma"}, "37": {"stimulus": 312, "trial": 37, "rt": 827, "response": "Beta"}, "36": {"stimulus": 374, "trial": 36, "rt": 483, "response": "Gamma"}, "35": {"stimulus": 280, "trial": 35, "rt": 1023, "response": "Gamma"}, "34": {"stimulus": 1468, "trial": 34, "rt": 1212, "response": "Gamma"}, "33": {"stimulus": 843, "trial": 33, "rt": 443, "response": "Alpha"}, "55": {"stimulus": 968, "trial": 55, "rt": 1149, "response": "Gamma"}, "74": {"stimulus": 1874, "trial": 74, "rt": 875, "response": "Gamma"}, "32": {"stimulus": 593, "trial": 32, "rt": 480, "response": "Alpha"}, "57": {"stimulus": 437, "trial": 57, "rt": 1791, "response": "Alpha"}, "50": {"stimulus": 1905, "trial": 50, "rt": 585, "response": "Beta"}}, "experiment": {"Paradigm": "TACL", "Stimuli": "Size-Color Squares", "Experiment": "Generating-Multiple-Categories"}, "submit": {"timeTotal": 250808, "age": "36", "comments": "This gave me a slight headache.  I would have liked to see the explanations of the categories at the end.", "sex": "male"}}