{"info": {"finish": 1548126188166, "participant": 275, "exposed": true, "lab": false, "start": 1548125750887, "counterbalance": 4, "gentype": 1, "condition": "XOR", "browser": {"platform": "Win32", "userAgent": "Mozilla/5.0 (Windows NT 10.0; Win64; x64) AppleWebKit/537.36 (KHTML, like Gecko) Chrome/71.0.3578.98 Safari/537.36"}}, "observation": {"11": {"stimulus": 1479, "trial": 11, "rt": 1248}, "10": {"stimulus": 818, "trial": 10, "rt": 1381}, "1": {"stimulus": 1890, "trial": 1, "rt": 1368}, "0": {"stimulus": 818, "trial": 0, "rt": 2062}, "3": {"stimulus": 1479, "trial": 3, "rt": 1258}, "2": {"stimulus": 403, "trial": 2, "rt": 1335}, "5": {"stimulus": 1890, "trial": 5, "rt": 1203}, "4": {"stimulus": 403, "trial": 4, "rt": 1359}, "7": {"stimulus": 818, "trial": 7, "rt": 1172}, "6": {"stimulus": 1479, "trial": 6, "rt": 1192}, "9": {"stimulus": 403, "trial": 9, "rt": 1273}, "8": {"stimulus": 1890, "trial": 8, "rt": 1224}}, "generation": {"1": {"category": "Beta", "trial": 1, "stimulus": 0, "rt": 40284}, "0": {"category": "Beta", "trial": 0, "stimulus": 49, "rt": 6937}, "3": {"category": "Beta", "trial": 3, "stimulus": 199, "rt": 1984}, "2": {"category": "Beta", "trial": 2, "stimulus": 499, "rt": 3863}, "5": {"category": "Beta", "trial": 5, "stimulus": 26, "rt": 2721}, "4": {"category": "Beta", "trial": 4, "stimulus": 84, "rt": 5699}, "7": {"category": "Beta", "trial": 7, "stimulus": 43, "rt": 3064}, "6": {"category": "Beta", "trial": 6, "stimulus": 13, "rt": 2716}}, "generalization": {"56": {"stimulus": 374, "trial": 56, "rt": 799, "response": "Beta"}, "77": {"stimulus": 1280, "trial": 77, "rt": 771, "response": "Alpha"}, "54": {"stimulus": 2124, "trial": 54, "rt": 873, "response": "Alpha"}, "42": {"stimulus": 1843, "trial": 42, "rt": 894, "response": "Alpha"}, "48": {"stimulus": 2155, "trial": 48, "rt": 426, "response": "Alpha"}, "43": {"stimulus": 2405, "trial": 43, "rt": 677, "response": "Alpha"}, "60": {"stimulus": 1405, "trial": 60, "rt": 513, "response": "Alpha"}, "61": {"stimulus": 1218, "trial": 61, "rt": 864, "response": "Alpha"}, "62": {"stimulus": 2312, "trial": 62, "rt": 447, "response": "Alpha"}, "63": {"stimulus": 1124, "trial": 63, "rt": 907, "response": "Alpha"}, "64": {"stimulus": 593, "trial": 64, "rt": 668, "response": "Beta"}, "49": {"stimulus": 2343, "trial": 49, "rt": 363, "response": "Alpha"}, "66": {"stimulus": 1030, "trial": 66, "rt": 449, "response": "Alpha"}, "67": {"stimulus": 2499, "trial": 67, "rt": 669, "response": "Alpha"}, "68": {"stimulus": 1718, "trial": 68, "rt": 431, "response": "Alpha"}, "69": {"stimulus": 655, "trial": 69, "rt": 918, "response": "Beta"}, "80": {"stimulus": 249, "trial": 80, "rt": 537, "response": "Beta"}, "52": {"stimulus": 499, "trial": 52, "rt": 441, "response": "Alpha"}, "53": {"stimulus": 843, "trial": 53, "rt": 1084, "response": "Beta"}, "24": {"stimulus": 1343, "trial": 24, "rt": 1372, "response": "Alpha"}, "25": {"stimulus": 405, "trial": 25, "rt": 997, "response": "Beta"}, "26": {"stimulus": 93, "trial": 26, "rt": 752, "response": "Beta"}, "27": {"stimulus": 562, "trial": 27, "rt": 724, "response": "Alpha"}, "20": {"stimulus": 0, "trial": 20, "rt": 778, "response": "Beta"}, "21": {"stimulus": 124, "trial": 21, "rt": 481, "response": "Beta"}, "22": {"stimulus": 1249, "trial": 22, "rt": 840, "response": "Alpha"}, "23": {"stimulus": 218, "trial": 23, "rt": 763, "response": "Beta"}, "46": {"stimulus": 1905, "trial": 46, "rt": 473, "response": "Alpha"}, "47": {"stimulus": 1624, "trial": 47, "rt": 394, "response": "Alpha"}, "44": {"stimulus": 62, "trial": 44, "rt": 755, "response": "Beta"}, "45": {"stimulus": 999, "trial": 45, "rt": 988, "response": "Alpha"}, "28": {"stimulus": 1812, "trial": 28, "rt": 377, "response": "Alpha"}, "29": {"stimulus": 1749, "trial": 29, "rt": 583, "response": "Alpha"}, "40": {"stimulus": 312, "trial": 40, "rt": 502, "response": "Alpha"}, "41": {"stimulus": 1155, "trial": 41, "rt": 1029, "response": "Alpha"}, "1": {"stimulus": 1968, "trial": 1, "rt": 697, "response": "Beta"}, "0": {"stimulus": 187, "trial": 0, "rt": 2054, "response": "Alpha"}, "3": {"stimulus": 718, "trial": 3, "rt": 1579, "response": "Alpha"}, "2": {"stimulus": 468, "trial": 2, "rt": 2219, "response": "Beta"}, "5": {"stimulus": 1655, "trial": 5, "rt": 691, "response": "Alpha"}, "4": {"stimulus": 2218, "trial": 4, "rt": 542, "response": "Alpha"}, "7": {"stimulus": 2374, "trial": 7, "rt": 379, "response": "Alpha"}, "6": {"stimulus": 1593, "trial": 6, "rt": 443, "response": "Alpha"}, "9": {"stimulus": 343, "trial": 9, "rt": 795, "response": "Beta"}, "8": {"stimulus": 280, "trial": 8, "rt": 768, "response": "Beta"}, "78": {"stimulus": 1687, "trial": 78, "rt": 676, "response": "Alpha"}, "51": {"stimulus": 2437, "trial": 51, "rt": 668, "response": "Alpha"}, "39": {"stimulus": 2468, "trial": 39, "rt": 763, "response": "Alpha"}, "65": {"stimulus": 1499, "trial": 65, "rt": 762, "response": "Alpha"}, "76": {"stimulus": 30, "trial": 76, "rt": 588, "response": "Beta"}, "75": {"stimulus": 968, "trial": 75, "rt": 566, "response": "Alpha"}, "38": {"stimulus": 155, "trial": 38, "rt": 591, "response": "Beta"}, "73": {"stimulus": 1062, "trial": 73, "rt": 826, "response": "Alpha"}, "72": {"stimulus": 937, "trial": 72, "rt": 1397, "response": "Alpha"}, "71": {"stimulus": 1187, "trial": 71, "rt": 762, "response": "Alpha"}, "70": {"stimulus": 1437, "trial": 70, "rt": 693, "response": "Alpha"}, "59": {"stimulus": 874, "trial": 59, "rt": 778, "response": "Alpha"}, "79": {"stimulus": 749, "trial": 79, "rt": 752, "response": "Beta"}, "58": {"stimulus": 2093, "trial": 58, "rt": 464, "response": "Alpha"}, "11": {"stimulus": 905, "trial": 11, "rt": 449, "response": "Alpha"}, "10": {"stimulus": 1780, "trial": 10, "rt": 509, "response": "Alpha"}, "13": {"stimulus": 1999, "trial": 13, "rt": 456, "response": "Alpha"}, "12": {"stimulus": 1468, "trial": 12, "rt": 480, "response": "Alpha"}, "15": {"stimulus": 624, "trial": 15, "rt": 433, "response": "Alpha"}, "14": {"stimulus": 1937, "trial": 14, "rt": 535, "response": "Alpha"}, "17": {"stimulus": 812, "trial": 17, "rt": 983, "response": "Alpha"}, "16": {"stimulus": 1530, "trial": 16, "rt": 599, "response": "Alpha"}, "19": {"stimulus": 2187, "trial": 19, "rt": 440, "response": "Alpha"}, "18": {"stimulus": 2062, "trial": 18, "rt": 527, "response": "Alpha"}, "31": {"stimulus": 1874, "trial": 31, "rt": 466, "response": "Alpha"}, "30": {"stimulus": 1374, "trial": 30, "rt": 543, "response": "Alpha"}, "37": {"stimulus": 1093, "trial": 37, "rt": 448, "response": "Alpha"}, "36": {"stimulus": 2249, "trial": 36, "rt": 456, "response": "Alpha"}, "35": {"stimulus": 1312, "trial": 35, "rt": 793, "response": "Alpha"}, "34": {"stimulus": 437, "trial": 34, "rt": 427, "response": "Beta"}, "33": {"stimulus": 530, "trial": 33, "rt": 440, "response": "Beta"}, "55": {"stimulus": 2280, "trial": 55, "rt": 645, "response": "Alpha"}, "74": {"stimulus": 1562, "trial": 74, "rt": 419, "response": "Alpha"}, "32": {"stimulus": 687, "trial": 32, "rt": 449, "response": "Alpha"}, "57": {"stimulus": 2030, "trial": 57, "rt": 525, "response": "Alpha"}, "50": {"stimulus": 780, "trial": 50, "rt": 1375, "response": "Alpha"}}, "experiment": {"Paradigm": "TACL", "Stimuli": "Size-Color Squares", "Experiment": "Generating-Multiple-Categories"}, "submit": {"timeTotal": 437536, "age": "25", "comments": "", "sex": "female"}}