{"info": {"finish": 1548127676016, "participant": 276, "exposed": true, "lab": false, "start": 1548125837249, "counterbalance": 6, "gentype": 0, "condition": "XOR", "browser": {"platform": "Win32", "userAgent": "Mozilla/5.0 (Windows NT 6.1; Win64; x64) AppleWebKit/537.36 (KHTML, like Gecko) Chrome/71.0.3578.98 Safari/537.36"}}, "observation": {"11": {"stimulus": 1890, "trial": 11, "rt": 3407}, "10": {"stimulus": 818, "trial": 10, "rt": 2325}, "1": {"stimulus": 1479, "trial": 1, "rt": 3193}, "0": {"stimulus": 403, "trial": 0, "rt": 3153}, "3": {"stimulus": 1890, "trial": 3, "rt": 4806}, "2": {"stimulus": 818, "trial": 2, "rt": 2878}, "5": {"stimulus": 403, "trial": 5, "rt": 2473}, "4": {"stimulus": 1890, "trial": 4, "rt": 2427}, "7": {"stimulus": 818, "trial": 7, "rt": 3179}, "6": {"stimulus": 1479, "trial": 6, "rt": 4087}, "9": {"stimulus": 403, "trial": 9, "rt": 3128}, "8": {"stimulus": 1479, "trial": 8, "rt": 3934}}, "generation": {"1": {"category": "Not-Alpha", "trial": 1, "stimulus": 2450, "rt": 8938}, "0": {"category": "Not-Alpha", "trial": 0, "stimulus": 2499, "rt": 27157}, "3": {"category": "Not-Alpha", "trial": 3, "stimulus": 1372, "rt": 10311}, "2": {"category": "Not-Alpha", "trial": 2, "stimulus": 49, "rt": 10373}, "5": {"category": "Not-Alpha", "trial": 5, "stimulus": 2400, "rt": 12758}, "4": {"category": "Not-Alpha", "trial": 4, "stimulus": 2247, "rt": 16199}, "7": {"category": "Not-Alpha", "trial": 7, "stimulus": 5, "rt": 312129}, "6": {"category": "Not-Alpha", "trial": 6, "stimulus": 2108, "rt": 7284}}, "generalization": {"56": {"stimulus": 437, "trial": 56, "rt": 1914, "response": "Alpha"}, "77": {"stimulus": 593, "trial": 77, "rt": 2907, "response": "Alpha"}, "54": {"stimulus": 1624, "trial": 54, "rt": 1338, "response": "Alpha"}, "42": {"stimulus": 2030, "trial": 42, "rt": 1698, "response": "Alpha"}, "48": {"stimulus": 2155, "trial": 48, "rt": 1720, "response": "Beta"}, "43": {"stimulus": 843, "trial": 43, "rt": 880, "response": "Alpha"}, "60": {"stimulus": 2280, "trial": 60, "rt": 832, "response": "Beta"}, "61": {"stimulus": 1812, "trial": 61, "rt": 1018, "response": "Alpha"}, "62": {"stimulus": 1749, "trial": 62, "rt": 6148, "response": "Alpha"}, "63": {"stimulus": 2468, "trial": 63, "rt": 1838, "response": "Alpha"}, "64": {"stimulus": 1218, "trial": 64, "rt": 988, "response": "Alpha"}, "49": {"stimulus": 1405, "trial": 49, "rt": 1477, "response": "Alpha"}, "66": {"stimulus": 1968, "trial": 66, "rt": 21591, "response": "Beta"}, "67": {"stimulus": 1937, "trial": 67, "rt": 701, "response": "Beta"}, "68": {"stimulus": 218, "trial": 68, "rt": 65678, "response": "Alpha"}, "69": {"stimulus": 1312, "trial": 69, "rt": 643, "response": "Alpha"}, "80": {"stimulus": 2218, "trial": 80, "rt": 38349, "response": "Beta"}, "52": {"stimulus": 1843, "trial": 52, "rt": 1138, "response": "Alpha"}, "53": {"stimulus": 999, "trial": 53, "rt": 1161, "response": "Alpha"}, "24": {"stimulus": 30, "trial": 24, "rt": 846, "response": "Alpha"}, "25": {"stimulus": 2312, "trial": 25, "rt": 1841, "response": "Beta"}, "26": {"stimulus": 624, "trial": 26, "rt": 1235, "response": "Alpha"}, "27": {"stimulus": 1530, "trial": 27, "rt": 922, "response": "Alpha"}, "20": {"stimulus": 937, "trial": 20, "rt": 827, "response": "Alpha"}, "21": {"stimulus": 1718, "trial": 21, "rt": 1542, "response": "Alpha"}, "22": {"stimulus": 655, "trial": 22, "rt": 1306, "response": "Alpha"}, "23": {"stimulus": 1905, "trial": 23, "rt": 1283, "response": "Alpha"}, "46": {"stimulus": 1874, "trial": 46, "rt": 2165, "response": "Alpha"}, "47": {"stimulus": 124, "trial": 47, "rt": 1468, "response": "Alpha"}, "44": {"stimulus": 1280, "trial": 44, "rt": 762, "response": "Alpha"}, "45": {"stimulus": 1155, "trial": 45, "rt": 864, "response": "Alpha"}, "28": {"stimulus": 155, "trial": 28, "rt": 1204, "response": "Alpha"}, "29": {"stimulus": 780, "trial": 29, "rt": 1695, "response": "Alpha"}, "40": {"stimulus": 187, "trial": 40, "rt": 1402, "response": "Beta"}, "41": {"stimulus": 2405, "trial": 41, "rt": 1398, "response": "Beta"}, "1": {"stimulus": 1562, "trial": 1, "rt": 2233, "response": "Alpha"}, "0": {"stimulus": 374, "trial": 0, "rt": 2043, "response": "Alpha"}, "3": {"stimulus": 874, "trial": 3, "rt": 938, "response": "Alpha"}, "2": {"stimulus": 1187, "trial": 2, "rt": 2198, "response": "Alpha"}, "5": {"stimulus": 562, "trial": 5, "rt": 1723, "response": "Alpha"}, "4": {"stimulus": 1593, "trial": 4, "rt": 1001, "response": "Alpha"}, "7": {"stimulus": 1374, "trial": 7, "rt": 1662, "response": "Alpha"}, "6": {"stimulus": 1437, "trial": 6, "rt": 1359, "response": "Beta"}, "9": {"stimulus": 2124, "trial": 9, "rt": 1301, "response": "Beta"}, "8": {"stimulus": 343, "trial": 8, "rt": 1556, "response": "Alpha"}, "78": {"stimulus": 499, "trial": 78, "rt": 668, "response": "Alpha"}, "51": {"stimulus": 1124, "trial": 51, "rt": 1302, "response": "Alpha"}, "39": {"stimulus": 405, "trial": 39, "rt": 2891, "response": "Alpha"}, "65": {"stimulus": 968, "trial": 65, "rt": 1320, "response": "Alpha"}, "76": {"stimulus": 530, "trial": 76, "rt": 635, "response": "Alpha"}, "75": {"stimulus": 249, "trial": 75, "rt": 1085, "response": "Alpha"}, "38": {"stimulus": 812, "trial": 38, "rt": 946, "response": "Alpha"}, "73": {"stimulus": 468, "trial": 73, "rt": 891, "response": "Alpha"}, "72": {"stimulus": 1655, "trial": 72, "rt": 3053, "response": "Alpha"}, "71": {"stimulus": 280, "trial": 71, "rt": 726, "response": "Alpha"}, "70": {"stimulus": 718, "trial": 70, "rt": 606, "response": "Alpha"}, "59": {"stimulus": 2374, "trial": 59, "rt": 1865, "response": "Beta"}, "79": {"stimulus": 93, "trial": 79, "rt": 644, "response": "Alpha"}, "58": {"stimulus": 1687, "trial": 58, "rt": 13967, "response": "Alpha"}, "11": {"stimulus": 2437, "trial": 11, "rt": 1391, "response": "Beta"}, "10": {"stimulus": 0, "trial": 10, "rt": 1331, "response": "Alpha"}, "13": {"stimulus": 749, "trial": 13, "rt": 2555, "response": "Beta"}, "12": {"stimulus": 62, "trial": 12, "rt": 1553, "response": "Alpha"}, "15": {"stimulus": 1499, "trial": 15, "rt": 4306, "response": "Alpha"}, "14": {"stimulus": 1030, "trial": 14, "rt": 1424, "response": "Alpha"}, "17": {"stimulus": 312, "trial": 17, "rt": 936, "response": "Alpha"}, "16": {"stimulus": 1062, "trial": 16, "rt": 3909, "response": "Alpha"}, "19": {"stimulus": 1249, "trial": 19, "rt": 1458, "response": "Beta"}, "18": {"stimulus": 1780, "trial": 18, "rt": 1100, "response": "Beta"}, "31": {"stimulus": 2187, "trial": 31, "rt": 1342, "response": "Beta"}, "30": {"stimulus": 1999, "trial": 30, "rt": 1229, "response": "Beta"}, "37": {"stimulus": 2499, "trial": 37, "rt": 1457, "response": "Beta"}, "36": {"stimulus": 1093, "trial": 36, "rt": 755, "response": "Alpha"}, "35": {"stimulus": 2062, "trial": 35, "rt": 1361, "response": "Alpha"}, "34": {"stimulus": 687, "trial": 34, "rt": 536, "response": "Alpha"}, "33": {"stimulus": 1468, "trial": 33, "rt": 576, "response": "Alpha"}, "55": {"stimulus": 2093, "trial": 55, "rt": 1531, "response": "Beta"}, "74": {"stimulus": 1343, "trial": 74, "rt": 756, "response": "Alpha"}, "32": {"stimulus": 905, "trial": 32, "rt": 1272, "response": "Alpha"}, "57": {"stimulus": 2249, "trial": 57, "rt": 12357, "response": "Beta"}, "50": {"stimulus": 2343, "trial": 50, "rt": 1656, "response": "Beta"}}, "experiment": {"Paradigm": "TACL", "Stimuli": "Size-Color Squares", "Experiment": "Generating-Multiple-Categories"}, "submit": {"timeTotal": 1839013, "age": "39", "comments": "fun", "sex": "female"}}