{"info": {"finish": 1548129597962, "participant": 285, "exposed": true, "lab": false, "start": 1548129192232, "counterbalance": 6, "gentype": 2, "condition": "XOR", "browser": {"platform": "Win32", "userAgent": "Mozilla/5.0 (Windows NT 10.0; Win64; x64) AppleWebKit/537.36 (KHTML, like Gecko) Chrome/71.0.3578.98 Safari/537.36"}}, "observation": {"11": {"stimulus": 818, "trial": 11, "rt": 1465}, "10": {"stimulus": 1479, "trial": 10, "rt": 1456}, "1": {"stimulus": 1479, "trial": 1, "rt": 3503}, "0": {"stimulus": 403, "trial": 0, "rt": 3469}, "3": {"stimulus": 818, "trial": 3, "rt": 2178}, "2": {"stimulus": 1890, "trial": 2, "rt": 2125}, "5": {"stimulus": 1890, "trial": 5, "rt": 1725}, "4": {"stimulus": 1479, "trial": 4, "rt": 1901}, "7": {"stimulus": 818, "trial": 7, "rt": 1578}, "6": {"stimulus": 403, "trial": 6, "rt": 1538}, "9": {"stimulus": 1890, "trial": 9, "rt": 1546}, "8": {"stimulus": 403, "trial": 8, "rt": 1474}}, "generation": {"1": {"category": "Beta", "trial": 1, "stimulus": 49, "rt": 9549}, "0": {"category": "Beta", "trial": 0, "stimulus": 1849, "rt": 35274}, "3": {"category": "Beta", "trial": 3, "stimulus": 1299, "rt": 3578}, "2": {"category": "Beta", "trial": 2, "stimulus": 2499, "rt": 4660}, "5": {"category": "Gamma", "trial": 5, "stimulus": 2450, "rt": 5102}, "4": {"category": "Gamma", "trial": 4, "stimulus": 800, "rt": 13853}, "7": {"category": "Gamma", "trial": 7, "stimulus": 2000, "rt": 5581}, "6": {"category": "Gamma", "trial": 6, "stimulus": 1350, "rt": 8871}}, "generalization": {"56": {"stimulus": 1437, "trial": 56, "rt": 1046, "response": "Alpha"}, "77": {"stimulus": 937, "trial": 77, "rt": 568, "response": "Alpha"}, "54": {"stimulus": 1280, "trial": 54, "rt": 1021, "response": "Alpha"}, "42": {"stimulus": 1655, "trial": 42, "rt": 1257, "response": "Beta"}, "48": {"stimulus": 405, "trial": 48, "rt": 1471, "response": "Gamma"}, "43": {"stimulus": 2312, "trial": 43, "rt": 705, "response": "Beta"}, "60": {"stimulus": 93, "trial": 60, "rt": 746, "response": "Alpha"}, "61": {"stimulus": 1155, "trial": 61, "rt": 1244, "response": "Alpha"}, "62": {"stimulus": 1374, "trial": 62, "rt": 500, "response": "Alpha"}, "63": {"stimulus": 2468, "trial": 63, "rt": 865, "response": "Beta"}, "64": {"stimulus": 1343, "trial": 64, "rt": 830, "response": "Alpha"}, "49": {"stimulus": 1062, "trial": 49, "rt": 752, "response": "Alpha"}, "66": {"stimulus": 1624, "trial": 66, "rt": 445, "response": "Alpha"}, "67": {"stimulus": 1218, "trial": 67, "rt": 480, "response": "Alpha"}, "68": {"stimulus": 1593, "trial": 68, "rt": 458, "response": "Alpha"}, "69": {"stimulus": 0, "trial": 69, "rt": 1191, "response": "Gamma"}, "80": {"stimulus": 1843, "trial": 80, "rt": 576, "response": "Alpha"}, "52": {"stimulus": 1874, "trial": 52, "rt": 728, "response": "Beta"}, "53": {"stimulus": 593, "trial": 53, "rt": 1234, "response": "Alpha"}, "24": {"stimulus": 1749, "trial": 24, "rt": 1649, "response": "Alpha"}, "25": {"stimulus": 2437, "trial": 25, "rt": 1158, "response": "Beta"}, "26": {"stimulus": 1999, "trial": 26, "rt": 4570, "response": "Alpha"}, "27": {"stimulus": 1812, "trial": 27, "rt": 1579, "response": "Alpha"}, "20": {"stimulus": 2405, "trial": 20, "rt": 3930, "response": "Beta"}, "21": {"stimulus": 1687, "trial": 21, "rt": 910, "response": "Alpha"}, "22": {"stimulus": 2218, "trial": 22, "rt": 3334, "response": "Beta"}, "23": {"stimulus": 874, "trial": 23, "rt": 969, "response": "Alpha"}, "46": {"stimulus": 780, "trial": 46, "rt": 2056, "response": "Alpha"}, "47": {"stimulus": 1530, "trial": 47, "rt": 714, "response": "Alpha"}, "44": {"stimulus": 499, "trial": 44, "rt": 1287, "response": "Gamma"}, "45": {"stimulus": 2124, "trial": 45, "rt": 2602, "response": "Beta"}, "28": {"stimulus": 437, "trial": 28, "rt": 1120, "response": "Gamma"}, "29": {"stimulus": 718, "trial": 29, "rt": 4403, "response": "Gamma"}, "40": {"stimulus": 124, "trial": 40, "rt": 1215, "response": "Gamma"}, "41": {"stimulus": 2155, "trial": 41, "rt": 4422, "response": "Beta"}, "1": {"stimulus": 312, "trial": 1, "rt": 1601, "response": "Alpha"}, "0": {"stimulus": 343, "trial": 0, "rt": 5467, "response": "Alpha"}, "3": {"stimulus": 1780, "trial": 3, "rt": 6188, "response": "Beta"}, "2": {"stimulus": 30, "trial": 2, "rt": 1107, "response": "Alpha"}, "5": {"stimulus": 468, "trial": 5, "rt": 2128, "response": "Alpha"}, "4": {"stimulus": 2499, "trial": 4, "rt": 2893, "response": "Gamma"}, "7": {"stimulus": 749, "trial": 7, "rt": 1529, "response": "Alpha"}, "6": {"stimulus": 2187, "trial": 6, "rt": 3661, "response": "Beta"}, "9": {"stimulus": 843, "trial": 9, "rt": 2628, "response": "Alpha"}, "8": {"stimulus": 655, "trial": 8, "rt": 860, "response": "Alpha"}, "78": {"stimulus": 1312, "trial": 78, "rt": 632, "response": "Alpha"}, "51": {"stimulus": 1937, "trial": 51, "rt": 787, "response": "Beta"}, "39": {"stimulus": 905, "trial": 39, "rt": 1226, "response": "Beta"}, "65": {"stimulus": 1562, "trial": 65, "rt": 500, "response": "Alpha"}, "76": {"stimulus": 1093, "trial": 76, "rt": 425, "response": "Alpha"}, "75": {"stimulus": 624, "trial": 75, "rt": 418, "response": "Alpha"}, "38": {"stimulus": 249, "trial": 38, "rt": 1173, "response": "Gamma"}, "73": {"stimulus": 2343, "trial": 73, "rt": 949, "response": "Beta"}, "72": {"stimulus": 155, "trial": 72, "rt": 606, "response": "Alpha"}, "71": {"stimulus": 280, "trial": 71, "rt": 1710, "response": "Alpha"}, "70": {"stimulus": 968, "trial": 70, "rt": 999, "response": "Alpha"}, "59": {"stimulus": 530, "trial": 59, "rt": 2300, "response": "Alpha"}, "79": {"stimulus": 2030, "trial": 79, "rt": 713, "response": "Alpha"}, "58": {"stimulus": 62, "trial": 58, "rt": 1074, "response": "Gamma"}, "11": {"stimulus": 1124, "trial": 11, "rt": 4742, "response": "Alpha"}, "10": {"stimulus": 218, "trial": 10, "rt": 1103, "response": "Alpha"}, "13": {"stimulus": 2374, "trial": 13, "rt": 2379, "response": "Beta"}, "12": {"stimulus": 1468, "trial": 12, "rt": 595, "response": "Alpha"}, "15": {"stimulus": 687, "trial": 15, "rt": 2056, "response": "Gamma"}, "14": {"stimulus": 1187, "trial": 14, "rt": 3214, "response": "Alpha"}, "17": {"stimulus": 1968, "trial": 17, "rt": 923, "response": "Beta"}, "16": {"stimulus": 1030, "trial": 16, "rt": 1977, "response": "Alpha"}, "19": {"stimulus": 187, "trial": 19, "rt": 1044, "response": "Gamma"}, "18": {"stimulus": 1499, "trial": 18, "rt": 921, "response": "Alpha"}, "31": {"stimulus": 2062, "trial": 31, "rt": 3785, "response": "Alpha"}, "30": {"stimulus": 562, "trial": 30, "rt": 952, "response": "Gamma"}, "37": {"stimulus": 1405, "trial": 37, "rt": 1872, "response": "Alpha"}, "36": {"stimulus": 2280, "trial": 36, "rt": 1398, "response": "Beta"}, "35": {"stimulus": 1718, "trial": 35, "rt": 958, "response": "Alpha"}, "34": {"stimulus": 812, "trial": 34, "rt": 1622, "response": "Alpha"}, "33": {"stimulus": 1249, "trial": 33, "rt": 1519, "response": "Alpha"}, "55": {"stimulus": 2249, "trial": 55, "rt": 897, "response": "Beta"}, "74": {"stimulus": 999, "trial": 74, "rt": 805, "response": "Alpha"}, "32": {"stimulus": 2093, "trial": 32, "rt": 992, "response": "Alpha"}, "57": {"stimulus": 1905, "trial": 57, "rt": 1334, "response": "Alpha"}, "50": {"stimulus": 374, "trial": 50, "rt": 1501, "response": "Gamma"}}, "experiment": {"Paradigm": "TACL", "Stimuli": "Size-Color Squares", "Experiment": "Generating-Multiple-Categories"}, "submit": {"timeTotal": 406004, "age": "31", "comments": "It made me nervous that I didn't know how to determine which were Beta and Gamma. I didn't want to do it wrong.", "sex": "Female"}}