{"info": {"finish": 1548134623140, "participant": 288, "exposed": true, "lab": false, "start": 1548133974127, "counterbalance": 5, "gentype": 2, "condition": "XOR", "browser": {"platform": "Win32", "userAgent": "Mozilla/5.0 (Windows NT 10.0; Win64; x64; rv:64.0) Gecko/20100101 Firefox/64.0"}}, "observation": {"11": {"stimulus": 1890, "trial": 11, "rt": 1495}, "10": {"stimulus": 403, "trial": 10, "rt": 1414}, "1": {"stimulus": 818, "trial": 1, "rt": 2061}, "0": {"stimulus": 403, "trial": 0, "rt": 2234}, "3": {"stimulus": 1479, "trial": 3, "rt": 1517}, "2": {"stimulus": 1890, "trial": 2, "rt": 1582}, "5": {"stimulus": 1890, "trial": 5, "rt": 1481}, "4": {"stimulus": 403, "trial": 4, "rt": 1502}, "7": {"stimulus": 818, "trial": 7, "rt": 1464}, "6": {"stimulus": 1479, "trial": 6, "rt": 1454}, "9": {"stimulus": 818, "trial": 9, "rt": 1473}, "8": {"stimulus": 1479, "trial": 8, "rt": 1762}}, "generation": {"1": {"category": "Beta", "trial": 1, "stimulus": 2499, "rt": 5643}, "0": {"category": "Beta", "trial": 0, "stimulus": 49, "rt": 15821}, "3": {"category": "Beta", "trial": 3, "stimulus": 549, "rt": 5180}, "2": {"category": "Beta", "trial": 2, "stimulus": 1349, "rt": 8035}, "5": {"category": "Gamma", "trial": 5, "stimulus": 0, "rt": 12800}, "4": {"category": "Gamma", "trial": 4, "stimulus": 2450, "rt": 6523}, "7": {"category": "Gamma", "trial": 7, "stimulus": 1600, "rt": 5144}, "6": {"category": "Gamma", "trial": 6, "stimulus": 1050, "rt": 4226}}, "generalization": {"56": {"stimulus": 1780, "trial": 56, "rt": 690, "response": "Alpha"}, "77": {"stimulus": 655, "trial": 77, "rt": 1872, "response": "Gamma"}, "54": {"stimulus": 2312, "trial": 54, "rt": 1744, "response": "Alpha"}, "42": {"stimulus": 62, "trial": 42, "rt": 1313, "response": "Gamma"}, "48": {"stimulus": 218, "trial": 48, "rt": 128343, "response": "Alpha"}, "43": {"stimulus": 2187, "trial": 43, "rt": 1266, "response": "Alpha"}, "60": {"stimulus": 374, "trial": 60, "rt": 3462, "response": "Alpha"}, "61": {"stimulus": 2093, "trial": 61, "rt": 1239, "response": "Beta"}, "62": {"stimulus": 530, "trial": 62, "rt": 2823, "response": "Alpha"}, "63": {"stimulus": 1999, "trial": 63, "rt": 896, "response": "Beta"}, "64": {"stimulus": 1874, "trial": 64, "rt": 951, "response": "Alpha"}, "49": {"stimulus": 2218, "trial": 49, "rt": 2670, "response": "Alpha"}, "66": {"stimulus": 1968, "trial": 66, "rt": 1091, "response": "Alpha"}, "67": {"stimulus": 1655, "trial": 67, "rt": 1368, "response": "Gamma"}, "68": {"stimulus": 187, "trial": 68, "rt": 2998, "response": "Alpha"}, "69": {"stimulus": 2499, "trial": 69, "rt": 84792, "response": "Beta"}, "80": {"stimulus": 1062, "trial": 80, "rt": 4755, "response": "Gamma"}, "52": {"stimulus": 687, "trial": 52, "rt": 890, "response": "Alpha"}, "53": {"stimulus": 437, "trial": 53, "rt": 31150, "response": "Alpha"}, "24": {"stimulus": 562, "trial": 24, "rt": 1148, "response": "Gamma"}, "25": {"stimulus": 1749, "trial": 25, "rt": 912, "response": "Beta"}, "26": {"stimulus": 937, "trial": 26, "rt": 2423, "response": "Alpha"}, "27": {"stimulus": 2437, "trial": 27, "rt": 1524, "response": "Alpha"}, "20": {"stimulus": 155, "trial": 20, "rt": 1402, "response": "Gamma"}, "21": {"stimulus": 93, "trial": 21, "rt": 887, "response": "Beta"}, "22": {"stimulus": 1187, "trial": 22, "rt": 2422, "response": "Alpha"}, "23": {"stimulus": 1812, "trial": 23, "rt": 4471, "response": "Alpha"}, "46": {"stimulus": 1093, "trial": 46, "rt": 848, "response": "Beta"}, "47": {"stimulus": 312, "trial": 47, "rt": 1699, "response": "Gamma"}, "44": {"stimulus": 905, "trial": 44, "rt": 1807, "response": "Gamma"}, "45": {"stimulus": 1687, "trial": 45, "rt": 1649, "response": "Alpha"}, "28": {"stimulus": 0, "trial": 28, "rt": 2848, "response": "Gamma"}, "29": {"stimulus": 1937, "trial": 29, "rt": 5611, "response": "Alpha"}, "40": {"stimulus": 1905, "trial": 40, "rt": 1884, "response": "Gamma"}, "41": {"stimulus": 468, "trial": 41, "rt": 1357, "response": "Gamma"}, "1": {"stimulus": 2374, "trial": 1, "rt": 2084, "response": "Alpha"}, "0": {"stimulus": 1124, "trial": 0, "rt": 3250, "response": "Alpha"}, "3": {"stimulus": 249, "trial": 3, "rt": 1047, "response": "Beta"}, "2": {"stimulus": 30, "trial": 2, "rt": 1328, "response": "Alpha"}, "5": {"stimulus": 2030, "trial": 5, "rt": 855, "response": "Alpha"}, "4": {"stimulus": 2062, "trial": 4, "rt": 1086, "response": "Alpha"}, "7": {"stimulus": 2249, "trial": 7, "rt": 779, "response": "Beta"}, "6": {"stimulus": 843, "trial": 6, "rt": 1133, "response": "Beta"}, "9": {"stimulus": 1530, "trial": 9, "rt": 1479, "response": "Alpha"}, "8": {"stimulus": 124, "trial": 8, "rt": 1188, "response": "Alpha"}, "78": {"stimulus": 499, "trial": 78, "rt": 1440, "response": "Beta"}, "51": {"stimulus": 624, "trial": 51, "rt": 1109, "response": "Alpha"}, "39": {"stimulus": 718, "trial": 39, "rt": 1732, "response": "Alpha"}, "65": {"stimulus": 1843, "trial": 65, "rt": 809, "response": "Beta"}, "76": {"stimulus": 2280, "trial": 76, "rt": 4185, "response": "Beta"}, "75": {"stimulus": 780, "trial": 75, "rt": 849, "response": "Alpha"}, "38": {"stimulus": 1562, "trial": 38, "rt": 2233, "response": "Gamma"}, "73": {"stimulus": 1030, "trial": 73, "rt": 1100, "response": "Alpha"}, "72": {"stimulus": 280, "trial": 72, "rt": 966, "response": "Alpha"}, "71": {"stimulus": 812, "trial": 71, "rt": 1137, "response": "Gamma"}, "70": {"stimulus": 343, "trial": 70, "rt": 1250, "response": "Beta"}, "59": {"stimulus": 1405, "trial": 59, "rt": 1532, "response": "Alpha"}, "79": {"stimulus": 1437, "trial": 79, "rt": 1974, "response": "Alpha"}, "58": {"stimulus": 874, "trial": 58, "rt": 942, "response": "Alpha"}, "11": {"stimulus": 1155, "trial": 11, "rt": 2912, "response": "Gamma"}, "10": {"stimulus": 1624, "trial": 10, "rt": 801, "response": "Alpha"}, "13": {"stimulus": 1718, "trial": 13, "rt": 952, "response": "Alpha"}, "12": {"stimulus": 1468, "trial": 12, "rt": 1251, "response": "Alpha"}, "15": {"stimulus": 2468, "trial": 15, "rt": 541, "response": "Alpha"}, "14": {"stimulus": 968, "trial": 14, "rt": 803, "response": "Alpha"}, "17": {"stimulus": 749, "trial": 17, "rt": 2132, "response": "Beta"}, "16": {"stimulus": 2155, "trial": 16, "rt": 905, "response": "Alpha"}, "19": {"stimulus": 1249, "trial": 19, "rt": 1455, "response": "Beta"}, "18": {"stimulus": 405, "trial": 18, "rt": 1722, "response": "Alpha"}, "31": {"stimulus": 999, "trial": 31, "rt": 1647, "response": "Beta"}, "30": {"stimulus": 2124, "trial": 30, "rt": 2808, "response": "Alpha"}, "37": {"stimulus": 2405, "trial": 37, "rt": 2092, "response": "Gamma"}, "36": {"stimulus": 2343, "trial": 36, "rt": 1442, "response": "Beta"}, "35": {"stimulus": 1593, "trial": 35, "rt": 934, "response": "Beta"}, "34": {"stimulus": 1374, "trial": 34, "rt": 2379, "response": "Alpha"}, "33": {"stimulus": 1499, "trial": 33, "rt": 747, "response": "Beta"}, "55": {"stimulus": 1280, "trial": 55, "rt": 838, "response": "Alpha"}, "74": {"stimulus": 1218, "trial": 74, "rt": 1265, "response": "Alpha"}, "32": {"stimulus": 1343, "trial": 32, "rt": 808, "response": "Beta"}, "57": {"stimulus": 593, "trial": 57, "rt": 1229, "response": "Beta"}, "50": {"stimulus": 1312, "trial": 50, "rt": 57628, "response": "Alpha"}}, "experiment": {"Paradigm": "TACL", "Stimuli": "Size-Color Squares", "Experiment": "Generating-Multiple-Categories"}, "submit": {"timeTotal": 649242, "age": "21", "comments": "", "sex": "Male"}}