{"info": {"finish": 1548138773175, "participant": 299, "exposed": true, "lab": false, "start": 1548138346859, "counterbalance": 5, "gentype": 0, "condition": "XOR", "browser": {"platform": "Win32", "userAgent": "Mozilla/5.0 (Windows NT 6.1; Win64; x64) AppleWebKit/537.36 (KHTML, like Gecko) Chrome/71.0.3578.98 Safari/537.36"}}, "observation": {"11": {"stimulus": 818, "trial": 11, "rt": 2589}, "10": {"stimulus": 403, "trial": 10, "rt": 2349}, "1": {"stimulus": 1479, "trial": 1, "rt": 2704}, "0": {"stimulus": 403, "trial": 0, "rt": 4311}, "3": {"stimulus": 818, "trial": 3, "rt": 1993}, "2": {"stimulus": 1890, "trial": 2, "rt": 1970}, "5": {"stimulus": 818, "trial": 5, "rt": 2690}, "4": {"stimulus": 1479, "trial": 4, "rt": 1903}, "7": {"stimulus": 403, "trial": 7, "rt": 1969}, "6": {"stimulus": 1890, "trial": 6, "rt": 2078}, "9": {"stimulus": 1890, "trial": 9, "rt": 2310}, "8": {"stimulus": 1479, "trial": 8, "rt": 2189}}, "generation": {"1": {"category": "Not-Alpha", "trial": 1, "stimulus": 1078, "rt": 7908}, "0": {"category": "Not-Alpha", "trial": 0, "stimulus": 1764, "rt": 9618}, "3": {"category": "Not-Alpha", "trial": 3, "stimulus": 2206, "rt": 20237}, "2": {"category": "Not-Alpha", "trial": 2, "stimulus": 1126, "rt": 5379}, "5": {"category": "Not-Alpha", "trial": 5, "stimulus": 2450, "rt": 6188}, "4": {"category": "Not-Alpha", "trial": 4, "stimulus": 490, "rt": 6258}, "7": {"category": "Not-Alpha", "trial": 7, "stimulus": 2094, "rt": 6082}, "6": {"category": "Not-Alpha", "trial": 6, "stimulus": 2494, "rt": 3974}}, "generalization": {"56": {"stimulus": 437, "trial": 56, "rt": 799, "response": "Alpha"}, "77": {"stimulus": 2312, "trial": 77, "rt": 2189, "response": "Alpha"}, "54": {"stimulus": 2249, "trial": 54, "rt": 949, "response": "Alpha"}, "42": {"stimulus": 624, "trial": 42, "rt": 1067, "response": "Alpha"}, "48": {"stimulus": 1312, "trial": 48, "rt": 2252, "response": "Alpha"}, "43": {"stimulus": 1593, "trial": 43, "rt": 1400, "response": "Alpha"}, "60": {"stimulus": 1155, "trial": 60, "rt": 919, "response": "Alpha"}, "61": {"stimulus": 187, "trial": 61, "rt": 859, "response": "Alpha"}, "62": {"stimulus": 312, "trial": 62, "rt": 7788, "response": "Alpha"}, "63": {"stimulus": 1530, "trial": 63, "rt": 4753, "response": "Alpha"}, "64": {"stimulus": 655, "trial": 64, "rt": 3771, "response": "Alpha"}, "49": {"stimulus": 905, "trial": 49, "rt": 744, "response": "Alpha"}, "66": {"stimulus": 280, "trial": 66, "rt": 1069, "response": "Alpha"}, "67": {"stimulus": 155, "trial": 67, "rt": 860, "response": "Alpha"}, "68": {"stimulus": 718, "trial": 68, "rt": 869, "response": "Alpha"}, "69": {"stimulus": 593, "trial": 69, "rt": 2579, "response": "Alpha"}, "80": {"stimulus": 1093, "trial": 80, "rt": 6564, "response": "Alpha"}, "52": {"stimulus": 2374, "trial": 52, "rt": 938, "response": "Alpha"}, "53": {"stimulus": 0, "trial": 53, "rt": 829, "response": "Alpha"}, "24": {"stimulus": 93, "trial": 24, "rt": 944, "response": "Alpha"}, "25": {"stimulus": 843, "trial": 25, "rt": 1754, "response": "Alpha"}, "26": {"stimulus": 249, "trial": 26, "rt": 2599, "response": "Alpha"}, "27": {"stimulus": 124, "trial": 27, "rt": 4179, "response": "Alpha"}, "20": {"stimulus": 2093, "trial": 20, "rt": 1070, "response": "Alpha"}, "21": {"stimulus": 937, "trial": 21, "rt": 929, "response": "Alpha"}, "22": {"stimulus": 1843, "trial": 22, "rt": 879, "response": "Alpha"}, "23": {"stimulus": 562, "trial": 23, "rt": 968, "response": "Alpha"}, "46": {"stimulus": 2468, "trial": 46, "rt": 839, "response": "Alpha"}, "47": {"stimulus": 468, "trial": 47, "rt": 830, "response": "Alpha"}, "44": {"stimulus": 2187, "trial": 44, "rt": 2230, "response": "Alpha"}, "45": {"stimulus": 1343, "trial": 45, "rt": 4937, "response": "Alpha"}, "28": {"stimulus": 1687, "trial": 28, "rt": 6003, "response": "Alpha"}, "29": {"stimulus": 30, "trial": 29, "rt": 1174, "response": "Alpha"}, "40": {"stimulus": 687, "trial": 40, "rt": 3748, "response": "Alpha"}, "41": {"stimulus": 2437, "trial": 41, "rt": 1269, "response": "Alpha"}, "1": {"stimulus": 1124, "trial": 1, "rt": 949, "response": "Alpha"}, "0": {"stimulus": 1374, "trial": 0, "rt": 1867, "response": "Alpha"}, "3": {"stimulus": 1655, "trial": 3, "rt": 869, "response": "Alpha"}, "2": {"stimulus": 2343, "trial": 2, "rt": 908, "response": "Alpha"}, "5": {"stimulus": 530, "trial": 5, "rt": 919, "response": "Alpha"}, "4": {"stimulus": 1999, "trial": 4, "rt": 960, "response": "Alpha"}, "7": {"stimulus": 812, "trial": 7, "rt": 929, "response": "Alpha"}, "6": {"stimulus": 2280, "trial": 6, "rt": 849, "response": "Alpha"}, "9": {"stimulus": 2405, "trial": 9, "rt": 840, "response": "Alpha"}, "8": {"stimulus": 405, "trial": 8, "rt": 749, "response": "Alpha"}, "78": {"stimulus": 2218, "trial": 78, "rt": 1189, "response": "Alpha"}, "51": {"stimulus": 2155, "trial": 51, "rt": 930, "response": "Alpha"}, "39": {"stimulus": 1968, "trial": 39, "rt": 1554, "response": "Alpha"}, "65": {"stimulus": 1874, "trial": 65, "rt": 1083, "response": "Alpha"}, "76": {"stimulus": 1280, "trial": 76, "rt": 1739, "response": "Alpha"}, "75": {"stimulus": 374, "trial": 75, "rt": 1619, "response": "Alpha"}, "38": {"stimulus": 1249, "trial": 38, "rt": 6413, "response": "Alpha"}, "73": {"stimulus": 218, "trial": 73, "rt": 1649, "response": "Alpha"}, "72": {"stimulus": 968, "trial": 72, "rt": 2099, "response": "Alpha"}, "71": {"stimulus": 1562, "trial": 71, "rt": 2037, "response": "Alpha"}, "70": {"stimulus": 780, "trial": 70, "rt": 3221, "response": "Alpha"}, "59": {"stimulus": 749, "trial": 59, "rt": 1090, "response": "Alpha"}, "79": {"stimulus": 1499, "trial": 79, "rt": 4478, "response": "Alpha"}, "58": {"stimulus": 999, "trial": 58, "rt": 1149, "response": "Alpha"}, "11": {"stimulus": 1468, "trial": 11, "rt": 1010, "response": "Alpha"}, "10": {"stimulus": 2062, "trial": 10, "rt": 710, "response": "Alpha"}, "13": {"stimulus": 1937, "trial": 13, "rt": 838, "response": "Alpha"}, "12": {"stimulus": 874, "trial": 12, "rt": 1129, "response": "Alpha"}, "15": {"stimulus": 2124, "trial": 15, "rt": 789, "response": "Alpha"}, "14": {"stimulus": 1030, "trial": 14, "rt": 848, "response": "Alpha"}, "17": {"stimulus": 1218, "trial": 17, "rt": 919, "response": "Alpha"}, "16": {"stimulus": 1062, "trial": 16, "rt": 839, "response": "Alpha"}, "19": {"stimulus": 1718, "trial": 19, "rt": 788, "response": "Alpha"}, "18": {"stimulus": 499, "trial": 18, "rt": 799, "response": "Alpha"}, "31": {"stimulus": 1780, "trial": 31, "rt": 46297, "response": "Alpha"}, "30": {"stimulus": 1905, "trial": 30, "rt": 2502, "response": "Alpha"}, "37": {"stimulus": 1187, "trial": 37, "rt": 1239, "response": "Alpha"}, "36": {"stimulus": 1405, "trial": 36, "rt": 1039, "response": "Alpha"}, "35": {"stimulus": 1749, "trial": 35, "rt": 1479, "response": "Alpha"}, "34": {"stimulus": 2499, "trial": 34, "rt": 755, "response": "Alpha"}, "33": {"stimulus": 2030, "trial": 33, "rt": 4155, "response": "Alpha"}, "55": {"stimulus": 343, "trial": 55, "rt": 799, "response": "Alpha"}, "74": {"stimulus": 1812, "trial": 74, "rt": 1468, "response": "Alpha"}, "32": {"stimulus": 62, "trial": 32, "rt": 25669, "response": "Alpha"}, "57": {"stimulus": 1624, "trial": 57, "rt": 870, "response": "Alpha"}, "50": {"stimulus": 1437, "trial": 50, "rt": 799, "response": "Alpha"}}, "experiment": {"Paradigm": "TACL", "Stimuli": "Size-Color Squares", "Experiment": "Generating-Multiple-Categories"}, "submit": {"timeTotal": 426606, "age": "27", "comments": "none", "sex": "female"}}