{"info": {"finish": 1548139830103, "participant": 301, "exposed": true, "lab": false, "start": 1548139396486, "counterbalance": 2, "gentype": 2, "condition": "Cluster", "browser": {"platform": "Win32", "userAgent": "Mozilla/5.0 (Windows NT 6.1; Win64; x64) AppleWebKit/537.36 (KHTML, like Gecko) Chrome/71.0.3578.98 Safari/537.36"}}, "observation": {"11": {"stimulus": 1093, "trial": 11, "rt": 2047}, "10": {"stimulus": 1083, "trial": 10, "rt": 2439}, "1": {"stimulus": 392, "trial": 1, "rt": 2527}, "0": {"stimulus": 583, "trial": 0, "rt": 9183}, "3": {"stimulus": 1093, "trial": 3, "rt": 2231}, "2": {"stimulus": 1083, "trial": 2, "rt": 2391}, "5": {"stimulus": 583, "trial": 5, "rt": 2224}, "4": {"stimulus": 1093, "trial": 4, "rt": 2182}, "7": {"stimulus": 1083, "trial": 7, "rt": 2054}, "6": {"stimulus": 392, "trial": 6, "rt": 2118}, "9": {"stimulus": 392, "trial": 9, "rt": 2662}, "8": {"stimulus": 583, "trial": 8, "rt": 2039}}, "generation": {"1": {"category": "Beta", "trial": 1, "stimulus": 1521, "rt": 5237}, "0": {"category": "Beta", "trial": 0, "stimulus": 1474, "rt": 4281}, "3": {"category": "Beta", "trial": 3, "stimulus": 2271, "rt": 3318}, "2": {"category": "Beta", "trial": 2, "stimulus": 1427, "rt": 4893}, "5": {"category": "Gamma", "trial": 5, "stimulus": 1324, "rt": 2798}, "4": {"category": "Gamma", "trial": 4, "stimulus": 689, "rt": 3119}, "7": {"category": "Gamma", "trial": 7, "stimulus": 916, "rt": 5838}, "6": {"category": "Gamma", "trial": 6, "stimulus": 775, "rt": 3189}}, "generalization": {"56": {"stimulus": 968, "trial": 56, "rt": 911, "response": "Beta"}, "77": {"stimulus": 1655, "trial": 77, "rt": 19222, "response": "Beta"}, "54": {"stimulus": 374, "trial": 54, "rt": 654, "response": "Gamma"}, "42": {"stimulus": 468, "trial": 42, "rt": 542, "response": "Beta"}, "48": {"stimulus": 1218, "trial": 48, "rt": 1326, "response": "Gamma"}, "43": {"stimulus": 124, "trial": 43, "rt": 1006, "response": "Gamma"}, "60": {"stimulus": 2124, "trial": 60, "rt": 1583, "response": "Beta"}, "61": {"stimulus": 530, "trial": 61, "rt": 669, "response": "Gamma"}, "62": {"stimulus": 1312, "trial": 62, "rt": 607, "response": "Beta"}, "63": {"stimulus": 2405, "trial": 63, "rt": 2518, "response": "Gamma"}, "64": {"stimulus": 718, "trial": 64, "rt": 8614, "response": "Gamma"}, "49": {"stimulus": 562, "trial": 49, "rt": 1167, "response": "Beta"}, "66": {"stimulus": 1812, "trial": 66, "rt": 1254, "response": "Gamma"}, "67": {"stimulus": 249, "trial": 67, "rt": 3399, "response": "Alpha"}, "68": {"stimulus": 1843, "trial": 68, "rt": 470, "response": "Beta"}, "69": {"stimulus": 812, "trial": 69, "rt": 463, "response": "Beta"}, "80": {"stimulus": 2155, "trial": 80, "rt": 726, "response": "Gamma"}, "52": {"stimulus": 1593, "trial": 52, "rt": 1127, "response": "Beta"}, "53": {"stimulus": 1093, "trial": 53, "rt": 688, "response": "Alpha"}, "24": {"stimulus": 1030, "trial": 24, "rt": 1110, "response": "Beta"}, "25": {"stimulus": 1062, "trial": 25, "rt": 2136, "response": "Gamma"}, "26": {"stimulus": 1374, "trial": 26, "rt": 793, "response": "Beta"}, "27": {"stimulus": 1999, "trial": 27, "rt": 34646, "response": "Beta"}, "20": {"stimulus": 1280, "trial": 20, "rt": 1103, "response": "Alpha"}, "21": {"stimulus": 437, "trial": 21, "rt": 1126, "response": "Beta"}, "22": {"stimulus": 312, "trial": 22, "rt": 1430, "response": "Gamma"}, "23": {"stimulus": 2030, "trial": 23, "rt": 1134, "response": "Alpha"}, "46": {"stimulus": 905, "trial": 46, "rt": 543, "response": "Gamma"}, "47": {"stimulus": 1624, "trial": 47, "rt": 1190, "response": "Alpha"}, "44": {"stimulus": 593, "trial": 44, "rt": 1303, "response": "Alpha"}, "45": {"stimulus": 937, "trial": 45, "rt": 1165, "response": "Beta"}, "28": {"stimulus": 2468, "trial": 28, "rt": 2063, "response": "Alpha"}, "29": {"stimulus": 93, "trial": 29, "rt": 1415, "response": "Beta"}, "40": {"stimulus": 405, "trial": 40, "rt": 446, "response": "Beta"}, "41": {"stimulus": 499, "trial": 41, "rt": 390, "response": "Beta"}, "1": {"stimulus": 1874, "trial": 1, "rt": 5776, "response": "Alpha"}, "0": {"stimulus": 655, "trial": 0, "rt": 4107, "response": "Alpha"}, "3": {"stimulus": 874, "trial": 3, "rt": 2119, "response": "Alpha"}, "2": {"stimulus": 2187, "trial": 2, "rt": 10215, "response": "Alpha"}, "5": {"stimulus": 1718, "trial": 5, "rt": 1038, "response": "Beta"}, "4": {"stimulus": 2437, "trial": 4, "rt": 1336, "response": "Gamma"}, "7": {"stimulus": 1343, "trial": 7, "rt": 1103, "response": "Gamma"}, "6": {"stimulus": 2312, "trial": 6, "rt": 1094, "response": "Beta"}, "9": {"stimulus": 1687, "trial": 9, "rt": 1231, "response": "Alpha"}, "8": {"stimulus": 2249, "trial": 8, "rt": 1470, "response": "Beta"}, "78": {"stimulus": 687, "trial": 78, "rt": 37656, "response": "Beta"}, "51": {"stimulus": 343, "trial": 51, "rt": 1687, "response": "Gamma"}, "39": {"stimulus": 624, "trial": 39, "rt": 759, "response": "Beta"}, "65": {"stimulus": 187, "trial": 65, "rt": 47287, "response": "Beta"}, "76": {"stimulus": 62, "trial": 76, "rt": 558, "response": "Gamma"}, "75": {"stimulus": 1249, "trial": 75, "rt": 752, "response": "Beta"}, "38": {"stimulus": 1437, "trial": 38, "rt": 670, "response": "Gamma"}, "73": {"stimulus": 999, "trial": 73, "rt": 445, "response": "Beta"}, "72": {"stimulus": 0, "trial": 72, "rt": 431, "response": "Gamma"}, "71": {"stimulus": 780, "trial": 71, "rt": 575, "response": "Beta"}, "70": {"stimulus": 155, "trial": 70, "rt": 422, "response": "Beta"}, "59": {"stimulus": 2062, "trial": 59, "rt": 1239, "response": "Gamma"}, "79": {"stimulus": 1468, "trial": 79, "rt": 1522, "response": "Beta"}, "58": {"stimulus": 1405, "trial": 58, "rt": 614, "response": "Beta"}, "11": {"stimulus": 1780, "trial": 11, "rt": 1943, "response": "Beta"}, "10": {"stimulus": 749, "trial": 10, "rt": 1655, "response": "Gamma"}, "13": {"stimulus": 1968, "trial": 13, "rt": 1879, "response": "Beta"}, "12": {"stimulus": 2280, "trial": 12, "rt": 1423, "response": "Beta"}, "15": {"stimulus": 1187, "trial": 15, "rt": 1213, "response": "Alpha"}, "14": {"stimulus": 218, "trial": 14, "rt": 1302, "response": "Beta"}, "17": {"stimulus": 2343, "trial": 17, "rt": 1374, "response": "Alpha"}, "16": {"stimulus": 1905, "trial": 16, "rt": 1343, "response": "Beta"}, "19": {"stimulus": 1530, "trial": 19, "rt": 1335, "response": "Beta"}, "18": {"stimulus": 2218, "trial": 18, "rt": 958, "response": "Beta"}, "31": {"stimulus": 280, "trial": 31, "rt": 1207, "response": "Beta"}, "30": {"stimulus": 1124, "trial": 30, "rt": 2085, "response": "Beta"}, "37": {"stimulus": 1499, "trial": 37, "rt": 751, "response": "Beta"}, "36": {"stimulus": 1562, "trial": 36, "rt": 631, "response": "Alpha"}, "35": {"stimulus": 1937, "trial": 35, "rt": 1143, "response": "Gamma"}, "34": {"stimulus": 30, "trial": 34, "rt": 830, "response": "Beta"}, "33": {"stimulus": 2499, "trial": 33, "rt": 990, "response": "Gamma"}, "55": {"stimulus": 1155, "trial": 55, "rt": 774, "response": "Beta"}, "74": {"stimulus": 2093, "trial": 74, "rt": 479, "response": "Gamma"}, "32": {"stimulus": 2374, "trial": 32, "rt": 2518, "response": "Beta"}, "57": {"stimulus": 843, "trial": 57, "rt": 848, "response": "Gamma"}, "50": {"stimulus": 1749, "trial": 50, "rt": 1486, "response": "Alpha"}}, "experiment": {"Paradigm": "TACL", "Stimuli": "Size-Color Squares", "Experiment": "Generating-Multiple-Categories"}, "submit": {"timeTotal": 434460, "age": "24", "comments": "nice", "sex": "female"}}