{"info": {"finish": 1548139773836, "participant": 303, "exposed": true, "lab": false, "start": 1548139431715, "counterbalance": 6, "gentype": 1, "condition": "Row", "browser": {"platform": "Win32", "userAgent": "Mozilla/5.0 (Windows NT 6.3; Win64; x64) AppleWebKit/537.36 (KHTML, like Gecko) Chrome/71.0.3578.98 Safari/537.36"}}, "observation": {"11": {"stimulus": 612, "trial": 11, "rt": 2077}, "10": {"stimulus": 421, "trial": 10, "rt": 2073}, "1": {"stimulus": 493, "trial": 1, "rt": 2127}, "0": {"stimulus": 582, "trial": 0, "rt": 2316}, "3": {"stimulus": 421, "trial": 3, "rt": 2004}, "2": {"stimulus": 612, "trial": 2, "rt": 2320}, "5": {"stimulus": 493, "trial": 5, "rt": 1931}, "4": {"stimulus": 612, "trial": 4, "rt": 2004}, "7": {"stimulus": 421, "trial": 7, "rt": 1970}, "6": {"stimulus": 582, "trial": 6, "rt": 1937}, "9": {"stimulus": 582, "trial": 9, "rt": 2047}, "8": {"stimulus": 493, "trial": 8, "rt": 1926}}, "generation": {"1": {"category": "Beta", "trial": 1, "stimulus": 1460, "rt": 5225}, "0": {"category": "Beta", "trial": 0, "stimulus": 1776, "rt": 6227}, "3": {"category": "Beta", "trial": 3, "stimulus": 1261, "rt": 4566}, "2": {"category": "Beta", "trial": 2, "stimulus": 1561, "rt": 4808}, "5": {"category": "Beta", "trial": 5, "stimulus": 1210, "rt": 5409}, "4": {"category": "Beta", "trial": 4, "stimulus": 1183, "rt": 5307}, "7": {"category": "Beta", "trial": 7, "stimulus": 818, "rt": 5148}, "6": {"category": "Beta", "trial": 6, "stimulus": 1361, "rt": 5722}}, "generalization": {"56": {"stimulus": 1999, "trial": 56, "rt": 2052, "response": "Beta"}, "77": {"stimulus": 62, "trial": 77, "rt": 1306, "response": "Alpha"}, "54": {"stimulus": 2312, "trial": 54, "rt": 1163, "response": "Alpha"}, "42": {"stimulus": 1405, "trial": 42, "rt": 1760, "response": "Alpha"}, "48": {"stimulus": 1687, "trial": 48, "rt": 1790, "response": "Beta"}, "43": {"stimulus": 1280, "trial": 43, "rt": 1628, "response": "Beta"}, "60": {"stimulus": 1030, "trial": 60, "rt": 1338, "response": "Alpha"}, "61": {"stimulus": 1374, "trial": 61, "rt": 1079, "response": "Alpha"}, "62": {"stimulus": 249, "trial": 62, "rt": 1707, "response": "Beta"}, "63": {"stimulus": 999, "trial": 63, "rt": 1660, "response": "Beta"}, "64": {"stimulus": 280, "trial": 64, "rt": 1586, "response": "Beta"}, "49": {"stimulus": 2218, "trial": 49, "rt": 1199, "response": "Alpha"}, "66": {"stimulus": 1062, "trial": 66, "rt": 1113, "response": "Alpha"}, "67": {"stimulus": 1843, "trial": 67, "rt": 2650, "response": "Beta"}, "68": {"stimulus": 1468, "trial": 68, "rt": 1378, "response": "Alpha"}, "69": {"stimulus": 343, "trial": 69, "rt": 1670, "response": "Beta"}, "80": {"stimulus": 1874, "trial": 80, "rt": 1212, "response": "Alpha"}, "52": {"stimulus": 2405, "trial": 52, "rt": 1343, "response": "Alpha"}, "53": {"stimulus": 1530, "trial": 53, "rt": 1797, "response": "Alpha"}, "24": {"stimulus": 843, "trial": 24, "rt": 2087, "response": "Beta"}, "25": {"stimulus": 1499, "trial": 25, "rt": 1410, "response": "Beta"}, "26": {"stimulus": 93, "trial": 26, "rt": 1317, "response": "Beta"}, "27": {"stimulus": 1343, "trial": 27, "rt": 1312, "response": "Beta"}, "20": {"stimulus": 1624, "trial": 20, "rt": 2252, "response": "Alpha"}, "21": {"stimulus": 218, "trial": 21, "rt": 1589, "response": "Beta"}, "22": {"stimulus": 155, "trial": 22, "rt": 998, "response": "Alpha"}, "23": {"stimulus": 124, "trial": 23, "rt": 2170, "response": "Alpha"}, "46": {"stimulus": 2249, "trial": 46, "rt": 1561, "response": "Beta"}, "47": {"stimulus": 1812, "trial": 47, "rt": 1219, "response": "Alpha"}, "44": {"stimulus": 499, "trial": 44, "rt": 1591, "response": "Beta"}, "45": {"stimulus": 2124, "trial": 45, "rt": 1271, "response": "Alpha"}, "28": {"stimulus": 1905, "trial": 28, "rt": 1888, "response": "Alpha"}, "29": {"stimulus": 2437, "trial": 29, "rt": 1734, "response": "Beta"}, "40": {"stimulus": 687, "trial": 40, "rt": 1821, "response": "Beta"}, "41": {"stimulus": 2093, "trial": 41, "rt": 1226, "response": "Beta"}, "1": {"stimulus": 1968, "trial": 1, "rt": 996, "response": "Alpha"}, "0": {"stimulus": 2280, "trial": 0, "rt": 1657, "response": "Alpha"}, "3": {"stimulus": 2343, "trial": 3, "rt": 1077, "response": "Beta"}, "2": {"stimulus": 374, "trial": 2, "rt": 1169, "response": "Beta"}, "5": {"stimulus": 2030, "trial": 5, "rt": 1472, "response": "Beta"}, "4": {"stimulus": 1093, "trial": 4, "rt": 1519, "response": "Beta"}, "7": {"stimulus": 312, "trial": 7, "rt": 961, "response": "Alpha"}, "6": {"stimulus": 780, "trial": 6, "rt": 2083, "response": "Beta"}, "9": {"stimulus": 1437, "trial": 9, "rt": 1353, "response": "Alpha"}, "8": {"stimulus": 1124, "trial": 8, "rt": 1340, "response": "Alpha"}, "78": {"stimulus": 2062, "trial": 78, "rt": 1169, "response": "Alpha"}, "51": {"stimulus": 530, "trial": 51, "rt": 2108, "response": "Alpha"}, "39": {"stimulus": 655, "trial": 39, "rt": 1671, "response": "Alpha"}, "65": {"stimulus": 874, "trial": 65, "rt": 1538, "response": "Alpha"}, "76": {"stimulus": 968, "trial": 76, "rt": 1198, "response": "Alpha"}, "75": {"stimulus": 405, "trial": 75, "rt": 1508, "response": "Alpha"}, "38": {"stimulus": 2499, "trial": 38, "rt": 1186, "response": "Beta"}, "73": {"stimulus": 437, "trial": 73, "rt": 1438, "response": "Beta"}, "72": {"stimulus": 30, "trial": 72, "rt": 1547, "response": "Beta"}, "71": {"stimulus": 905, "trial": 71, "rt": 1468, "response": "Alpha"}, "70": {"stimulus": 1937, "trial": 70, "rt": 2112, "response": "Beta"}, "59": {"stimulus": 812, "trial": 59, "rt": 1205, "response": "Alpha"}, "79": {"stimulus": 1655, "trial": 79, "rt": 2050, "response": "Alpha"}, "58": {"stimulus": 1780, "trial": 58, "rt": 1450, "response": "Alpha"}, "11": {"stimulus": 593, "trial": 11, "rt": 1691, "response": "Beta"}, "10": {"stimulus": 2155, "trial": 10, "rt": 1402, "response": "Alpha"}, "13": {"stimulus": 1218, "trial": 13, "rt": 1222, "response": "Alpha"}, "12": {"stimulus": 718, "trial": 12, "rt": 1783, "response": "Beta"}, "15": {"stimulus": 749, "trial": 15, "rt": 1277, "response": "Beta"}, "14": {"stimulus": 1718, "trial": 14, "rt": 1859, "response": "Alpha"}, "17": {"stimulus": 187, "trial": 17, "rt": 1425, "response": "Beta"}, "16": {"stimulus": 1749, "trial": 16, "rt": 1559, "response": "Beta"}, "19": {"stimulus": 1155, "trial": 19, "rt": 1082, "response": "Alpha"}, "18": {"stimulus": 1187, "trial": 18, "rt": 1629, "response": "Beta"}, "31": {"stimulus": 1593, "trial": 31, "rt": 1059, "response": "Beta"}, "30": {"stimulus": 2374, "trial": 30, "rt": 2035, "response": "Beta"}, "37": {"stimulus": 1249, "trial": 37, "rt": 1558, "response": "Beta"}, "36": {"stimulus": 1312, "trial": 36, "rt": 1057, "response": "Alpha"}, "35": {"stimulus": 1562, "trial": 35, "rt": 1130, "response": "Alpha"}, "34": {"stimulus": 468, "trial": 34, "rt": 1590, "response": "Alpha"}, "33": {"stimulus": 0, "trial": 33, "rt": 1318, "response": "Alpha"}, "55": {"stimulus": 2468, "trial": 55, "rt": 1224, "response": "Alpha"}, "74": {"stimulus": 562, "trial": 74, "rt": 1731, "response": "Alpha"}, "32": {"stimulus": 2187, "trial": 32, "rt": 1089, "response": "Beta"}, "57": {"stimulus": 624, "trial": 57, "rt": 2168, "response": "Alpha"}, "50": {"stimulus": 937, "trial": 50, "rt": 1619, "response": "Beta"}}, "experiment": {"Paradigm": "TACL", "Stimuli": "Size-Color Squares", "Experiment": "Generating-Multiple-Categories"}, "submit": {"timeTotal": 342300, "age": "35", "comments": "NICE", "sex": "MALE"}}