{"info": {"finish": 1548141077184, "participant": 310, "exposed": true, "lab": false, "start": 1548140644314, "counterbalance": 4, "gentype": 2, "condition": "XOR", "browser": {"platform": "MacIntel", "userAgent": "Mozilla/5.0 (Macintosh; Intel Mac OS X 10_13_6) AppleWebKit/537.36 (KHTML, like Gecko) Chrome/71.0.3578.98 Safari/537.36"}}, "observation": {"11": {"stimulus": 818, "trial": 11, "rt": 1451}, "10": {"stimulus": 1890, "trial": 10, "rt": 1572}, "1": {"stimulus": 1890, "trial": 1, "rt": 2540}, "0": {"stimulus": 818, "trial": 0, "rt": 2591}, "3": {"stimulus": 1479, "trial": 3, "rt": 1868}, "2": {"stimulus": 403, "trial": 2, "rt": 2273}, "5": {"stimulus": 403, "trial": 5, "rt": 1553}, "4": {"stimulus": 1479, "trial": 4, "rt": 1536}, "7": {"stimulus": 1890, "trial": 7, "rt": 1882}, "6": {"stimulus": 818, "trial": 6, "rt": 1466}, "9": {"stimulus": 403, "trial": 9, "rt": 1441}, "8": {"stimulus": 1479, "trial": 8, "rt": 1509}}, "generation": {"1": {"category": "Beta", "trial": 1, "stimulus": 2499, "rt": 10851}, "0": {"category": "Beta", "trial": 0, "stimulus": 49, "rt": 17837}, "3": {"category": "Beta", "trial": 3, "stimulus": 799, "rt": 8536}, "2": {"category": "Beta", "trial": 2, "stimulus": 1249, "rt": 6981}, "5": {"category": "Gamma", "trial": 5, "stimulus": 822, "rt": 8779}, "4": {"category": "Gamma", "trial": 4, "stimulus": 621, "rt": 8085}, "7": {"category": "Gamma", "trial": 7, "stimulus": 972, "rt": 7542}, "6": {"category": "Gamma", "trial": 6, "stimulus": 1578, "rt": 13513}}, "generalization": {"56": {"stimulus": 1093, "trial": 56, "rt": 2986, "response": "Beta"}, "77": {"stimulus": 1280, "trial": 77, "rt": 3245, "response": "Beta"}, "54": {"stimulus": 1812, "trial": 54, "rt": 1097, "response": "Gamma"}, "42": {"stimulus": 780, "trial": 42, "rt": 816, "response": "Gamma"}, "48": {"stimulus": 1343, "trial": 48, "rt": 529, "response": "Beta"}, "43": {"stimulus": 812, "trial": 43, "rt": 681, "response": "Gamma"}, "60": {"stimulus": 593, "trial": 60, "rt": 951, "response": "Beta"}, "61": {"stimulus": 2218, "trial": 61, "rt": 1067, "response": "Gamma"}, "62": {"stimulus": 1905, "trial": 62, "rt": 1565, "response": "Alpha"}, "63": {"stimulus": 624, "trial": 63, "rt": 1973, "response": "Gamma"}, "64": {"stimulus": 2374, "trial": 64, "rt": 610, "response": "Gamma"}, "49": {"stimulus": 437, "trial": 49, "rt": 1213, "response": "Beta"}, "66": {"stimulus": 1780, "trial": 66, "rt": 2016, "response": "Gamma"}, "67": {"stimulus": 1999, "trial": 67, "rt": 1050, "response": "Beta"}, "68": {"stimulus": 1405, "trial": 68, "rt": 1181, "response": "Alpha"}, "69": {"stimulus": 2280, "trial": 69, "rt": 1934, "response": "Gamma"}, "80": {"stimulus": 999, "trial": 80, "rt": 1548, "response": "Beta"}, "52": {"stimulus": 1249, "trial": 52, "rt": 1090, "response": "Beta"}, "53": {"stimulus": 187, "trial": 53, "rt": 614, "response": "Beta"}, "24": {"stimulus": 1937, "trial": 24, "rt": 783, "response": "Beta"}, "25": {"stimulus": 843, "trial": 25, "rt": 798, "response": "Beta"}, "26": {"stimulus": 2437, "trial": 26, "rt": 1565, "response": "Beta"}, "27": {"stimulus": 343, "trial": 27, "rt": 948, "response": "Beta"}, "20": {"stimulus": 499, "trial": 20, "rt": 3297, "response": "Beta"}, "21": {"stimulus": 2093, "trial": 21, "rt": 885, "response": "Beta"}, "22": {"stimulus": 1374, "trial": 22, "rt": 1149, "response": "Gamma"}, "23": {"stimulus": 1437, "trial": 23, "rt": 14331, "response": "Beta"}, "46": {"stimulus": 749, "trial": 46, "rt": 1166, "response": "Beta"}, "47": {"stimulus": 1749, "trial": 47, "rt": 783, "response": "Beta"}, "44": {"stimulus": 374, "trial": 44, "rt": 587, "response": "Gamma"}, "45": {"stimulus": 874, "trial": 45, "rt": 777, "response": "Gamma"}, "28": {"stimulus": 155, "trial": 28, "rt": 1143, "response": "Alpha"}, "29": {"stimulus": 2062, "trial": 29, "rt": 694, "response": "Alpha"}, "40": {"stimulus": 562, "trial": 40, "rt": 1155, "response": "Gamma"}, "41": {"stimulus": 2124, "trial": 41, "rt": 1207, "response": "Gamma"}, "1": {"stimulus": 1718, "trial": 1, "rt": 26276, "response": "Gamma"}, "0": {"stimulus": 30, "trial": 0, "rt": 5243, "response": "Beta"}, "3": {"stimulus": 2312, "trial": 3, "rt": 2397, "response": "Alpha"}, "2": {"stimulus": 2343, "trial": 2, "rt": 3122, "response": "Beta"}, "5": {"stimulus": 124, "trial": 5, "rt": 4295, "response": "Gamma"}, "4": {"stimulus": 905, "trial": 4, "rt": 1279, "response": "Alpha"}, "7": {"stimulus": 1562, "trial": 7, "rt": 1758, "response": "Alpha"}, "6": {"stimulus": 2468, "trial": 6, "rt": 747, "response": "Gamma"}, "9": {"stimulus": 1968, "trial": 9, "rt": 1229, "response": "Gamma"}, "8": {"stimulus": 937, "trial": 8, "rt": 2057, "response": "Beta"}, "78": {"stimulus": 718, "trial": 78, "rt": 2225, "response": "Gamma"}, "51": {"stimulus": 1874, "trial": 51, "rt": 942, "response": "Gamma"}, "39": {"stimulus": 1843, "trial": 39, "rt": 583, "response": "Beta"}, "65": {"stimulus": 530, "trial": 65, "rt": 762, "response": "Gamma"}, "76": {"stimulus": 280, "trial": 76, "rt": 1212, "response": "Beta"}, "75": {"stimulus": 312, "trial": 75, "rt": 629, "response": "Gamma"}, "38": {"stimulus": 1499, "trial": 38, "rt": 2201, "response": "Beta"}, "73": {"stimulus": 0, "trial": 73, "rt": 730, "response": "Alpha"}, "72": {"stimulus": 1062, "trial": 72, "rt": 1988, "response": "Alpha"}, "71": {"stimulus": 1030, "trial": 71, "rt": 668, "response": "Gamma"}, "70": {"stimulus": 218, "trial": 70, "rt": 652, "response": "Gamma"}, "59": {"stimulus": 1124, "trial": 59, "rt": 672, "response": "Gamma"}, "79": {"stimulus": 655, "trial": 79, "rt": 1416, "response": "Alpha"}, "58": {"stimulus": 1624, "trial": 58, "rt": 640, "response": "Gamma"}, "11": {"stimulus": 1218, "trial": 11, "rt": 2049, "response": "Gamma"}, "10": {"stimulus": 2499, "trial": 10, "rt": 1429, "response": "Beta"}, "13": {"stimulus": 1655, "trial": 13, "rt": 1293, "response": "Alpha"}, "12": {"stimulus": 2030, "trial": 12, "rt": 6681, "response": "Gamma"}, "15": {"stimulus": 687, "trial": 15, "rt": 1496, "response": "Beta"}, "14": {"stimulus": 1593, "trial": 14, "rt": 2296, "response": "Beta"}, "17": {"stimulus": 62, "trial": 17, "rt": 3456, "response": "Alpha"}, "16": {"stimulus": 2187, "trial": 16, "rt": 3752, "response": "Beta"}, "19": {"stimulus": 1155, "trial": 19, "rt": 1324, "response": "Alpha"}, "18": {"stimulus": 1187, "trial": 18, "rt": 23670, "response": "Beta"}, "31": {"stimulus": 93, "trial": 31, "rt": 691, "response": "Beta"}, "30": {"stimulus": 1687, "trial": 30, "rt": 1553, "response": "Beta"}, "37": {"stimulus": 968, "trial": 37, "rt": 2056, "response": "Gamma"}, "36": {"stimulus": 2405, "trial": 36, "rt": 948, "response": "Alpha"}, "35": {"stimulus": 2249, "trial": 35, "rt": 469, "response": "Beta"}, "34": {"stimulus": 249, "trial": 34, "rt": 1331, "response": "Beta"}, "33": {"stimulus": 2155, "trial": 33, "rt": 479, "response": "Alpha"}, "55": {"stimulus": 1530, "trial": 55, "rt": 1721, "response": "Gamma"}, "74": {"stimulus": 468, "trial": 74, "rt": 1390, "response": "Gamma"}, "32": {"stimulus": 405, "trial": 32, "rt": 1659, "response": "Alpha"}, "57": {"stimulus": 1468, "trial": 57, "rt": 1089, "response": "Gamma"}, "50": {"stimulus": 1312, "trial": 50, "rt": 1418, "response": "Gamma"}}, "experiment": {"Paradigm": "TACL", "Stimuli": "Size-Color Squares", "Experiment": "Generating-Multiple-Categories"}, "submit": {"timeTotal": 433127, "age": "26", "comments": "This experiment was interesting. ", "sex": "male"}}