{"info": {"finish": 1548142348200, "participant": 312, "exposed": true, "lab": false, "start": 1548141997425, "counterbalance": 1, "gentype": 2, "condition": "XOR", "browser": {"platform": "Win32", "userAgent": "Mozilla/5.0 (Windows NT 10.0; Win64; x64) AppleWebKit/537.36 (KHTML, like Gecko) Chrome/71.0.3578.98 Safari/537.36"}}, "observation": {"11": {"stimulus": 1890, "trial": 11, "rt": 1438}, "10": {"stimulus": 1479, "trial": 10, "rt": 1500}, "1": {"stimulus": 1479, "trial": 1, "rt": 3299}, "0": {"stimulus": 818, "trial": 0, "rt": 3411}, "3": {"stimulus": 1890, "trial": 3, "rt": 1724}, "2": {"stimulus": 403, "trial": 2, "rt": 1681}, "5": {"stimulus": 1479, "trial": 5, "rt": 1681}, "4": {"stimulus": 403, "trial": 4, "rt": 1772}, "7": {"stimulus": 818, "trial": 7, "rt": 1712}, "6": {"stimulus": 1890, "trial": 6, "rt": 1718}, "9": {"stimulus": 818, "trial": 9, "rt": 1441}, "8": {"stimulus": 403, "trial": 8, "rt": 1538}}, "generation": {"1": {"category": "Beta", "trial": 1, "stimulus": 2490, "rt": 5967}, "0": {"category": "Beta", "trial": 0, "stimulus": 2104, "rt": 19486}, "3": {"category": "Beta", "trial": 3, "stimulus": 1349, "rt": 4179}, "2": {"category": "Beta", "trial": 2, "stimulus": 3, "rt": 7758}, "5": {"category": "Gamma", "trial": 5, "stimulus": 2014, "rt": 5904}, "4": {"category": "Gamma", "trial": 4, "stimulus": 2450, "rt": 11216}, "7": {"category": "Gamma", "trial": 7, "stimulus": 2475, "rt": 4352}, "6": {"category": "Gamma", "trial": 6, "stimulus": 2099, "rt": 7977}}, "generalization": {"56": {"stimulus": 1437, "trial": 56, "rt": 1084, "response": "Alpha"}, "77": {"stimulus": 437, "trial": 77, "rt": 1135, "response": "Alpha"}, "54": {"stimulus": 1655, "trial": 54, "rt": 1219, "response": "Alpha"}, "42": {"stimulus": 655, "trial": 42, "rt": 1872, "response": "Alpha"}, "48": {"stimulus": 2405, "trial": 48, "rt": 954, "response": "Gamma"}, "43": {"stimulus": 2249, "trial": 43, "rt": 1170, "response": "Gamma"}, "60": {"stimulus": 937, "trial": 60, "rt": 1392, "response": "Alpha"}, "61": {"stimulus": 1749, "trial": 61, "rt": 1081, "response": "Alpha"}, "62": {"stimulus": 30, "trial": 62, "rt": 1076, "response": "Beta"}, "63": {"stimulus": 1530, "trial": 63, "rt": 1050, "response": "Alpha"}, "64": {"stimulus": 0, "trial": 64, "rt": 1025, "response": "Beta"}, "49": {"stimulus": 2187, "trial": 49, "rt": 1178, "response": "Gamma"}, "66": {"stimulus": 1312, "trial": 66, "rt": 862, "response": "Alpha"}, "67": {"stimulus": 343, "trial": 67, "rt": 1043, "response": "Beta"}, "68": {"stimulus": 1874, "trial": 68, "rt": 1164, "response": "Alpha"}, "69": {"stimulus": 405, "trial": 69, "rt": 1055, "response": "Beta"}, "80": {"stimulus": 1218, "trial": 80, "rt": 1081, "response": "Alpha"}, "52": {"stimulus": 999, "trial": 52, "rt": 1263, "response": "Alpha"}, "53": {"stimulus": 843, "trial": 53, "rt": 966, "response": "Alpha"}, "24": {"stimulus": 562, "trial": 24, "rt": 1574, "response": "Alpha"}, "25": {"stimulus": 1093, "trial": 25, "rt": 1205, "response": "Alpha"}, "26": {"stimulus": 155, "trial": 26, "rt": 1088, "response": "Beta"}, "27": {"stimulus": 93, "trial": 27, "rt": 1359, "response": "Beta"}, "20": {"stimulus": 1155, "trial": 20, "rt": 1128, "response": "Alpha"}, "21": {"stimulus": 1374, "trial": 21, "rt": 928, "response": "Alpha"}, "22": {"stimulus": 280, "trial": 22, "rt": 1091, "response": "Beta"}, "23": {"stimulus": 62, "trial": 23, "rt": 909, "response": "Beta"}, "46": {"stimulus": 1280, "trial": 46, "rt": 1315, "response": "Alpha"}, "47": {"stimulus": 312, "trial": 47, "rt": 990, "response": "Beta"}, "44": {"stimulus": 1249, "trial": 44, "rt": 1258, "response": "Alpha"}, "45": {"stimulus": 1468, "trial": 45, "rt": 1011, "response": "Alpha"}, "28": {"stimulus": 1187, "trial": 28, "rt": 1218, "response": "Alpha"}, "29": {"stimulus": 1999, "trial": 29, "rt": 1054, "response": "Gamma"}, "40": {"stimulus": 2280, "trial": 40, "rt": 1125, "response": "Gamma"}, "41": {"stimulus": 2155, "trial": 41, "rt": 1036, "response": "Gamma"}, "1": {"stimulus": 874, "trial": 1, "rt": 1831, "response": "Alpha"}, "0": {"stimulus": 1937, "trial": 0, "rt": 6559, "response": "Alpha"}, "3": {"stimulus": 1780, "trial": 3, "rt": 1752, "response": "Alpha"}, "2": {"stimulus": 530, "trial": 2, "rt": 1355, "response": "Alpha"}, "5": {"stimulus": 1562, "trial": 5, "rt": 1838, "response": "Alpha"}, "4": {"stimulus": 687, "trial": 4, "rt": 3294, "response": "Beta"}, "7": {"stimulus": 1593, "trial": 7, "rt": 2978, "response": "Alpha"}, "6": {"stimulus": 2499, "trial": 6, "rt": 4646, "response": "Gamma"}, "9": {"stimulus": 968, "trial": 9, "rt": 1343, "response": "Alpha"}, "8": {"stimulus": 218, "trial": 8, "rt": 2235, "response": "Beta"}, "78": {"stimulus": 2343, "trial": 78, "rt": 1721, "response": "Gamma"}, "51": {"stimulus": 124, "trial": 51, "rt": 1112, "response": "Beta"}, "39": {"stimulus": 593, "trial": 39, "rt": 2262, "response": "Alpha"}, "65": {"stimulus": 1062, "trial": 65, "rt": 938, "response": "Alpha"}, "76": {"stimulus": 468, "trial": 76, "rt": 1135, "response": "Alpha"}, "75": {"stimulus": 1718, "trial": 75, "rt": 1755, "response": "Alpha"}, "38": {"stimulus": 1687, "trial": 38, "rt": 1467, "response": "Alpha"}, "73": {"stimulus": 374, "trial": 73, "rt": 937, "response": "Beta"}, "72": {"stimulus": 187, "trial": 72, "rt": 1040, "response": "Beta"}, "71": {"stimulus": 2062, "trial": 71, "rt": 1106, "response": "Gamma"}, "70": {"stimulus": 1124, "trial": 70, "rt": 940, "response": "Alpha"}, "59": {"stimulus": 2312, "trial": 59, "rt": 906, "response": "Gamma"}, "79": {"stimulus": 2218, "trial": 79, "rt": 975, "response": "Gamma"}, "58": {"stimulus": 749, "trial": 58, "rt": 1066, "response": "Alpha"}, "11": {"stimulus": 1843, "trial": 11, "rt": 2981, "response": "Alpha"}, "10": {"stimulus": 812, "trial": 10, "rt": 2013, "response": "Alpha"}, "13": {"stimulus": 2124, "trial": 13, "rt": 1095, "response": "Gamma"}, "12": {"stimulus": 499, "trial": 12, "rt": 1433, "response": "Beta"}, "15": {"stimulus": 905, "trial": 15, "rt": 2812, "response": "Alpha"}, "14": {"stimulus": 1968, "trial": 14, "rt": 1261, "response": "Gamma"}, "17": {"stimulus": 1812, "trial": 17, "rt": 1794, "response": "Alpha"}, "16": {"stimulus": 249, "trial": 16, "rt": 1629, "response": "Beta"}, "19": {"stimulus": 2468, "trial": 19, "rt": 964, "response": "Gamma"}, "18": {"stimulus": 2030, "trial": 18, "rt": 955, "response": "Gamma"}, "31": {"stimulus": 624, "trial": 31, "rt": 1187, "response": "Alpha"}, "30": {"stimulus": 2093, "trial": 30, "rt": 968, "response": "Gamma"}, "37": {"stimulus": 2374, "trial": 37, "rt": 1033, "response": "Gamma"}, "36": {"stimulus": 2437, "trial": 36, "rt": 1055, "response": "Gamma"}, "35": {"stimulus": 1905, "trial": 35, "rt": 1242, "response": "Gamma"}, "34": {"stimulus": 1624, "trial": 34, "rt": 1009, "response": "Alpha"}, "33": {"stimulus": 1343, "trial": 33, "rt": 1075, "response": "Alpha"}, "55": {"stimulus": 1030, "trial": 55, "rt": 1025, "response": "Alpha"}, "74": {"stimulus": 1405, "trial": 74, "rt": 908, "response": "Alpha"}, "32": {"stimulus": 1499, "trial": 32, "rt": 1139, "response": "Alpha"}, "57": {"stimulus": 780, "trial": 57, "rt": 1332, "response": "Alpha"}, "50": {"stimulus": 718, "trial": 50, "rt": 1713, "response": "Alpha"}}, "experiment": {"Paradigm": "TACL", "Stimuli": "Size-Color Squares", "Experiment": "Generating-Multiple-Categories"}, "submit": {"timeTotal": 351127, "age": "31", "comments": "This was fun. Thank you! :)", "sex": "Female"}}