{"info": {"finish": 1548156965570, "participant": 328, "exposed": true, "lab": false, "start": 1548156303943, "counterbalance": 6, "gentype": 0, "condition": "Row", "browser": {"platform": "Win32", "userAgent": "Mozilla/5.0 (Windows NT 6.1) AppleWebKit/537.36 (KHTML, like Gecko) Chrome/71.0.3578.98 Safari/537.36"}}, "observation": {"11": {"stimulus": 493, "trial": 11, "rt": 6118}, "10": {"stimulus": 612, "trial": 10, "rt": 2444}, "1": {"stimulus": 421, "trial": 1, "rt": 24251}, "0": {"stimulus": 612, "trial": 0, "rt": 10428}, "3": {"stimulus": 493, "trial": 3, "rt": 14296}, "2": {"stimulus": 582, "trial": 2, "rt": 4582}, "5": {"stimulus": 612, "trial": 5, "rt": 4510}, "4": {"stimulus": 582, "trial": 4, "rt": 13717}, "7": {"stimulus": 421, "trial": 7, "rt": 2990}, "6": {"stimulus": 493, "trial": 6, "rt": 2374}, "9": {"stimulus": 582, "trial": 9, "rt": 3336}, "8": {"stimulus": 421, "trial": 8, "rt": 2359}}, "generation": {"1": {"category": "Not-Alpha", "trial": 1, "stimulus": 1512, "rt": 8283}, "0": {"category": "Not-Alpha", "trial": 0, "stimulus": 1464, "rt": 8647}, "3": {"category": "Not-Alpha", "trial": 3, "stimulus": 1360, "rt": 7205}, "2": {"category": "Not-Alpha", "trial": 2, "stimulus": 1411, "rt": 6325}, "5": {"category": "Not-Alpha", "trial": 5, "stimulus": 1313, "rt": 5515}, "4": {"category": "Not-Alpha", "trial": 4, "stimulus": 1163, "rt": 7541}, "7": {"category": "Not-Alpha", "trial": 7, "stimulus": 1262, "rt": 4917}, "6": {"category": "Not-Alpha", "trial": 6, "stimulus": 1213, "rt": 30824}}, "generalization": {"56": {"stimulus": 2062, "trial": 56, "rt": 757, "response": "Beta"}, "77": {"stimulus": 1812, "trial": 77, "rt": 1524, "response": "Beta"}, "54": {"stimulus": 937, "trial": 54, "rt": 1591, "response": "Beta"}, "42": {"stimulus": 2280, "trial": 42, "rt": 845, "response": "Alpha"}, "48": {"stimulus": 1687, "trial": 48, "rt": 1046, "response": "Beta"}, "43": {"stimulus": 1280, "trial": 43, "rt": 726, "response": "Alpha"}, "60": {"stimulus": 1155, "trial": 60, "rt": 967, "response": "Beta"}, "61": {"stimulus": 1499, "trial": 61, "rt": 1071, "response": "Beta"}, "62": {"stimulus": 312, "trial": 62, "rt": 1046, "response": "Beta"}, "63": {"stimulus": 405, "trial": 63, "rt": 909, "response": "Beta"}, "64": {"stimulus": 874, "trial": 64, "rt": 1334, "response": "Alpha"}, "49": {"stimulus": 624, "trial": 49, "rt": 969, "response": "Alpha"}, "66": {"stimulus": 187, "trial": 66, "rt": 1222, "response": "Beta"}, "67": {"stimulus": 687, "trial": 67, "rt": 733, "response": "Beta"}, "68": {"stimulus": 1530, "trial": 68, "rt": 1159, "response": "Alpha"}, "69": {"stimulus": 968, "trial": 69, "rt": 1141, "response": "Alpha"}, "80": {"stimulus": 905, "trial": 80, "rt": 1176, "response": "Beta"}, "52": {"stimulus": 2218, "trial": 52, "rt": 909, "response": "Beta"}, "53": {"stimulus": 62, "trial": 53, "rt": 1005, "response": "Beta"}, "24": {"stimulus": 812, "trial": 24, "rt": 912, "response": "Beta"}, "25": {"stimulus": 124, "trial": 25, "rt": 1252, "response": "Alpha"}, "26": {"stimulus": 499, "trial": 26, "rt": 1765, "response": "Beta"}, "27": {"stimulus": 749, "trial": 27, "rt": 3767, "response": "Beta"}, "20": {"stimulus": 155, "trial": 20, "rt": 1581, "response": "Beta"}, "21": {"stimulus": 2405, "trial": 21, "rt": 1150, "response": "Beta"}, "22": {"stimulus": 437, "trial": 22, "rt": 1470, "response": "Alpha"}, "23": {"stimulus": 562, "trial": 23, "rt": 1278, "response": "Beta"}, "46": {"stimulus": 718, "trial": 46, "rt": 4263, "response": "Alpha"}, "47": {"stimulus": 1624, "trial": 47, "rt": 781, "response": "Alpha"}, "44": {"stimulus": 2093, "trial": 44, "rt": 1038, "response": "Alpha"}, "45": {"stimulus": 1937, "trial": 45, "rt": 839, "response": "Alpha"}, "28": {"stimulus": 1468, "trial": 28, "rt": 2814, "response": "Beta"}, "29": {"stimulus": 93, "trial": 29, "rt": 1302, "response": "Alpha"}, "40": {"stimulus": 2499, "trial": 40, "rt": 1078, "response": "Beta"}, "41": {"stimulus": 1312, "trial": 41, "rt": 1118, "response": "Beta"}, "1": {"stimulus": 2124, "trial": 1, "rt": 2862, "response": "Alpha"}, "0": {"stimulus": 2249, "trial": 0, "rt": 5978, "response": "Beta"}, "3": {"stimulus": 1843, "trial": 3, "rt": 3694, "response": "Beta"}, "2": {"stimulus": 1905, "trial": 2, "rt": 1933, "response": "Beta"}, "5": {"stimulus": 374, "trial": 5, "rt": 1943, "response": "Alpha"}, "4": {"stimulus": 1655, "trial": 4, "rt": 72366, "response": "Beta"}, "7": {"stimulus": 249, "trial": 7, "rt": 1638, "response": "Beta"}, "6": {"stimulus": 843, "trial": 6, "rt": 1678, "response": "Beta"}, "9": {"stimulus": 1999, "trial": 9, "rt": 1079, "response": "Beta"}, "8": {"stimulus": 2312, "trial": 8, "rt": 7774, "response": "Alpha"}, "78": {"stimulus": 2030, "trial": 78, "rt": 1515, "response": "Alpha"}, "51": {"stimulus": 1030, "trial": 51, "rt": 942, "response": "Alpha"}, "39": {"stimulus": 2187, "trial": 39, "rt": 1336, "response": "Alpha"}, "65": {"stimulus": 2374, "trial": 65, "rt": 973, "response": "Alpha"}, "76": {"stimulus": 1062, "trial": 76, "rt": 950, "response": "Beta"}, "75": {"stimulus": 1218, "trial": 75, "rt": 1110, "response": "Alpha"}, "38": {"stimulus": 1718, "trial": 38, "rt": 830, "response": "Beta"}, "73": {"stimulus": 30, "trial": 73, "rt": 2389, "response": "Alpha"}, "72": {"stimulus": 343, "trial": 72, "rt": 1302, "response": "Beta"}, "71": {"stimulus": 2155, "trial": 71, "rt": 1159, "response": "Beta"}, "70": {"stimulus": 2468, "trial": 70, "rt": 1000, "response": "Alpha"}, "59": {"stimulus": 280, "trial": 59, "rt": 1348, "response": "Alpha"}, "79": {"stimulus": 1968, "trial": 79, "rt": 4196, "response": "Alpha"}, "58": {"stimulus": 1437, "trial": 58, "rt": 1543, "response": "Beta"}, "11": {"stimulus": 1374, "trial": 11, "rt": 1230, "response": "Alpha"}, "10": {"stimulus": 593, "trial": 10, "rt": 4406, "response": "Beta"}, "13": {"stimulus": 1593, "trial": 13, "rt": 2708, "response": "Alpha"}, "12": {"stimulus": 1405, "trial": 12, "rt": 1167, "response": "Beta"}, "15": {"stimulus": 1780, "trial": 15, "rt": 1205, "response": "Alpha"}, "14": {"stimulus": 1749, "trial": 14, "rt": 1360, "response": "Alpha"}, "17": {"stimulus": 468, "trial": 17, "rt": 1246, "response": "Beta"}, "16": {"stimulus": 780, "trial": 16, "rt": 943, "response": "Alpha"}, "19": {"stimulus": 2343, "trial": 19, "rt": 50353, "response": "Alpha"}, "18": {"stimulus": 530, "trial": 18, "rt": 1078, "response": "Alpha"}, "31": {"stimulus": 0, "trial": 31, "rt": 1055, "response": "Beta"}, "30": {"stimulus": 1187, "trial": 30, "rt": 1038, "response": "Alpha"}, "37": {"stimulus": 1562, "trial": 37, "rt": 1493, "response": "Beta"}, "36": {"stimulus": 1874, "trial": 36, "rt": 1366, "response": "Alpha"}, "35": {"stimulus": 218, "trial": 35, "rt": 58654, "response": "Alpha"}, "34": {"stimulus": 655, "trial": 34, "rt": 1239, "response": "Beta"}, "33": {"stimulus": 1124, "trial": 33, "rt": 1239, "response": "Alpha"}, "55": {"stimulus": 2437, "trial": 55, "rt": 1375, "response": "Beta"}, "74": {"stimulus": 1343, "trial": 74, "rt": 1469, "response": "Beta"}, "32": {"stimulus": 1093, "trial": 32, "rt": 1669, "response": "Beta"}, "57": {"stimulus": 999, "trial": 57, "rt": 1326, "response": "Beta"}, "50": {"stimulus": 1249, "trial": 50, "rt": 1053, "response": "Beta"}}, "experiment": {"Paradigm": "TACL", "Stimuli": "Size-Color Squares", "Experiment": "Generating-Multiple-Categories"}, "submit": {"timeTotal": 662927, "age": "28", "comments": "", "sex": "FEMALE"}}