{"info": {"finish": 1548158562780, "participant": 334, "exposed": true, "lab": false, "start": 1548157878836, "counterbalance": 5, "gentype": 2, "condition": "XOR", "browser": {"platform": "MacIntel", "userAgent": "Mozilla/5.0 (Macintosh; Intel Mac OS X 10_14_2) AppleWebKit/537.36 (KHTML, like Gecko) Chrome/71.0.3578.98 Safari/537.36"}}, "observation": {"11": {"stimulus": 1890, "trial": 11, "rt": 1476}, "10": {"stimulus": 1479, "trial": 10, "rt": 2471}, "1": {"stimulus": 1890, "trial": 1, "rt": 2011}, "0": {"stimulus": 1479, "trial": 0, "rt": 3071}, "3": {"stimulus": 403, "trial": 3, "rt": 3690}, "2": {"stimulus": 818, "trial": 2, "rt": 2219}, "5": {"stimulus": 818, "trial": 5, "rt": 1607}, "4": {"stimulus": 1890, "trial": 4, "rt": 2350}, "7": {"stimulus": 403, "trial": 7, "rt": 1523}, "6": {"stimulus": 1479, "trial": 6, "rt": 2321}, "9": {"stimulus": 403, "trial": 9, "rt": 1944}, "8": {"stimulus": 818, "trial": 8, "rt": 1729}}, "generation": {"1": {"category": "Beta", "trial": 1, "stimulus": 1020, "rt": 4262}, "0": {"category": "Beta", "trial": 0, "stimulus": 1386, "rt": 5303}, "3": {"category": "Beta", "trial": 3, "stimulus": 1871, "rt": 2757}, "2": {"category": "Beta", "trial": 2, "stimulus": 1674, "rt": 3558}, "5": {"category": "Gamma", "trial": 5, "stimulus": 2219, "rt": 2508}, "4": {"category": "Gamma", "trial": 4, "stimulus": 2020, "rt": 27990}, "7": {"category": "Gamma", "trial": 7, "stimulus": 1732, "rt": 1722}, "6": {"category": "Gamma", "trial": 6, "stimulus": 1979, "rt": 1947}}, "generalization": {"56": {"stimulus": 2280, "trial": 56, "rt": 287, "response": "Beta"}, "77": {"stimulus": 62, "trial": 77, "rt": 212, "response": "Alpha"}, "54": {"stimulus": 1405, "trial": 54, "rt": 136, "response": "Beta"}, "42": {"stimulus": 1499, "trial": 42, "rt": 1148, "response": "Beta"}, "48": {"stimulus": 999, "trial": 48, "rt": 307, "response": "Alpha"}, "43": {"stimulus": 1093, "trial": 43, "rt": 210, "response": "Beta"}, "60": {"stimulus": 2218, "trial": 60, "rt": 289, "response": "Alpha"}, "61": {"stimulus": 312, "trial": 61, "rt": 388, "response": "Alpha"}, "62": {"stimulus": 1968, "trial": 62, "rt": 96, "response": "Alpha"}, "63": {"stimulus": 1468, "trial": 63, "rt": 213, "response": "Alpha"}, "64": {"stimulus": 468, "trial": 64, "rt": 187, "response": "Alpha"}, "49": {"stimulus": 1749, "trial": 49, "rt": 182, "response": "Alpha"}, "66": {"stimulus": 2312, "trial": 66, "rt": 234, "response": "Alpha"}, "67": {"stimulus": 1562, "trial": 67, "rt": 346, "response": "Alpha"}, "68": {"stimulus": 2155, "trial": 68, "rt": 156, "response": "Beta"}, "69": {"stimulus": 874, "trial": 69, "rt": 417, "response": "Beta"}, "80": {"stimulus": 1655, "trial": 80, "rt": 308, "response": "Beta"}, "52": {"stimulus": 2437, "trial": 52, "rt": 101, "response": "Alpha"}, "53": {"stimulus": 1124, "trial": 53, "rt": 319, "response": "Alpha"}, "24": {"stimulus": 562, "trial": 24, "rt": 436, "response": "Alpha"}, "25": {"stimulus": 2374, "trial": 25, "rt": 265, "response": "Alpha"}, "26": {"stimulus": 1062, "trial": 26, "rt": 308, "response": "Alpha"}, "27": {"stimulus": 1843, "trial": 27, "rt": 631, "response": "Beta"}, "20": {"stimulus": 1593, "trial": 20, "rt": 245, "response": "Beta"}, "21": {"stimulus": 1687, "trial": 21, "rt": 1088, "response": "Beta"}, "22": {"stimulus": 749, "trial": 22, "rt": 1988, "response": "Alpha"}, "23": {"stimulus": 968, "trial": 23, "rt": 283, "response": "Alpha"}, "46": {"stimulus": 1218, "trial": 46, "rt": 261, "response": "Alpha"}, "47": {"stimulus": 2343, "trial": 47, "rt": 164, "response": "Alpha"}, "44": {"stimulus": 343, "trial": 44, "rt": 262, "response": "Alpha"}, "45": {"stimulus": 1999, "trial": 45, "rt": 428, "response": "Alpha"}, "28": {"stimulus": 1187, "trial": 28, "rt": 264, "response": "Beta"}, "29": {"stimulus": 687, "trial": 29, "rt": 243, "response": "Beta"}, "40": {"stimulus": 374, "trial": 40, "rt": 210, "response": "Beta"}, "41": {"stimulus": 2093, "trial": 41, "rt": 256, "response": "Beta"}, "1": {"stimulus": 1718, "trial": 1, "rt": 534, "response": "Beta"}, "0": {"stimulus": 1374, "trial": 0, "rt": 32591, "response": "Alpha"}, "3": {"stimulus": 624, "trial": 3, "rt": 144, "response": "Gamma"}, "2": {"stimulus": 1280, "trial": 2, "rt": 1733, "response": "Beta"}, "5": {"stimulus": 593, "trial": 5, "rt": 2225, "response": "Alpha"}, "4": {"stimulus": 1030, "trial": 4, "rt": 577, "response": "Beta"}, "7": {"stimulus": 812, "trial": 7, "rt": 2885, "response": "Alpha"}, "6": {"stimulus": 1249, "trial": 6, "rt": 213, "response": "Beta"}, "9": {"stimulus": 1530, "trial": 9, "rt": 282, "response": "Beta"}, "8": {"stimulus": 905, "trial": 8, "rt": 211, "response": "Alpha"}, "78": {"stimulus": 1812, "trial": 78, "rt": 309, "response": "Alpha"}, "51": {"stimulus": 2124, "trial": 51, "rt": 253, "response": "Alpha"}, "39": {"stimulus": 2249, "trial": 39, "rt": 193, "response": "Beta"}, "65": {"stimulus": 0, "trial": 65, "rt": 242, "response": "Alpha"}, "76": {"stimulus": 499, "trial": 76, "rt": 232, "response": "Alpha"}, "75": {"stimulus": 1343, "trial": 75, "rt": 229, "response": "Alpha"}, "38": {"stimulus": 1874, "trial": 38, "rt": 216, "response": "Beta"}, "73": {"stimulus": 1905, "trial": 73, "rt": 263, "response": "Alpha"}, "72": {"stimulus": 1624, "trial": 72, "rt": 258, "response": "Alpha"}, "71": {"stimulus": 2405, "trial": 71, "rt": 246, "response": "Alpha"}, "70": {"stimulus": 93, "trial": 70, "rt": 305, "response": "Beta"}, "59": {"stimulus": 1312, "trial": 59, "rt": 247, "response": "Alpha"}, "79": {"stimulus": 249, "trial": 79, "rt": 811, "response": "Beta"}, "58": {"stimulus": 1155, "trial": 58, "rt": 267, "response": "Alpha"}, "11": {"stimulus": 218, "trial": 11, "rt": 1957, "response": "Alpha"}, "10": {"stimulus": 780, "trial": 10, "rt": 248, "response": "Beta"}, "13": {"stimulus": 937, "trial": 13, "rt": 134, "response": "Alpha"}, "12": {"stimulus": 530, "trial": 12, "rt": 116, "response": "Alpha"}, "15": {"stimulus": 30, "trial": 15, "rt": 472, "response": "Beta"}, "14": {"stimulus": 2062, "trial": 14, "rt": 316, "response": "Beta"}, "17": {"stimulus": 2499, "trial": 17, "rt": 2684, "response": "Beta"}, "16": {"stimulus": 2468, "trial": 16, "rt": 123, "response": "Beta"}, "19": {"stimulus": 2030, "trial": 19, "rt": 279, "response": "Beta"}, "18": {"stimulus": 1437, "trial": 18, "rt": 241, "response": "Beta"}, "31": {"stimulus": 843, "trial": 31, "rt": 181, "response": "Beta"}, "30": {"stimulus": 437, "trial": 30, "rt": 291, "response": "Beta"}, "37": {"stimulus": 2187, "trial": 37, "rt": 312, "response": "Beta"}, "36": {"stimulus": 155, "trial": 36, "rt": 241, "response": "Alpha"}, "35": {"stimulus": 405, "trial": 35, "rt": 233, "response": "Alpha"}, "34": {"stimulus": 124, "trial": 34, "rt": 196, "response": "Alpha"}, "33": {"stimulus": 1937, "trial": 33, "rt": 202, "response": "Alpha"}, "55": {"stimulus": 187, "trial": 55, "rt": 294, "response": "Alpha"}, "74": {"stimulus": 1780, "trial": 74, "rt": 269, "response": "Alpha"}, "32": {"stimulus": 280, "trial": 32, "rt": 215, "response": "Alpha"}, "57": {"stimulus": 718, "trial": 57, "rt": 271, "response": "Alpha"}, "50": {"stimulus": 655, "trial": 50, "rt": 188, "response": "Alpha"}}, "experiment": {"Paradigm": "TACL", "Stimuli": "Size-Color Squares", "Experiment": "Generating-Multiple-Categories"}, "submit": {"timeTotal": 684096, "age": "29", "comments": "Cool Study!", "sex": "Male"}}