{"info": {"finish": 1548162356445, "participant": 338, "exposed": true, "lab": false, "start": 1548162063597, "counterbalance": 2, "gentype": 2, "condition": "Cluster", "browser": {"platform": "MacIntel", "userAgent": "Mozilla/5.0 (Macintosh; Intel Mac OS X 10_14_2) AppleWebKit/537.36 (KHTML, like Gecko) Chrome/71.0.3578.98 Safari/537.36"}}, "observation": {"11": {"stimulus": 1093, "trial": 11, "rt": 2415}, "10": {"stimulus": 583, "trial": 10, "rt": 18491}, "1": {"stimulus": 583, "trial": 1, "rt": 3199}, "0": {"stimulus": 1093, "trial": 0, "rt": 5428}, "3": {"stimulus": 1083, "trial": 3, "rt": 3369}, "2": {"stimulus": 392, "trial": 2, "rt": 4280}, "5": {"stimulus": 392, "trial": 5, "rt": 5185}, "4": {"stimulus": 583, "trial": 4, "rt": 9259}, "7": {"stimulus": 1093, "trial": 7, "rt": 7249}, "6": {"stimulus": 1083, "trial": 6, "rt": 5618}, "9": {"stimulus": 392, "trial": 9, "rt": 1300}, "8": {"stimulus": 1083, "trial": 8, "rt": 6587}}, "generation": {"1": {"category": "Beta", "trial": 1, "stimulus": 1569, "rt": 5512}, "0": {"category": "Beta", "trial": 0, "stimulus": 575, "rt": 5681}, "3": {"category": "Beta", "trial": 3, "stimulus": 1575, "rt": 2644}, "2": {"category": "Beta", "trial": 2, "stimulus": 1385, "rt": 3037}, "5": {"category": "Gamma", "trial": 5, "stimulus": 1527, "rt": 2194}, "4": {"category": "Gamma", "trial": 4, "stimulus": 1532, "rt": 4365}, "7": {"category": "Gamma", "trial": 7, "stimulus": 1378, "rt": 2554}, "6": {"category": "Gamma", "trial": 6, "stimulus": 1726, "rt": 2194}}, "generalization": {"56": {"stimulus": 468, "trial": 56, "rt": 461, "response": "Alpha"}, "77": {"stimulus": 1780, "trial": 77, "rt": 259, "response": "Alpha"}, "54": {"stimulus": 1812, "trial": 54, "rt": 1293, "response": "Alpha"}, "42": {"stimulus": 2343, "trial": 42, "rt": 168, "response": "Alpha"}, "48": {"stimulus": 1968, "trial": 48, "rt": 461, "response": "Beta"}, "43": {"stimulus": 1687, "trial": 43, "rt": 247, "response": "Alpha"}, "60": {"stimulus": 2124, "trial": 60, "rt": 390, "response": "Beta"}, "61": {"stimulus": 312, "trial": 61, "rt": 731, "response": "Beta"}, "62": {"stimulus": 1093, "trial": 62, "rt": 201, "response": "Beta"}, "63": {"stimulus": 499, "trial": 63, "rt": 415, "response": "Beta"}, "64": {"stimulus": 905, "trial": 64, "rt": 617, "response": "Beta"}, "49": {"stimulus": 1562, "trial": 49, "rt": 325, "response": "Beta"}, "66": {"stimulus": 562, "trial": 66, "rt": 447, "response": "Beta"}, "67": {"stimulus": 0, "trial": 67, "rt": 1114, "response": "Gamma"}, "68": {"stimulus": 1062, "trial": 68, "rt": 2170, "response": "Gamma"}, "69": {"stimulus": 1405, "trial": 69, "rt": 832, "response": "Beta"}, "80": {"stimulus": 218, "trial": 80, "rt": 280, "response": "Alpha"}, "52": {"stimulus": 843, "trial": 52, "rt": 202, "response": "Alpha"}, "53": {"stimulus": 374, "trial": 53, "rt": 270, "response": "Alpha"}, "24": {"stimulus": 93, "trial": 24, "rt": 360, "response": "Beta"}, "25": {"stimulus": 1280, "trial": 25, "rt": 854, "response": "Beta"}, "26": {"stimulus": 780, "trial": 26, "rt": 314, "response": "Beta"}, "27": {"stimulus": 655, "trial": 27, "rt": 424, "response": "Beta"}, "20": {"stimulus": 1437, "trial": 20, "rt": 1091, "response": "Beta"}, "21": {"stimulus": 1655, "trial": 21, "rt": 730, "response": "Beta"}, "22": {"stimulus": 1343, "trial": 22, "rt": 831, "response": "Beta"}, "23": {"stimulus": 2468, "trial": 23, "rt": 2304, "response": "Beta"}, "46": {"stimulus": 1155, "trial": 46, "rt": 190, "response": "Beta"}, "47": {"stimulus": 1593, "trial": 47, "rt": 312, "response": "Beta"}, "44": {"stimulus": 2280, "trial": 44, "rt": 1258, "response": "Beta"}, "45": {"stimulus": 1030, "trial": 45, "rt": 235, "response": "Beta"}, "28": {"stimulus": 1312, "trial": 28, "rt": 865, "response": "Beta"}, "29": {"stimulus": 187, "trial": 29, "rt": 1325, "response": "Beta"}, "40": {"stimulus": 1624, "trial": 40, "rt": 384, "response": "Alpha"}, "41": {"stimulus": 1749, "trial": 41, "rt": 540, "response": "Alpha"}, "1": {"stimulus": 343, "trial": 1, "rt": 203, "response": "Alpha"}, "0": {"stimulus": 155, "trial": 0, "rt": 1100, "response": "Alpha"}, "3": {"stimulus": 2405, "trial": 3, "rt": 839, "response": "Alpha"}, "2": {"stimulus": 249, "trial": 2, "rt": 992, "response": "Alpha"}, "5": {"stimulus": 280, "trial": 5, "rt": 156, "response": "Alpha"}, "4": {"stimulus": 2155, "trial": 4, "rt": 1565, "response": "Alpha"}, "7": {"stimulus": 2030, "trial": 7, "rt": 765, "response": "Alpha"}, "6": {"stimulus": 2312, "trial": 6, "rt": 279, "response": "Alpha"}, "9": {"stimulus": 2374, "trial": 9, "rt": 594, "response": "Alpha"}, "8": {"stimulus": 1124, "trial": 8, "rt": 3128, "response": "Alpha"}, "78": {"stimulus": 1468, "trial": 78, "rt": 327, "response": "Alpha"}, "51": {"stimulus": 2187, "trial": 51, "rt": 348, "response": "Alpha"}, "39": {"stimulus": 874, "trial": 39, "rt": 529, "response": "Alpha"}, "65": {"stimulus": 1249, "trial": 65, "rt": 315, "response": "Beta"}, "76": {"stimulus": 1905, "trial": 76, "rt": 1103, "response": "Alpha"}, "75": {"stimulus": 1874, "trial": 75, "rt": 315, "response": "Alpha"}, "38": {"stimulus": 2499, "trial": 38, "rt": 968, "response": "Alpha"}, "73": {"stimulus": 2218, "trial": 73, "rt": 470, "response": "Alpha"}, "72": {"stimulus": 937, "trial": 72, "rt": 1113, "response": "Alpha"}, "71": {"stimulus": 2437, "trial": 71, "rt": 382, "response": "Alpha"}, "70": {"stimulus": 62, "trial": 70, "rt": 766, "response": "Alpha"}, "59": {"stimulus": 1218, "trial": 59, "rt": 459, "response": "Beta"}, "79": {"stimulus": 2093, "trial": 79, "rt": 371, "response": "Alpha"}, "58": {"stimulus": 1187, "trial": 58, "rt": 379, "response": "Beta"}, "11": {"stimulus": 1937, "trial": 11, "rt": 291, "response": "Beta"}, "10": {"stimulus": 749, "trial": 10, "rt": 349, "response": "Alpha"}, "13": {"stimulus": 624, "trial": 13, "rt": 1046, "response": "Beta"}, "12": {"stimulus": 124, "trial": 12, "rt": 167, "response": "Beta"}, "15": {"stimulus": 1718, "trial": 15, "rt": 328, "response": "Beta"}, "14": {"stimulus": 405, "trial": 14, "rt": 619, "response": "Beta"}, "17": {"stimulus": 812, "trial": 17, "rt": 529, "response": "Gamma"}, "16": {"stimulus": 718, "trial": 16, "rt": 439, "response": "Gamma"}, "19": {"stimulus": 1374, "trial": 19, "rt": 225, "response": "Gamma"}, "18": {"stimulus": 687, "trial": 18, "rt": 212, "response": "Gamma"}, "31": {"stimulus": 1499, "trial": 31, "rt": 350, "response": "Beta"}, "30": {"stimulus": 999, "trial": 30, "rt": 280, "response": "Beta"}, "37": {"stimulus": 2249, "trial": 37, "rt": 315, "response": "Beta"}, "36": {"stimulus": 530, "trial": 36, "rt": 370, "response": "Beta"}, "35": {"stimulus": 593, "trial": 35, "rt": 1845, "response": "Beta"}, "34": {"stimulus": 968, "trial": 34, "rt": 280, "response": "Beta"}, "33": {"stimulus": 30, "trial": 33, "rt": 1022, "response": "Beta"}, "55": {"stimulus": 1843, "trial": 55, "rt": 1069, "response": "Alpha"}, "74": {"stimulus": 437, "trial": 74, "rt": 427, "response": "Alpha"}, "32": {"stimulus": 2062, "trial": 32, "rt": 450, "response": "Beta"}, "57": {"stimulus": 1530, "trial": 57, "rt": 180, "response": "Beta"}, "50": {"stimulus": 1999, "trial": 50, "rt": 416, "response": "Alpha"}}, "experiment": {"Paradigm": "TACL", "Stimuli": "Size-Color Squares", "Experiment": "Generating-Multiple-Categories"}, "submit": {"timeTotal": 293126, "age": "29", "comments": "", "sex": "Female"}}