{"info": {"finish": 1548163354442, "participant": 346, "exposed": true, "lab": false, "start": 1548163117488, "counterbalance": 4, "gentype": 1, "condition": "Cluster", "browser": {"platform": "Win32", "userAgent": "Mozilla/5.0 (Windows NT 6.1; Win64; x64; rv:64.0) Gecko/20100101 Firefox/64.0"}}, "observation": {"11": {"stimulus": 583, "trial": 11, "rt": 1753}, "10": {"stimulus": 1083, "trial": 10, "rt": 1391}, "1": {"stimulus": 1093, "trial": 1, "rt": 1759}, "0": {"stimulus": 1083, "trial": 0, "rt": 2388}, "3": {"stimulus": 583, "trial": 3, "rt": 1566}, "2": {"stimulus": 392, "trial": 2, "rt": 1303}, "5": {"stimulus": 1083, "trial": 5, "rt": 1454}, "4": {"stimulus": 1093, "trial": 4, "rt": 1415}, "7": {"stimulus": 392, "trial": 7, "rt": 1383}, "6": {"stimulus": 583, "trial": 6, "rt": 1423}, "9": {"stimulus": 1093, "trial": 9, "rt": 1519}, "8": {"stimulus": 392, "trial": 8, "rt": 1384}}, "generation": {"1": {"category": "Beta", "trial": 1, "stimulus": 2466, "rt": 4958}, "0": {"category": "Beta", "trial": 0, "stimulus": 2450, "rt": 6614}, "3": {"category": "Beta", "trial": 3, "stimulus": 250, "rt": 2479}, "2": {"category": "Beta", "trial": 2, "stimulus": 2475, "rt": 3638}, "5": {"category": "Beta", "trial": 5, "stimulus": 1255, "rt": 2248}, "4": {"category": "Beta", "trial": 4, "stimulus": 855, "rt": 2285}, "7": {"category": "Beta", "trial": 7, "stimulus": 0, "rt": 3063}, "6": {"category": "Beta", "trial": 6, "stimulus": 1905, "rt": 2511}}, "generalization": {"56": {"stimulus": 1780, "trial": 56, "rt": 728, "response": "Alpha"}, "77": {"stimulus": 1593, "trial": 77, "rt": 671, "response": "Alpha"}, "54": {"stimulus": 1030, "trial": 54, "rt": 622, "response": "Alpha"}, "42": {"stimulus": 1749, "trial": 42, "rt": 751, "response": "Alpha"}, "48": {"stimulus": 968, "trial": 48, "rt": 702, "response": "Beta"}, "43": {"stimulus": 1687, "trial": 43, "rt": 535, "response": "Alpha"}, "60": {"stimulus": 2374, "trial": 60, "rt": 606, "response": "Beta"}, "61": {"stimulus": 280, "trial": 61, "rt": 671, "response": "Alpha"}, "62": {"stimulus": 2187, "trial": 62, "rt": 524, "response": "Alpha"}, "63": {"stimulus": 249, "trial": 63, "rt": 461, "response": "Alpha"}, "64": {"stimulus": 2124, "trial": 64, "rt": 688, "response": "Alpha"}, "49": {"stimulus": 1624, "trial": 49, "rt": 679, "response": "Beta"}, "66": {"stimulus": 718, "trial": 66, "rt": 663, "response": "Beta"}, "67": {"stimulus": 1437, "trial": 67, "rt": 654, "response": "Alpha"}, "68": {"stimulus": 1468, "trial": 68, "rt": 679, "response": "Beta"}, "69": {"stimulus": 624, "trial": 69, "rt": 991, "response": "Beta"}, "80": {"stimulus": 999, "trial": 80, "rt": 704, "response": "Alpha"}, "52": {"stimulus": 468, "trial": 52, "rt": 702, "response": "Beta"}, "53": {"stimulus": 1968, "trial": 53, "rt": 487, "response": "Beta"}, "24": {"stimulus": 1187, "trial": 24, "rt": 527, "response": "Alpha"}, "25": {"stimulus": 0, "trial": 25, "rt": 518, "response": "Beta"}, "26": {"stimulus": 1155, "trial": 26, "rt": 656, "response": "Beta"}, "27": {"stimulus": 93, "trial": 27, "rt": 686, "response": "Alpha"}, "20": {"stimulus": 593, "trial": 20, "rt": 469, "response": "Alpha"}, "21": {"stimulus": 812, "trial": 21, "rt": 702, "response": "Beta"}, "22": {"stimulus": 1999, "trial": 22, "rt": 966, "response": "Alpha"}, "23": {"stimulus": 530, "trial": 23, "rt": 751, "response": "Alpha"}, "46": {"stimulus": 1499, "trial": 46, "rt": 439, "response": "Alpha"}, "47": {"stimulus": 562, "trial": 47, "rt": 695, "response": "Beta"}, "44": {"stimulus": 499, "trial": 44, "rt": 495, "response": "Alpha"}, "45": {"stimulus": 1093, "trial": 45, "rt": 423, "response": "Alpha"}, "28": {"stimulus": 1405, "trial": 28, "rt": 663, "response": "Beta"}, "29": {"stimulus": 749, "trial": 29, "rt": 582, "response": "Alpha"}, "40": {"stimulus": 2437, "trial": 40, "rt": 711, "response": "Alpha"}, "41": {"stimulus": 2249, "trial": 41, "rt": 559, "response": "Alpha"}, "1": {"stimulus": 1530, "trial": 1, "rt": 632, "response": "Alpha"}, "0": {"stimulus": 30, "trial": 0, "rt": 742, "response": "Alpha"}, "3": {"stimulus": 124, "trial": 3, "rt": 583, "response": "Alpha"}, "2": {"stimulus": 155, "trial": 2, "rt": 638, "response": "Beta"}, "5": {"stimulus": 687, "trial": 5, "rt": 511, "response": "Alpha"}, "4": {"stimulus": 1874, "trial": 4, "rt": 759, "response": "Alpha"}, "7": {"stimulus": 62, "trial": 7, "rt": 646, "response": "Beta"}, "6": {"stimulus": 374, "trial": 6, "rt": 647, "response": "Alpha"}, "9": {"stimulus": 2030, "trial": 9, "rt": 687, "response": "Alpha"}, "8": {"stimulus": 2405, "trial": 8, "rt": 470, "response": "Beta"}, "78": {"stimulus": 343, "trial": 78, "rt": 616, "response": "Alpha"}, "51": {"stimulus": 1062, "trial": 51, "rt": 584, "response": "Beta"}, "39": {"stimulus": 2312, "trial": 39, "rt": 648, "response": "Beta"}, "65": {"stimulus": 2155, "trial": 65, "rt": 743, "response": "Beta"}, "76": {"stimulus": 1905, "trial": 76, "rt": 647, "response": "Beta"}, "75": {"stimulus": 843, "trial": 75, "rt": 460, "response": "Alpha"}, "38": {"stimulus": 1280, "trial": 38, "rt": 927, "response": "Alpha"}, "73": {"stimulus": 218, "trial": 73, "rt": 1008, "response": "Beta"}, "72": {"stimulus": 2062, "trial": 72, "rt": 677, "response": "Beta"}, "71": {"stimulus": 2499, "trial": 71, "rt": 655, "response": "Alpha"}, "70": {"stimulus": 905, "trial": 70, "rt": 456, "response": "Beta"}, "59": {"stimulus": 655, "trial": 59, "rt": 495, "response": "Beta"}, "79": {"stimulus": 405, "trial": 79, "rt": 590, "response": "Beta"}, "58": {"stimulus": 312, "trial": 58, "rt": 567, "response": "Beta"}, "11": {"stimulus": 2280, "trial": 11, "rt": 431, "response": "Alpha"}, "10": {"stimulus": 187, "trial": 10, "rt": 471, "response": "Alpha"}, "13": {"stimulus": 1218, "trial": 13, "rt": 1303, "response": "Beta"}, "12": {"stimulus": 2343, "trial": 12, "rt": 423, "response": "Alpha"}, "15": {"stimulus": 1124, "trial": 15, "rt": 1678, "response": "Alpha"}, "14": {"stimulus": 1343, "trial": 14, "rt": 5336, "response": "Alpha"}, "17": {"stimulus": 1374, "trial": 17, "rt": 1095, "response": "Alpha"}, "16": {"stimulus": 1718, "trial": 16, "rt": 671, "response": "Beta"}, "19": {"stimulus": 1937, "trial": 19, "rt": 414, "response": "Alpha"}, "18": {"stimulus": 937, "trial": 18, "rt": 440, "response": "Alpha"}, "31": {"stimulus": 1562, "trial": 31, "rt": 727, "response": "Beta"}, "30": {"stimulus": 2093, "trial": 30, "rt": 526, "response": "Alpha"}, "37": {"stimulus": 1249, "trial": 37, "rt": 647, "response": "Alpha"}, "36": {"stimulus": 1312, "trial": 36, "rt": 679, "response": "Beta"}, "35": {"stimulus": 780, "trial": 35, "rt": 727, "response": "Alpha"}, "34": {"stimulus": 1812, "trial": 34, "rt": 623, "response": "Beta"}, "33": {"stimulus": 1655, "trial": 33, "rt": 484, "response": "Alpha"}, "55": {"stimulus": 874, "trial": 55, "rt": 615, "response": "Alpha"}, "74": {"stimulus": 437, "trial": 74, "rt": 647, "response": "Alpha"}, "32": {"stimulus": 1843, "trial": 32, "rt": 608, "response": "Alpha"}, "57": {"stimulus": 2218, "trial": 57, "rt": 879, "response": "Beta"}, "50": {"stimulus": 2468, "trial": 50, "rt": 807, "response": "Beta"}}, "experiment": {"Paradigm": "TACL", "Stimuli": "Size-Color Squares", "Experiment": "Generating-Multiple-Categories"}, "submit": {"timeTotal": 237308, "age": "26", "comments": "It was different, kind of fun", "sex": "Male"}}