{"info": {"finish": 1548170369707, "participant": 356, "exposed": true, "lab": false, "start": 1548170044643, "counterbalance": 3, "gentype": 1, "condition": "Row", "browser": {"platform": "Win32", "userAgent": "Mozilla/5.0 (Windows NT 10.0; Win64; x64) AppleWebKit/537.36 (KHTML, like Gecko) Chrome/71.0.3578.98 Safari/537.36"}}, "observation": {"11": {"stimulus": 612, "trial": 11, "rt": 1397}, "10": {"stimulus": 582, "trial": 10, "rt": 2904}, "1": {"stimulus": 612, "trial": 1, "rt": 1869}, "0": {"stimulus": 421, "trial": 0, "rt": 2291}, "3": {"stimulus": 582, "trial": 3, "rt": 1656}, "2": {"stimulus": 493, "trial": 2, "rt": 1749}, "5": {"stimulus": 582, "trial": 5, "rt": 1443}, "4": {"stimulus": 421, "trial": 4, "rt": 1521}, "7": {"stimulus": 493, "trial": 7, "rt": 1571}, "6": {"stimulus": 612, "trial": 6, "rt": 1657}, "9": {"stimulus": 493, "trial": 9, "rt": 1263}, "8": {"stimulus": 421, "trial": 8, "rt": 1416}}, "generation": {"1": {"category": "Beta", "trial": 1, "stimulus": 2459, "rt": 13864}, "0": {"category": "Beta", "trial": 0, "stimulus": 2451, "rt": 20606}, "3": {"category": "Beta", "trial": 3, "stimulus": 2471, "rt": 6407}, "2": {"category": "Beta", "trial": 2, "stimulus": 2464, "rt": 10165}, "5": {"category": "Beta", "trial": 5, "stimulus": 2481, "rt": 6854}, "4": {"category": "Beta", "trial": 4, "stimulus": 2476, "rt": 8255}, "7": {"category": "Beta", "trial": 7, "stimulus": 2494, "rt": 4422}, "6": {"category": "Beta", "trial": 6, "stimulus": 2487, "rt": 5470}}, "generalization": {"56": {"stimulus": 2062, "trial": 56, "rt": 632, "response": "Beta"}, "77": {"stimulus": 1187, "trial": 77, "rt": 840, "response": "Beta"}, "54": {"stimulus": 155, "trial": 54, "rt": 1099, "response": "Alpha"}, "42": {"stimulus": 343, "trial": 42, "rt": 1176, "response": "Alpha"}, "48": {"stimulus": 1812, "trial": 48, "rt": 569, "response": "Beta"}, "43": {"stimulus": 1499, "trial": 43, "rt": 673, "response": "Beta"}, "60": {"stimulus": 468, "trial": 60, "rt": 765, "response": "Beta"}, "61": {"stimulus": 593, "trial": 61, "rt": 478, "response": "Beta"}, "62": {"stimulus": 1249, "trial": 62, "rt": 451, "response": "Beta"}, "63": {"stimulus": 2030, "trial": 63, "rt": 529, "response": "Beta"}, "64": {"stimulus": 2218, "trial": 64, "rt": 472, "response": "Beta"}, "49": {"stimulus": 405, "trial": 49, "rt": 1444, "response": "Beta"}, "66": {"stimulus": 1405, "trial": 66, "rt": 509, "response": "Beta"}, "67": {"stimulus": 1687, "trial": 67, "rt": 695, "response": "Beta"}, "68": {"stimulus": 30, "trial": 68, "rt": 1334, "response": "Alpha"}, "69": {"stimulus": 1030, "trial": 69, "rt": 1133, "response": "Beta"}, "80": {"stimulus": 218, "trial": 80, "rt": 1060, "response": "Alpha"}, "52": {"stimulus": 249, "trial": 52, "rt": 910, "response": "Alpha"}, "53": {"stimulus": 2343, "trial": 53, "rt": 599, "response": "Beta"}, "24": {"stimulus": 1718, "trial": 24, "rt": 844, "response": "Beta"}, "25": {"stimulus": 1343, "trial": 25, "rt": 2012, "response": "Beta"}, "26": {"stimulus": 1062, "trial": 26, "rt": 2879, "response": "Beta"}, "27": {"stimulus": 1312, "trial": 27, "rt": 928, "response": "Beta"}, "20": {"stimulus": 280, "trial": 20, "rt": 1147, "response": "Alpha"}, "21": {"stimulus": 437, "trial": 21, "rt": 870, "response": "Alpha"}, "22": {"stimulus": 1218, "trial": 22, "rt": 2395, "response": "Beta"}, "23": {"stimulus": 749, "trial": 23, "rt": 1094, "response": "Alpha"}, "46": {"stimulus": 2437, "trial": 46, "rt": 551, "response": "Beta"}, "47": {"stimulus": 968, "trial": 47, "rt": 821, "response": "Beta"}, "44": {"stimulus": 374, "trial": 44, "rt": 4164, "response": "Alpha"}, "45": {"stimulus": 1374, "trial": 45, "rt": 625, "response": "Beta"}, "28": {"stimulus": 2405, "trial": 28, "rt": 1248, "response": "Beta"}, "29": {"stimulus": 999, "trial": 29, "rt": 2432, "response": "Beta"}, "40": {"stimulus": 1749, "trial": 40, "rt": 1468, "response": "Beta"}, "41": {"stimulus": 1780, "trial": 41, "rt": 656, "response": "Beta"}, "1": {"stimulus": 0, "trial": 1, "rt": 834, "response": "Alpha"}, "0": {"stimulus": 1905, "trial": 0, "rt": 3096, "response": "Beta"}, "3": {"stimulus": 1124, "trial": 3, "rt": 1157, "response": "Alpha"}, "2": {"stimulus": 499, "trial": 2, "rt": 2240, "response": "Alpha"}, "5": {"stimulus": 843, "trial": 5, "rt": 962, "response": "Alpha"}, "4": {"stimulus": 1999, "trial": 4, "rt": 922, "response": "Alpha"}, "7": {"stimulus": 1280, "trial": 7, "rt": 1468, "response": "Beta"}, "6": {"stimulus": 1874, "trial": 6, "rt": 532, "response": "Beta"}, "9": {"stimulus": 1843, "trial": 9, "rt": 933, "response": "Beta"}, "8": {"stimulus": 1655, "trial": 8, "rt": 1595, "response": "Beta"}, "78": {"stimulus": 530, "trial": 78, "rt": 968, "response": "Alpha"}, "51": {"stimulus": 93, "trial": 51, "rt": 920, "response": "Alpha"}, "39": {"stimulus": 2374, "trial": 39, "rt": 684, "response": "Beta"}, "65": {"stimulus": 2124, "trial": 65, "rt": 454, "response": "Beta"}, "76": {"stimulus": 1968, "trial": 76, "rt": 551, "response": "Beta"}, "75": {"stimulus": 2499, "trial": 75, "rt": 823, "response": "Beta"}, "38": {"stimulus": 124, "trial": 38, "rt": 988, "response": "Alpha"}, "73": {"stimulus": 1624, "trial": 73, "rt": 690, "response": "Beta"}, "72": {"stimulus": 812, "trial": 72, "rt": 800, "response": "Beta"}, "71": {"stimulus": 2312, "trial": 71, "rt": 615, "response": "Beta"}, "70": {"stimulus": 2280, "trial": 70, "rt": 542, "response": "Beta"}, "59": {"stimulus": 1437, "trial": 59, "rt": 568, "response": "Beta"}, "79": {"stimulus": 2249, "trial": 79, "rt": 434, "response": "Beta"}, "58": {"stimulus": 624, "trial": 58, "rt": 622, "response": "Beta"}, "11": {"stimulus": 2187, "trial": 11, "rt": 796, "response": "Beta"}, "10": {"stimulus": 1468, "trial": 10, "rt": 735, "response": "Beta"}, "13": {"stimulus": 562, "trial": 13, "rt": 978, "response": "Alpha"}, "12": {"stimulus": 2155, "trial": 12, "rt": 1090, "response": "Beta"}, "15": {"stimulus": 780, "trial": 15, "rt": 1647, "response": "Alpha"}, "14": {"stimulus": 1530, "trial": 14, "rt": 1287, "response": "Beta"}, "17": {"stimulus": 874, "trial": 17, "rt": 888, "response": "Alpha"}, "16": {"stimulus": 718, "trial": 16, "rt": 1041, "response": "Alpha"}, "19": {"stimulus": 1562, "trial": 19, "rt": 1137, "response": "Beta"}, "18": {"stimulus": 62, "trial": 18, "rt": 1569, "response": "Alpha"}, "31": {"stimulus": 1155, "trial": 31, "rt": 893, "response": "Beta"}, "30": {"stimulus": 312, "trial": 30, "rt": 904, "response": "Alpha"}, "37": {"stimulus": 655, "trial": 37, "rt": 787, "response": "Beta"}, "36": {"stimulus": 905, "trial": 36, "rt": 1038, "response": "Beta"}, "35": {"stimulus": 1937, "trial": 35, "rt": 598, "response": "Beta"}, "34": {"stimulus": 187, "trial": 34, "rt": 907, "response": "Alpha"}, "33": {"stimulus": 687, "trial": 33, "rt": 2235, "response": "Beta"}, "55": {"stimulus": 1093, "trial": 55, "rt": 575, "response": "Beta"}, "74": {"stimulus": 1593, "trial": 74, "rt": 621, "response": "Beta"}, "32": {"stimulus": 2093, "trial": 32, "rt": 751, "response": "Beta"}, "57": {"stimulus": 937, "trial": 57, "rt": 886, "response": "Beta"}, "50": {"stimulus": 2468, "trial": 50, "rt": 470, "response": "Beta"}}, "experiment": {"Paradigm": "TACL", "Stimuli": "Size-Color Squares", "Experiment": "Generating-Multiple-Categories"}, "submit": {"timeTotal": 325336, "age": "30", "comments": "", "sex": "Male"}}