{"info": {"finish": 1548172131162, "participant": 364, "exposed": true, "lab": false, "start": 1548171849143, "counterbalance": 6, "gentype": 1, "condition": "XOR", "browser": {"platform": "Win32", "userAgent": "Mozilla/5.0 (Windows NT 6.3; Win64; x64) AppleWebKit/537.36 (KHTML, like Gecko) Chrome/71.0.3578.98 Safari/537.36"}}, "observation": {"11": {"stimulus": 1890, "trial": 11, "rt": 1826}, "10": {"stimulus": 818, "trial": 10, "rt": 1536}, "1": {"stimulus": 1890, "trial": 1, "rt": 1983}, "0": {"stimulus": 403, "trial": 0, "rt": 2188}, "3": {"stimulus": 1479, "trial": 3, "rt": 1875}, "2": {"stimulus": 818, "trial": 2, "rt": 2883}, "5": {"stimulus": 1479, "trial": 5, "rt": 1962}, "4": {"stimulus": 1890, "trial": 4, "rt": 2208}, "7": {"stimulus": 403, "trial": 7, "rt": 1601}, "6": {"stimulus": 818, "trial": 6, "rt": 1780}, "9": {"stimulus": 403, "trial": 9, "rt": 1804}, "8": {"stimulus": 1479, "trial": 8, "rt": 1873}}, "generation": {"1": {"category": "Beta", "trial": 1, "stimulus": 2400, "rt": 8229}, "0": {"category": "Beta", "trial": 0, "stimulus": 2499, "rt": 13141}, "3": {"category": "Beta", "trial": 3, "stimulus": 2398, "rt": 4789}, "2": {"category": "Beta", "trial": 2, "stimulus": 49, "rt": 4415}, "5": {"category": "Beta", "trial": 5, "stimulus": 2199, "rt": 4965}, "4": {"category": "Beta", "trial": 4, "stimulus": 0, "rt": 4660}, "7": {"category": "Beta", "trial": 7, "stimulus": 2455, "rt": 7038}, "6": {"category": "Beta", "trial": 6, "stimulus": 1899, "rt": 7583}}, "generalization": {"56": {"stimulus": 1468, "trial": 56, "rt": 731, "response": "Alpha"}, "77": {"stimulus": 1343, "trial": 77, "rt": 1156, "response": "Alpha"}, "54": {"stimulus": 437, "trial": 54, "rt": 976, "response": "Alpha"}, "42": {"stimulus": 1843, "trial": 42, "rt": 1006, "response": "Alpha"}, "48": {"stimulus": 624, "trial": 48, "rt": 709, "response": "Alpha"}, "43": {"stimulus": 1530, "trial": 43, "rt": 909, "response": "Alpha"}, "60": {"stimulus": 905, "trial": 60, "rt": 663, "response": "Alpha"}, "61": {"stimulus": 1218, "trial": 61, "rt": 791, "response": "Alpha"}, "62": {"stimulus": 1624, "trial": 62, "rt": 755, "response": "Alpha"}, "63": {"stimulus": 1155, "trial": 63, "rt": 965, "response": "Alpha"}, "64": {"stimulus": 780, "trial": 64, "rt": 703, "response": "Alpha"}, "49": {"stimulus": 2468, "trial": 49, "rt": 730, "response": "Beta"}, "66": {"stimulus": 718, "trial": 66, "rt": 675, "response": "Alpha"}, "67": {"stimulus": 2280, "trial": 67, "rt": 723, "response": "Beta"}, "68": {"stimulus": 874, "trial": 68, "rt": 627, "response": "Alpha"}, "69": {"stimulus": 1093, "trial": 69, "rt": 1033, "response": "Alpha"}, "80": {"stimulus": 2249, "trial": 80, "rt": 630, "response": "Beta"}, "52": {"stimulus": 93, "trial": 52, "rt": 1167, "response": "Alpha"}, "53": {"stimulus": 343, "trial": 53, "rt": 894, "response": "Alpha"}, "24": {"stimulus": 2218, "trial": 24, "rt": 802, "response": "Beta"}, "25": {"stimulus": 1374, "trial": 25, "rt": 767, "response": "Alpha"}, "26": {"stimulus": 968, "trial": 26, "rt": 1550, "response": "Alpha"}, "27": {"stimulus": 374, "trial": 27, "rt": 920, "response": "Alpha"}, "20": {"stimulus": 1312, "trial": 20, "rt": 1599, "response": "Alpha"}, "21": {"stimulus": 749, "trial": 21, "rt": 1073, "response": "Alpha"}, "22": {"stimulus": 0, "trial": 22, "rt": 1574, "response": "Beta"}, "23": {"stimulus": 1499, "trial": 23, "rt": 1380, "response": "Alpha"}, "46": {"stimulus": 2343, "trial": 46, "rt": 730, "response": "Beta"}, "47": {"stimulus": 1280, "trial": 47, "rt": 717, "response": "Alpha"}, "44": {"stimulus": 2030, "trial": 44, "rt": 548, "response": "Beta"}, "45": {"stimulus": 312, "trial": 45, "rt": 891, "response": "Alpha"}, "28": {"stimulus": 812, "trial": 28, "rt": 1749, "response": "Alpha"}, "29": {"stimulus": 1999, "trial": 29, "rt": 621, "response": "Beta"}, "40": {"stimulus": 405, "trial": 40, "rt": 755, "response": "Alpha"}, "41": {"stimulus": 1937, "trial": 41, "rt": 1264, "response": "Alpha"}, "1": {"stimulus": 1655, "trial": 1, "rt": 1005, "response": "Alpha"}, "0": {"stimulus": 1593, "trial": 0, "rt": 2350, "response": "Alpha"}, "3": {"stimulus": 280, "trial": 3, "rt": 1054, "response": "Beta"}, "2": {"stimulus": 937, "trial": 2, "rt": 1117, "response": "Alpha"}, "5": {"stimulus": 1749, "trial": 5, "rt": 860, "response": "Beta"}, "4": {"stimulus": 2093, "trial": 4, "rt": 1588, "response": "Alpha"}, "7": {"stimulus": 249, "trial": 7, "rt": 1306, "response": "Alpha"}, "6": {"stimulus": 1812, "trial": 6, "rt": 1204, "response": "Alpha"}, "9": {"stimulus": 2062, "trial": 9, "rt": 808, "response": "Beta"}, "8": {"stimulus": 2405, "trial": 8, "rt": 1201, "response": "Beta"}, "78": {"stimulus": 1968, "trial": 78, "rt": 910, "response": "Beta"}, "51": {"stimulus": 1062, "trial": 51, "rt": 765, "response": "Alpha"}, "39": {"stimulus": 155, "trial": 39, "rt": 1078, "response": "Alpha"}, "65": {"stimulus": 2437, "trial": 65, "rt": 789, "response": "Beta"}, "76": {"stimulus": 655, "trial": 76, "rt": 1055, "response": "Alpha"}, "75": {"stimulus": 843, "trial": 75, "rt": 1364, "response": "Beta"}, "38": {"stimulus": 1562, "trial": 38, "rt": 981, "response": "Alpha"}, "73": {"stimulus": 218, "trial": 73, "rt": 1004, "response": "Alpha"}, "72": {"stimulus": 562, "trial": 72, "rt": 719, "response": "Alpha"}, "71": {"stimulus": 1249, "trial": 71, "rt": 1322, "response": "Beta"}, "70": {"stimulus": 124, "trial": 70, "rt": 831, "response": "Alpha"}, "59": {"stimulus": 1687, "trial": 59, "rt": 1460, "response": "Alpha"}, "79": {"stimulus": 62, "trial": 79, "rt": 1023, "response": "Alpha"}, "58": {"stimulus": 499, "trial": 58, "rt": 1159, "response": "Alpha"}, "11": {"stimulus": 1780, "trial": 11, "rt": 1301, "response": "Alpha"}, "10": {"stimulus": 30, "trial": 10, "rt": 2291, "response": "Alpha"}, "13": {"stimulus": 1405, "trial": 13, "rt": 932, "response": "Alpha"}, "12": {"stimulus": 2124, "trial": 12, "rt": 787, "response": "Beta"}, "15": {"stimulus": 187, "trial": 15, "rt": 2174, "response": "Beta"}, "14": {"stimulus": 1187, "trial": 14, "rt": 811, "response": "Alpha"}, "17": {"stimulus": 2187, "trial": 17, "rt": 755, "response": "Beta"}, "16": {"stimulus": 2155, "trial": 16, "rt": 1767, "response": "Beta"}, "19": {"stimulus": 999, "trial": 19, "rt": 1144, "response": "Alpha"}, "18": {"stimulus": 1437, "trial": 18, "rt": 757, "response": "Alpha"}, "31": {"stimulus": 530, "trial": 31, "rt": 3714, "response": "Alpha"}, "30": {"stimulus": 1030, "trial": 30, "rt": 700, "response": "Alpha"}, "37": {"stimulus": 2499, "trial": 37, "rt": 648, "response": "Beta"}, "36": {"stimulus": 2374, "trial": 36, "rt": 883, "response": "Beta"}, "35": {"stimulus": 593, "trial": 35, "rt": 632, "response": "Alpha"}, "34": {"stimulus": 1874, "trial": 34, "rt": 659, "response": "Beta"}, "33": {"stimulus": 2312, "trial": 33, "rt": 1229, "response": "Beta"}, "55": {"stimulus": 1905, "trial": 55, "rt": 954, "response": "Alpha"}, "74": {"stimulus": 1718, "trial": 74, "rt": 1048, "response": "Alpha"}, "32": {"stimulus": 687, "trial": 32, "rt": 2173, "response": "Alpha"}, "57": {"stimulus": 468, "trial": 57, "rt": 666, "response": "Alpha"}, "50": {"stimulus": 1124, "trial": 50, "rt": 1009, "response": "Alpha"}}, "experiment": {"Paradigm": "TACL", "Stimuli": "Size-Color Squares", "Experiment": "Generating-Multiple-Categories"}, "submit": {"timeTotal": 282231, "age": "33", "comments": "", "sex": "male"}}