{"info": {"finish": 1548179242481, "participant": 379, "exposed": true, "lab": false, "start": 1548179033476, "counterbalance": 0, "gentype": 0, "condition": "Row", "browser": {"platform": "Win32", "userAgent": "Mozilla/5.0 (Windows NT 10.0; Win64; x64) AppleWebKit/537.36 (KHTML, like Gecko) Chrome/71.0.3578.98 Safari/537.36"}}, "observation": {"11": {"stimulus": 421, "trial": 11, "rt": 3999}, "10": {"stimulus": 493, "trial": 10, "rt": 1615}, "1": {"stimulus": 612, "trial": 1, "rt": 1793}, "0": {"stimulus": 421, "trial": 0, "rt": 1838}, "3": {"stimulus": 582, "trial": 3, "rt": 1576}, "2": {"stimulus": 493, "trial": 2, "rt": 1692}, "5": {"stimulus": 493, "trial": 5, "rt": 1747}, "4": {"stimulus": 421, "trial": 4, "rt": 2931}, "7": {"stimulus": 582, "trial": 7, "rt": 1582}, "6": {"stimulus": 612, "trial": 6, "rt": 1761}, "9": {"stimulus": 612, "trial": 9, "rt": 1529}, "8": {"stimulus": 582, "trial": 8, "rt": 4974}}, "generation": {"1": {"category": "Not-Alpha", "trial": 1, "stimulus": 755, "rt": 1396}, "0": {"category": "Not-Alpha", "trial": 0, "stimulus": 266, "rt": 3982}, "3": {"category": "Not-Alpha", "trial": 3, "stimulus": 268, "rt": 4075}, "2": {"category": "Not-Alpha", "trial": 2, "stimulus": 1255, "rt": 1771}, "5": {"category": "Not-Alpha", "trial": 5, "stimulus": 277, "rt": 2024}, "4": {"category": "Not-Alpha", "trial": 4, "stimulus": 281, "rt": 1806}, "7": {"category": "Not-Alpha", "trial": 7, "stimulus": 279, "rt": 1728}, "6": {"category": "Not-Alpha", "trial": 6, "stimulus": 278, "rt": 2302}}, "generalization": {"56": {"stimulus": 1280, "trial": 56, "rt": 253, "response": "Beta"}, "77": {"stimulus": 593, "trial": 77, "rt": 92, "response": "Beta"}, "54": {"stimulus": 874, "trial": 54, "rt": 8065, "response": "Beta"}, "42": {"stimulus": 1093, "trial": 42, "rt": 150, "response": "Beta"}, "48": {"stimulus": 1312, "trial": 48, "rt": 199, "response": "Beta"}, "43": {"stimulus": 0, "trial": 43, "rt": 130, "response": "Beta"}, "60": {"stimulus": 1374, "trial": 60, "rt": 213, "response": "Beta"}, "61": {"stimulus": 499, "trial": 61, "rt": 262, "response": "Beta"}, "62": {"stimulus": 2062, "trial": 62, "rt": 228, "response": "Beta"}, "63": {"stimulus": 2468, "trial": 63, "rt": 23146, "response": "Beta"}, "64": {"stimulus": 1499, "trial": 64, "rt": 260, "response": "Beta"}, "49": {"stimulus": 749, "trial": 49, "rt": 143, "response": "Beta"}, "66": {"stimulus": 2437, "trial": 66, "rt": 105, "response": "Beta"}, "67": {"stimulus": 1968, "trial": 67, "rt": 129, "response": "Beta"}, "68": {"stimulus": 155, "trial": 68, "rt": 138, "response": "Beta"}, "69": {"stimulus": 2218, "trial": 69, "rt": 151, "response": "Beta"}, "80": {"stimulus": 562, "trial": 80, "rt": 190, "response": "Beta"}, "52": {"stimulus": 937, "trial": 52, "rt": 865, "response": "Beta"}, "53": {"stimulus": 2155, "trial": 53, "rt": 244, "response": "Beta"}, "24": {"stimulus": 780, "trial": 24, "rt": 320, "response": "Beta"}, "25": {"stimulus": 530, "trial": 25, "rt": 184, "response": "Beta"}, "26": {"stimulus": 1624, "trial": 26, "rt": 292, "response": "Beta"}, "27": {"stimulus": 1468, "trial": 27, "rt": 128, "response": "Beta"}, "20": {"stimulus": 30, "trial": 20, "rt": 281, "response": "Beta"}, "21": {"stimulus": 2249, "trial": 21, "rt": 167, "response": "Beta"}, "22": {"stimulus": 1218, "trial": 22, "rt": 229, "response": "Beta"}, "23": {"stimulus": 1155, "trial": 23, "rt": 129, "response": "Beta"}, "46": {"stimulus": 1062, "trial": 46, "rt": 141, "response": "Beta"}, "47": {"stimulus": 1655, "trial": 47, "rt": 146, "response": "Beta"}, "44": {"stimulus": 1437, "trial": 44, "rt": 6163, "response": "Beta"}, "45": {"stimulus": 1999, "trial": 45, "rt": 292, "response": "Beta"}, "28": {"stimulus": 2312, "trial": 28, "rt": 439, "response": "Beta"}, "29": {"stimulus": 2093, "trial": 29, "rt": 205, "response": "Beta"}, "40": {"stimulus": 343, "trial": 40, "rt": 113, "response": "Beta"}, "41": {"stimulus": 2374, "trial": 41, "rt": 152, "response": "Beta"}, "1": {"stimulus": 1405, "trial": 1, "rt": 120, "response": "Beta"}, "0": {"stimulus": 2124, "trial": 0, "rt": 2494, "response": "Beta"}, "3": {"stimulus": 312, "trial": 3, "rt": 268, "response": "Beta"}, "2": {"stimulus": 687, "trial": 2, "rt": 262, "response": "Beta"}, "5": {"stimulus": 843, "trial": 5, "rt": 189, "response": "Beta"}, "4": {"stimulus": 437, "trial": 4, "rt": 237, "response": "Beta"}, "7": {"stimulus": 2343, "trial": 7, "rt": 95, "response": "Beta"}, "6": {"stimulus": 968, "trial": 6, "rt": 199, "response": "Beta"}, "9": {"stimulus": 2280, "trial": 9, "rt": 192, "response": "Beta"}, "8": {"stimulus": 812, "trial": 8, "rt": 145, "response": "Beta"}, "78": {"stimulus": 2499, "trial": 78, "rt": 167, "response": "Beta"}, "51": {"stimulus": 1124, "trial": 51, "rt": 229, "response": "Beta"}, "39": {"stimulus": 1687, "trial": 39, "rt": 158, "response": "Beta"}, "65": {"stimulus": 1905, "trial": 65, "rt": 221, "response": "Beta"}, "76": {"stimulus": 374, "trial": 76, "rt": 213, "response": "Beta"}, "75": {"stimulus": 624, "trial": 75, "rt": 121, "response": "Beta"}, "38": {"stimulus": 468, "trial": 38, "rt": 136, "response": "Beta"}, "73": {"stimulus": 2187, "trial": 73, "rt": 150, "response": "Beta"}, "72": {"stimulus": 1780, "trial": 72, "rt": 526, "response": "Beta"}, "71": {"stimulus": 655, "trial": 71, "rt": 158, "response": "Beta"}, "70": {"stimulus": 249, "trial": 70, "rt": 113, "response": "Beta"}, "59": {"stimulus": 405, "trial": 59, "rt": 121, "response": "Beta"}, "79": {"stimulus": 1530, "trial": 79, "rt": 128, "response": "Beta"}, "58": {"stimulus": 218, "trial": 58, "rt": 92, "response": "Beta"}, "11": {"stimulus": 93, "trial": 11, "rt": 353, "response": "Beta"}, "10": {"stimulus": 187, "trial": 10, "rt": 104, "response": "Beta"}, "13": {"stimulus": 1812, "trial": 13, "rt": 182, "response": "Beta"}, "12": {"stimulus": 280, "trial": 12, "rt": 105, "response": "Beta"}, "15": {"stimulus": 2405, "trial": 15, "rt": 208, "response": "Beta"}, "14": {"stimulus": 1937, "trial": 14, "rt": 362, "response": "Beta"}, "17": {"stimulus": 1874, "trial": 17, "rt": 277, "response": "Beta"}, "16": {"stimulus": 1249, "trial": 16, "rt": 228, "response": "Beta"}, "19": {"stimulus": 1749, "trial": 19, "rt": 269, "response": "Beta"}, "18": {"stimulus": 1562, "trial": 18, "rt": 360, "response": "Beta"}, "31": {"stimulus": 1718, "trial": 31, "rt": 198, "response": "Beta"}, "30": {"stimulus": 999, "trial": 30, "rt": 168, "response": "Beta"}, "37": {"stimulus": 1843, "trial": 37, "rt": 112, "response": "Beta"}, "36": {"stimulus": 718, "trial": 36, "rt": 175, "response": "Beta"}, "35": {"stimulus": 2030, "trial": 35, "rt": 216, "response": "Beta"}, "34": {"stimulus": 1593, "trial": 34, "rt": 229, "response": "Beta"}, "33": {"stimulus": 124, "trial": 33, "rt": 292, "response": "Beta"}, "55": {"stimulus": 1030, "trial": 55, "rt": 137, "response": "Beta"}, "74": {"stimulus": 1343, "trial": 74, "rt": 184, "response": "Beta"}, "32": {"stimulus": 905, "trial": 32, "rt": 137, "response": "Beta"}, "57": {"stimulus": 1187, "trial": 57, "rt": 276, "response": "Beta"}, "50": {"stimulus": 62, "trial": 50, "rt": 297, "response": "Beta"}}, "experiment": {"Paradigm": "TACL", "Stimuli": "Size-Color Squares", "Experiment": "Generating-Multiple-Categories"}, "submit": {"timeTotal": 209390, "age": "31", "comments": "", "sex": "m"}}