{"info": {"finish": 1548180235132, "participant": 380, "exposed": true, "lab": false, "start": 1548179788565, "counterbalance": 3, "gentype": 1, "condition": "Cluster", "browser": {"platform": "Win32", "userAgent": "Mozilla/5.0 (Windows NT 10.0; Win64; x64) AppleWebKit/537.36 (KHTML, like Gecko) Chrome/71.0.3578.98 Safari/537.36"}}, "observation": {"11": {"stimulus": 1093, "trial": 11, "rt": 1847}, "10": {"stimulus": 583, "trial": 10, "rt": 2089}, "1": {"stimulus": 583, "trial": 1, "rt": 12299}, "0": {"stimulus": 392, "trial": 0, "rt": 23754}, "3": {"stimulus": 1093, "trial": 3, "rt": 10543}, "2": {"stimulus": 1083, "trial": 2, "rt": 2066}, "5": {"stimulus": 1093, "trial": 5, "rt": 2011}, "4": {"stimulus": 1083, "trial": 4, "rt": 2097}, "7": {"stimulus": 392, "trial": 7, "rt": 12817}, "6": {"stimulus": 583, "trial": 6, "rt": 2159}, "9": {"stimulus": 392, "trial": 9, "rt": 2745}, "8": {"stimulus": 1083, "trial": 8, "rt": 3620}}, "generation": {"1": {"category": "Beta", "trial": 1, "stimulus": 2206, "rt": 15694}, "0": {"category": "Beta", "trial": 0, "stimulus": 2203, "rt": 13811}, "3": {"category": "Beta", "trial": 3, "stimulus": 0, "rt": 4197}, "2": {"category": "Beta", "trial": 2, "stimulus": 2450, "rt": 7326}, "5": {"category": "Beta", "trial": 5, "stimulus": 958, "rt": 6699}, "4": {"category": "Beta", "trial": 4, "stimulus": 157, "rt": 2997}, "7": {"category": "Beta", "trial": 7, "stimulus": 1160, "rt": 6009}, "6": {"category": "Beta", "trial": 6, "stimulus": 1507, "rt": 4597}}, "generalization": {"56": {"stimulus": 0, "trial": 56, "rt": 865, "response": "Beta"}, "77": {"stimulus": 437, "trial": 77, "rt": 4097, "response": "Alpha"}, "54": {"stimulus": 1343, "trial": 54, "rt": 675, "response": "Alpha"}, "42": {"stimulus": 2437, "trial": 42, "rt": 1060, "response": "Alpha"}, "48": {"stimulus": 1624, "trial": 48, "rt": 1484, "response": "Beta"}, "43": {"stimulus": 1874, "trial": 43, "rt": 998, "response": "Alpha"}, "60": {"stimulus": 124, "trial": 60, "rt": 1124, "response": "Alpha"}, "61": {"stimulus": 1155, "trial": 61, "rt": 744, "response": "Beta"}, "62": {"stimulus": 1749, "trial": 62, "rt": 1071, "response": "Alpha"}, "63": {"stimulus": 1405, "trial": 63, "rt": 768, "response": "Beta"}, "64": {"stimulus": 968, "trial": 64, "rt": 864, "response": "Beta"}, "49": {"stimulus": 2030, "trial": 49, "rt": 1016, "response": "Alpha"}, "66": {"stimulus": 280, "trial": 66, "rt": 667, "response": "Alpha"}, "67": {"stimulus": 2280, "trial": 67, "rt": 1062, "response": "Alpha"}, "68": {"stimulus": 1562, "trial": 68, "rt": 873, "response": "Beta"}, "69": {"stimulus": 2312, "trial": 69, "rt": 746, "response": "Beta"}, "80": {"stimulus": 999, "trial": 80, "rt": 770, "response": "Alpha"}, "52": {"stimulus": 1218, "trial": 52, "rt": 1322, "response": "Beta"}, "53": {"stimulus": 905, "trial": 53, "rt": 912, "response": "Beta"}, "24": {"stimulus": 1812, "trial": 24, "rt": 783, "response": "Beta"}, "25": {"stimulus": 1062, "trial": 25, "rt": 976, "response": "Beta"}, "26": {"stimulus": 2374, "trial": 26, "rt": 2042, "response": "Alpha"}, "27": {"stimulus": 1780, "trial": 27, "rt": 1018, "response": "Alpha"}, "20": {"stimulus": 687, "trial": 20, "rt": 903, "response": "Alpha"}, "21": {"stimulus": 1249, "trial": 21, "rt": 937, "response": "Alpha"}, "22": {"stimulus": 2405, "trial": 22, "rt": 761, "response": "Beta"}, "23": {"stimulus": 374, "trial": 23, "rt": 1535, "response": "Alpha"}, "46": {"stimulus": 2249, "trial": 46, "rt": 1044, "response": "Alpha"}, "47": {"stimulus": 218, "trial": 47, "rt": 1219, "response": "Alpha"}, "44": {"stimulus": 2218, "trial": 44, "rt": 1493, "response": "Beta"}, "45": {"stimulus": 562, "trial": 45, "rt": 1243, "response": "Beta"}, "28": {"stimulus": 843, "trial": 28, "rt": 3502, "response": "Alpha"}, "29": {"stimulus": 2062, "trial": 29, "rt": 2824, "response": "Alpha"}, "40": {"stimulus": 1280, "trial": 40, "rt": 856, "response": "Alpha"}, "41": {"stimulus": 1593, "trial": 41, "rt": 1875, "response": "Alpha"}, "1": {"stimulus": 1374, "trial": 1, "rt": 2715, "response": "Alpha"}, "0": {"stimulus": 343, "trial": 0, "rt": 1993, "response": "Alpha"}, "3": {"stimulus": 1968, "trial": 3, "rt": 2379, "response": "Alpha"}, "2": {"stimulus": 655, "trial": 2, "rt": 2713, "response": "Beta"}, "5": {"stimulus": 718, "trial": 5, "rt": 2271, "response": "Alpha"}, "4": {"stimulus": 2499, "trial": 4, "rt": 3986, "response": "Beta"}, "7": {"stimulus": 1437, "trial": 7, "rt": 1565, "response": "Alpha"}, "6": {"stimulus": 30, "trial": 6, "rt": 931, "response": "Alpha"}, "9": {"stimulus": 1468, "trial": 9, "rt": 818, "response": "Beta"}, "8": {"stimulus": 93, "trial": 8, "rt": 1963, "response": "Alpha"}, "78": {"stimulus": 1093, "trial": 78, "rt": 898, "response": "Alpha"}, "51": {"stimulus": 749, "trial": 51, "rt": 817, "response": "Alpha"}, "39": {"stimulus": 499, "trial": 39, "rt": 920, "response": "Alpha"}, "65": {"stimulus": 1905, "trial": 65, "rt": 810, "response": "Beta"}, "76": {"stimulus": 593, "trial": 76, "rt": 1006, "response": "Alpha"}, "75": {"stimulus": 780, "trial": 75, "rt": 748, "response": "Alpha"}, "38": {"stimulus": 1687, "trial": 38, "rt": 614, "response": "Alpha"}, "73": {"stimulus": 624, "trial": 73, "rt": 873, "response": "Alpha"}, "72": {"stimulus": 1999, "trial": 72, "rt": 824, "response": "Alpha"}, "71": {"stimulus": 1499, "trial": 71, "rt": 849, "response": "Alpha"}, "70": {"stimulus": 812, "trial": 70, "rt": 865, "response": "Beta"}, "59": {"stimulus": 530, "trial": 59, "rt": 757, "response": "Alpha"}, "79": {"stimulus": 937, "trial": 79, "rt": 1068, "response": "Alpha"}, "58": {"stimulus": 1530, "trial": 58, "rt": 1073, "response": "Alpha"}, "11": {"stimulus": 1718, "trial": 11, "rt": 1029, "response": "Beta"}, "10": {"stimulus": 1655, "trial": 10, "rt": 1100, "response": "Beta"}, "13": {"stimulus": 1030, "trial": 13, "rt": 928, "response": "Alpha"}, "12": {"stimulus": 2093, "trial": 12, "rt": 676, "response": "Alpha"}, "15": {"stimulus": 1312, "trial": 15, "rt": 3100, "response": "Beta"}, "14": {"stimulus": 405, "trial": 14, "rt": 1061, "response": "Beta"}, "17": {"stimulus": 2155, "trial": 17, "rt": 1006, "response": "Beta"}, "16": {"stimulus": 2343, "trial": 16, "rt": 762, "response": "Alpha"}, "19": {"stimulus": 468, "trial": 19, "rt": 1281, "response": "Alpha"}, "18": {"stimulus": 187, "trial": 18, "rt": 1178, "response": "Alpha"}, "31": {"stimulus": 249, "trial": 31, "rt": 827, "response": "Alpha"}, "30": {"stimulus": 1937, "trial": 30, "rt": 777, "response": "Alpha"}, "37": {"stimulus": 312, "trial": 37, "rt": 822, "response": "Beta"}, "36": {"stimulus": 62, "trial": 36, "rt": 1501, "response": "Beta"}, "35": {"stimulus": 874, "trial": 35, "rt": 1769, "response": "Alpha"}, "34": {"stimulus": 2124, "trial": 34, "rt": 1804, "response": "Alpha"}, "33": {"stimulus": 1843, "trial": 33, "rt": 1917, "response": "Alpha"}, "55": {"stimulus": 155, "trial": 55, "rt": 929, "response": "Beta"}, "74": {"stimulus": 2187, "trial": 74, "rt": 769, "response": "Alpha"}, "32": {"stimulus": 1124, "trial": 32, "rt": 928, "response": "Alpha"}, "57": {"stimulus": 1187, "trial": 57, "rt": 1086, "response": "Alpha"}, "50": {"stimulus": 2468, "trial": 50, "rt": 1462, "response": "Beta"}}, "experiment": {"Paradigm": "TACL", "Stimuli": "Size-Color Squares", "Experiment": "Generating-Multiple-Categories"}, "submit": {"timeTotal": 446821, "age": "24", "comments": "", "sex": "female"}}