{"info": {"finish": 1548185166798, "participant": 393, "exposed": true, "lab": false, "start": 1548184846361, "counterbalance": 0, "gentype": 1, "condition": "XOR", "browser": {"platform": "Win32", "userAgent": "Mozilla/5.0 (Windows NT 10.0; Win64; x64) AppleWebKit/537.36 (KHTML, like Gecko) Chrome/71.0.3578.98 Safari/537.36"}}, "observation": {"11": {"stimulus": 1479, "trial": 11, "rt": 1486}, "10": {"stimulus": 818, "trial": 10, "rt": 1435}, "1": {"stimulus": 1890, "trial": 1, "rt": 1827}, "0": {"stimulus": 403, "trial": 0, "rt": 4320}, "3": {"stimulus": 818, "trial": 3, "rt": 1656}, "2": {"stimulus": 1479, "trial": 2, "rt": 1846}, "5": {"stimulus": 818, "trial": 5, "rt": 1538}, "4": {"stimulus": 1890, "trial": 4, "rt": 1373}, "7": {"stimulus": 403, "trial": 7, "rt": 1812}, "6": {"stimulus": 1479, "trial": 6, "rt": 1469}, "9": {"stimulus": 403, "trial": 9, "rt": 1427}, "8": {"stimulus": 1890, "trial": 8, "rt": 1442}}, "generation": {"1": {"category": "Beta", "trial": 1, "stimulus": 2161, "rt": 4778}, "0": {"category": "Beta", "trial": 0, "stimulus": 437, "rt": 9668}, "3": {"category": "Beta", "trial": 3, "stimulus": 2473, "rt": 5828}, "2": {"category": "Beta", "trial": 2, "stimulus": 2450, "rt": 3402}, "5": {"category": "Beta", "trial": 5, "stimulus": 385, "rt": 4719}, "4": {"category": "Beta", "trial": 4, "stimulus": 42, "rt": 4112}, "7": {"category": "Beta", "trial": 7, "stimulus": 37, "rt": 2694}, "6": {"category": "Beta", "trial": 6, "stimulus": 522, "rt": 5375}}, "generalization": {"56": {"stimulus": 1655, "trial": 56, "rt": 1227, "response": "Beta"}, "77": {"stimulus": 2374, "trial": 77, "rt": 1121, "response": "Alpha"}, "54": {"stimulus": 718, "trial": 54, "rt": 1227, "response": "Beta"}, "42": {"stimulus": 1093, "trial": 42, "rt": 1335, "response": "Beta"}, "48": {"stimulus": 530, "trial": 48, "rt": 875, "response": "Beta"}, "43": {"stimulus": 655, "trial": 43, "rt": 1131, "response": "Alpha"}, "60": {"stimulus": 2468, "trial": 60, "rt": 1258, "response": "Beta"}, "61": {"stimulus": 874, "trial": 61, "rt": 1843, "response": "Beta"}, "62": {"stimulus": 1905, "trial": 62, "rt": 926, "response": "Alpha"}, "63": {"stimulus": 124, "trial": 63, "rt": 1262, "response": "Beta"}, "64": {"stimulus": 2093, "trial": 64, "rt": 913, "response": "Alpha"}, "49": {"stimulus": 1593, "trial": 49, "rt": 1073, "response": "Alpha"}, "66": {"stimulus": 1562, "trial": 66, "rt": 1632, "response": "Alpha"}, "67": {"stimulus": 499, "trial": 67, "rt": 954, "response": "Beta"}, "68": {"stimulus": 905, "trial": 68, "rt": 1087, "response": "Alpha"}, "69": {"stimulus": 999, "trial": 69, "rt": 863, "response": "Beta"}, "80": {"stimulus": 2187, "trial": 80, "rt": 693, "response": "Alpha"}, "52": {"stimulus": 2405, "trial": 52, "rt": 907, "response": "Beta"}, "53": {"stimulus": 1030, "trial": 53, "rt": 2147, "response": "Beta"}, "24": {"stimulus": 2030, "trial": 24, "rt": 1836, "response": "Alpha"}, "25": {"stimulus": 687, "trial": 25, "rt": 988, "response": "Beta"}, "26": {"stimulus": 468, "trial": 26, "rt": 1483, "response": "Beta"}, "27": {"stimulus": 1062, "trial": 27, "rt": 1470, "response": "Alpha"}, "20": {"stimulus": 2155, "trial": 20, "rt": 1214, "response": "Beta"}, "21": {"stimulus": 2312, "trial": 21, "rt": 925, "response": "Beta"}, "22": {"stimulus": 749, "trial": 22, "rt": 981, "response": "Beta"}, "23": {"stimulus": 405, "trial": 23, "rt": 1054, "response": "Alpha"}, "46": {"stimulus": 2124, "trial": 46, "rt": 2183, "response": "Alpha"}, "47": {"stimulus": 624, "trial": 47, "rt": 1409, "response": "Beta"}, "44": {"stimulus": 1718, "trial": 44, "rt": 1124, "response": "Beta"}, "45": {"stimulus": 312, "trial": 45, "rt": 1542, "response": "Alpha"}, "28": {"stimulus": 1968, "trial": 28, "rt": 1287, "response": "Alpha"}, "29": {"stimulus": 187, "trial": 29, "rt": 1007, "response": "Beta"}, "40": {"stimulus": 1530, "trial": 40, "rt": 1066, "response": "Beta"}, "41": {"stimulus": 1624, "trial": 41, "rt": 771, "response": "Alpha"}, "1": {"stimulus": 155, "trial": 1, "rt": 1110, "response": "Alpha"}, "0": {"stimulus": 843, "trial": 0, "rt": 4152, "response": "Beta"}, "3": {"stimulus": 1812, "trial": 3, "rt": 1289, "response": "Beta"}, "2": {"stimulus": 1124, "trial": 2, "rt": 1503, "response": "Beta"}, "5": {"stimulus": 1468, "trial": 5, "rt": 1791, "response": "Alpha"}, "4": {"stimulus": 62, "trial": 4, "rt": 1497, "response": "Beta"}, "7": {"stimulus": 2062, "trial": 7, "rt": 1375, "response": "Beta"}, "6": {"stimulus": 968, "trial": 6, "rt": 1233, "response": "Alpha"}, "9": {"stimulus": 1780, "trial": 9, "rt": 805, "response": "Alpha"}, "8": {"stimulus": 1187, "trial": 8, "rt": 1552, "response": "Alpha"}, "78": {"stimulus": 2249, "trial": 78, "rt": 785, "response": "Alpha"}, "51": {"stimulus": 2218, "trial": 51, "rt": 1561, "response": "Beta"}, "39": {"stimulus": 812, "trial": 39, "rt": 1075, "response": "Beta"}, "65": {"stimulus": 2499, "trial": 65, "rt": 788, "response": "Alpha"}, "76": {"stimulus": 593, "trial": 76, "rt": 752, "response": "Beta"}, "75": {"stimulus": 374, "trial": 75, "rt": 1065, "response": "Beta"}, "38": {"stimulus": 2343, "trial": 38, "rt": 971, "response": "Alpha"}, "73": {"stimulus": 1312, "trial": 73, "rt": 1211, "response": "Alpha"}, "72": {"stimulus": 437, "trial": 72, "rt": 1082, "response": "Beta"}, "71": {"stimulus": 780, "trial": 71, "rt": 775, "response": "Beta"}, "70": {"stimulus": 218, "trial": 70, "rt": 1293, "response": "Beta"}, "59": {"stimulus": 30, "trial": 59, "rt": 820, "response": "Beta"}, "79": {"stimulus": 1499, "trial": 79, "rt": 949, "response": "Alpha"}, "58": {"stimulus": 1999, "trial": 58, "rt": 739, "response": "Alpha"}, "11": {"stimulus": 937, "trial": 11, "rt": 997, "response": "Beta"}, "10": {"stimulus": 2280, "trial": 10, "rt": 1008, "response": "Alpha"}, "13": {"stimulus": 1937, "trial": 13, "rt": 999, "response": "Alpha"}, "12": {"stimulus": 1249, "trial": 12, "rt": 1477, "response": "Beta"}, "15": {"stimulus": 562, "trial": 15, "rt": 1229, "response": "Alpha"}, "14": {"stimulus": 1874, "trial": 14, "rt": 950, "response": "Alpha"}, "17": {"stimulus": 1218, "trial": 17, "rt": 1230, "response": "Beta"}, "16": {"stimulus": 1343, "trial": 16, "rt": 974, "response": "Beta"}, "19": {"stimulus": 1749, "trial": 19, "rt": 1281, "response": "Alpha"}, "18": {"stimulus": 280, "trial": 18, "rt": 1198, "response": "Beta"}, "31": {"stimulus": 1280, "trial": 31, "rt": 856, "response": "Alpha"}, "30": {"stimulus": 1437, "trial": 30, "rt": 1865, "response": "Alpha"}, "37": {"stimulus": 1687, "trial": 37, "rt": 818, "response": "Alpha"}, "36": {"stimulus": 93, "trial": 36, "rt": 691, "response": "Beta"}, "35": {"stimulus": 249, "trial": 35, "rt": 1088, "response": "Beta"}, "34": {"stimulus": 2437, "trial": 34, "rt": 1089, "response": "Alpha"}, "33": {"stimulus": 1155, "trial": 33, "rt": 890, "response": "Beta"}, "55": {"stimulus": 0, "trial": 55, "rt": 1151, "response": "Alpha"}, "74": {"stimulus": 1374, "trial": 74, "rt": 1155, "response": "Beta"}, "32": {"stimulus": 1405, "trial": 32, "rt": 3149, "response": "Beta"}, "57": {"stimulus": 1843, "trial": 57, "rt": 886, "response": "Alpha"}, "50": {"stimulus": 343, "trial": 50, "rt": 897, "response": "Beta"}}, "experiment": {"Paradigm": "TACL", "Stimuli": "Size-Color Squares", "Experiment": "Generating-Multiple-Categories"}, "submit": {"timeTotal": 320723, "age": "38", "comments": "", "sex": "male"}}