{"info": {"finish": 1548186020184, "participant": 395, "exposed": true, "lab": false, "start": 1548185486691, "counterbalance": 2, "gentype": 1, "condition": "Row", "browser": {"platform": "Win32", "userAgent": "Mozilla/5.0 (Windows NT 10.0; Win64; x64) AppleWebKit/537.36 (KHTML, like Gecko) Chrome/71.0.3578.98 Safari/537.36"}}, "observation": {"11": {"stimulus": 582, "trial": 11, "rt": 2987}, "10": {"stimulus": 493, "trial": 10, "rt": 1819}, "1": {"stimulus": 493, "trial": 1, "rt": 2679}, "0": {"stimulus": 612, "trial": 0, "rt": 2745}, "3": {"stimulus": 421, "trial": 3, "rt": 1637}, "2": {"stimulus": 582, "trial": 2, "rt": 1841}, "5": {"stimulus": 612, "trial": 5, "rt": 1403}, "4": {"stimulus": 493, "trial": 4, "rt": 1527}, "7": {"stimulus": 421, "trial": 7, "rt": 7734}, "6": {"stimulus": 582, "trial": 6, "rt": 2201}, "9": {"stimulus": 612, "trial": 9, "rt": 2682}, "8": {"stimulus": 421, "trial": 8, "rt": 1785}}, "generation": {"1": {"category": "Beta", "trial": 1, "stimulus": 2463, "rt": 13653}, "0": {"category": "Beta", "trial": 0, "stimulus": 2499, "rt": 15826}, "3": {"category": "Beta", "trial": 3, "stimulus": 2450, "rt": 5802}, "2": {"category": "Beta", "trial": 2, "stimulus": 2481, "rt": 37794}, "5": {"category": "Beta", "trial": 5, "stimulus": 2479, "rt": 8359}, "4": {"category": "Beta", "trial": 4, "stimulus": 2491, "rt": 5792}, "7": {"category": "Beta", "trial": 7, "stimulus": 2469, "rt": 4581}, "6": {"category": "Beta", "trial": 6, "stimulus": 2458, "rt": 4525}}, "generalization": {"56": {"stimulus": 2124, "trial": 56, "rt": 1232, "response": "Beta"}, "77": {"stimulus": 2030, "trial": 77, "rt": 1886, "response": "Beta"}, "54": {"stimulus": 437, "trial": 54, "rt": 1164, "response": "Alpha"}, "42": {"stimulus": 280, "trial": 42, "rt": 737, "response": "Alpha"}, "48": {"stimulus": 1124, "trial": 48, "rt": 601, "response": "Alpha"}, "43": {"stimulus": 155, "trial": 43, "rt": 663, "response": "Alpha"}, "60": {"stimulus": 30, "trial": 60, "rt": 852, "response": "Alpha"}, "61": {"stimulus": 1562, "trial": 61, "rt": 1057, "response": "Alpha"}, "62": {"stimulus": 968, "trial": 62, "rt": 971, "response": "Alpha"}, "63": {"stimulus": 124, "trial": 63, "rt": 1021, "response": "Alpha"}, "64": {"stimulus": 718, "trial": 64, "rt": 1834, "response": "Alpha"}, "49": {"stimulus": 1312, "trial": 49, "rt": 680, "response": "Alpha"}, "66": {"stimulus": 749, "trial": 66, "rt": 711, "response": "Alpha"}, "67": {"stimulus": 2062, "trial": 67, "rt": 820, "response": "Beta"}, "68": {"stimulus": 2093, "trial": 68, "rt": 1098, "response": "Beta"}, "69": {"stimulus": 1405, "trial": 69, "rt": 2673, "response": "Alpha"}, "80": {"stimulus": 1968, "trial": 80, "rt": 2407, "response": "Alpha"}, "52": {"stimulus": 1093, "trial": 52, "rt": 961, "response": "Alpha"}, "53": {"stimulus": 1062, "trial": 53, "rt": 1421, "response": "Alpha"}, "24": {"stimulus": 937, "trial": 24, "rt": 821, "response": "Alpha"}, "25": {"stimulus": 999, "trial": 25, "rt": 730, "response": "Alpha"}, "26": {"stimulus": 2187, "trial": 26, "rt": 1467, "response": "Beta"}, "27": {"stimulus": 1155, "trial": 27, "rt": 854, "response": "Alpha"}, "20": {"stimulus": 1937, "trial": 20, "rt": 1107, "response": "Alpha"}, "21": {"stimulus": 93, "trial": 21, "rt": 757, "response": "Alpha"}, "22": {"stimulus": 405, "trial": 22, "rt": 476, "response": "Alpha"}, "23": {"stimulus": 1905, "trial": 23, "rt": 1134, "response": "Beta"}, "46": {"stimulus": 1593, "trial": 46, "rt": 1097, "response": "Alpha"}, "47": {"stimulus": 780, "trial": 47, "rt": 450, "response": "Alpha"}, "44": {"stimulus": 655, "trial": 44, "rt": 75477, "response": "Alpha"}, "45": {"stimulus": 2499, "trial": 45, "rt": 1272, "response": "Beta"}, "28": {"stimulus": 562, "trial": 28, "rt": 954, "response": "Alpha"}, "29": {"stimulus": 187, "trial": 29, "rt": 726, "response": "Alpha"}, "40": {"stimulus": 62, "trial": 40, "rt": 1151, "response": "Alpha"}, "41": {"stimulus": 249, "trial": 41, "rt": 796, "response": "Alpha"}, "1": {"stimulus": 1468, "trial": 1, "rt": 1405, "response": "Alpha"}, "0": {"stimulus": 874, "trial": 0, "rt": 2265, "response": "Alpha"}, "3": {"stimulus": 1812, "trial": 3, "rt": 1559, "response": "Alpha"}, "2": {"stimulus": 2437, "trial": 2, "rt": 1004, "response": "Beta"}, "5": {"stimulus": 1280, "trial": 5, "rt": 765, "response": "Alpha"}, "4": {"stimulus": 2343, "trial": 4, "rt": 1184, "response": "Beta"}, "7": {"stimulus": 1249, "trial": 7, "rt": 554, "response": "Alpha"}, "6": {"stimulus": 1749, "trial": 6, "rt": 1547, "response": "Alpha"}, "9": {"stimulus": 1499, "trial": 9, "rt": 506, "response": "Alpha"}, "8": {"stimulus": 1437, "trial": 8, "rt": 564, "response": "Alpha"}, "78": {"stimulus": 2468, "trial": 78, "rt": 2218, "response": "Beta"}, "51": {"stimulus": 218, "trial": 51, "rt": 1133, "response": "Alpha"}, "39": {"stimulus": 1374, "trial": 39, "rt": 3319, "response": "Alpha"}, "65": {"stimulus": 2280, "trial": 65, "rt": 1071, "response": "Beta"}, "76": {"stimulus": 624, "trial": 76, "rt": 521, "response": "Alpha"}, "75": {"stimulus": 1624, "trial": 75, "rt": 1598, "response": "Alpha"}, "38": {"stimulus": 1218, "trial": 38, "rt": 7420, "response": "Alpha"}, "73": {"stimulus": 468, "trial": 73, "rt": 1166, "response": "Alpha"}, "72": {"stimulus": 2374, "trial": 72, "rt": 1836, "response": "Beta"}, "71": {"stimulus": 1530, "trial": 71, "rt": 2075, "response": "Alpha"}, "70": {"stimulus": 2155, "trial": 70, "rt": 3573, "response": "Alpha"}, "59": {"stimulus": 499, "trial": 59, "rt": 610, "response": "Alpha"}, "79": {"stimulus": 1874, "trial": 79, "rt": 1430, "response": "Alpha"}, "58": {"stimulus": 343, "trial": 58, "rt": 526, "response": "Alpha"}, "11": {"stimulus": 2312, "trial": 11, "rt": 1191, "response": "Beta"}, "10": {"stimulus": 687, "trial": 10, "rt": 462, "response": "Alpha"}, "13": {"stimulus": 1030, "trial": 13, "rt": 724, "response": "Alpha"}, "12": {"stimulus": 905, "trial": 12, "rt": 927, "response": "Alpha"}, "15": {"stimulus": 812, "trial": 15, "rt": 558, "response": "Alpha"}, "14": {"stimulus": 1343, "trial": 14, "rt": 1305, "response": "Alpha"}, "17": {"stimulus": 2249, "trial": 17, "rt": 757, "response": "Beta"}, "16": {"stimulus": 1687, "trial": 16, "rt": 1278, "response": "Alpha"}, "19": {"stimulus": 1718, "trial": 19, "rt": 3118, "response": "Alpha"}, "18": {"stimulus": 374, "trial": 18, "rt": 737, "response": "Alpha"}, "31": {"stimulus": 1655, "trial": 31, "rt": 2154, "response": "Alpha"}, "30": {"stimulus": 1843, "trial": 30, "rt": 1157, "response": "Beta"}, "37": {"stimulus": 1187, "trial": 37, "rt": 1823, "response": "Alpha"}, "36": {"stimulus": 530, "trial": 36, "rt": 1247, "response": "Alpha"}, "35": {"stimulus": 2218, "trial": 35, "rt": 853, "response": "Beta"}, "34": {"stimulus": 843, "trial": 34, "rt": 1363, "response": "Alpha"}, "33": {"stimulus": 1780, "trial": 33, "rt": 1930, "response": "Alpha"}, "55": {"stimulus": 0, "trial": 55, "rt": 730, "response": "Alpha"}, "74": {"stimulus": 593, "trial": 74, "rt": 1472, "response": "Alpha"}, "32": {"stimulus": 312, "trial": 32, "rt": 923, "response": "Alpha"}, "57": {"stimulus": 1999, "trial": 57, "rt": 629, "response": "Beta"}, "50": {"stimulus": 2405, "trial": 50, "rt": 908, "response": "Beta"}}, "experiment": {"Paradigm": "TACL", "Stimuli": "Size-Color Squares", "Experiment": "Generating-Multiple-Categories"}, "submit": {"timeTotal": 533835, "age": "26", "comments": "None.", "sex": "Male"}}