{"info": {"finish": 1548190431593, "participant": 404, "exposed": true, "lab": false, "start": 1548190036007, "counterbalance": 2, "gentype": 2, "condition": "Row", "browser": {"platform": "Win32", "userAgent": "Mozilla/5.0 (Windows NT 6.1) AppleWebKit/537.36 (KHTML, like Gecko) Chrome/71.0.3578.98 Safari/537.36"}}, "observation": {"11": {"stimulus": 421, "trial": 11, "rt": 1833}, "10": {"stimulus": 612, "trial": 10, "rt": 1608}, "1": {"stimulus": 493, "trial": 1, "rt": 2061}, "0": {"stimulus": 582, "trial": 0, "rt": 2397}, "3": {"stimulus": 421, "trial": 3, "rt": 3959}, "2": {"stimulus": 612, "trial": 2, "rt": 3389}, "5": {"stimulus": 612, "trial": 5, "rt": 10446}, "4": {"stimulus": 421, "trial": 4, "rt": 2647}, "7": {"stimulus": 493, "trial": 7, "rt": 2230}, "6": {"stimulus": 582, "trial": 6, "rt": 1751}, "9": {"stimulus": 493, "trial": 9, "rt": 1943}, "8": {"stimulus": 582, "trial": 8, "rt": 2302}}, "generation": {"1": {"category": "Beta", "trial": 1, "stimulus": 581, "rt": 28635}, "0": {"category": "Beta", "trial": 0, "stimulus": 1018, "rt": 4559}, "3": {"category": "Beta", "trial": 3, "stimulus": 1129, "rt": 12248}, "2": {"category": "Beta", "trial": 2, "stimulus": 2085, "rt": 5846}, "5": {"category": "Gamma", "trial": 5, "stimulus": 1273, "rt": 7095}, "4": {"category": "Gamma", "trial": 4, "stimulus": 284, "rt": 5128}, "7": {"category": "Gamma", "trial": 7, "stimulus": 1470, "rt": 8078}, "6": {"category": "Gamma", "trial": 6, "stimulus": 744, "rt": 10363}}, "generalization": {"56": {"stimulus": 937, "trial": 56, "rt": 599, "response": "Beta"}, "77": {"stimulus": 1780, "trial": 77, "rt": 320, "response": "Alpha"}, "54": {"stimulus": 2437, "trial": 54, "rt": 1086, "response": "Gamma"}, "42": {"stimulus": 874, "trial": 42, "rt": 1206, "response": "Alpha"}, "48": {"stimulus": 1249, "trial": 48, "rt": 831, "response": "Beta"}, "43": {"stimulus": 1093, "trial": 43, "rt": 856, "response": "Alpha"}, "60": {"stimulus": 30, "trial": 60, "rt": 1831, "response": "Beta"}, "61": {"stimulus": 2187, "trial": 61, "rt": 654, "response": "Beta"}, "62": {"stimulus": 1405, "trial": 62, "rt": 686, "response": "Gamma"}, "63": {"stimulus": 1655, "trial": 63, "rt": 1871, "response": "Alpha"}, "64": {"stimulus": 1312, "trial": 64, "rt": 846, "response": "Beta"}, "49": {"stimulus": 2468, "trial": 49, "rt": 951, "response": "Beta"}, "66": {"stimulus": 499, "trial": 66, "rt": 504, "response": "Beta"}, "67": {"stimulus": 2343, "trial": 67, "rt": 933, "response": "Beta"}, "68": {"stimulus": 1030, "trial": 68, "rt": 478, "response": "Beta"}, "69": {"stimulus": 2405, "trial": 69, "rt": 872, "response": "Alpha"}, "80": {"stimulus": 624, "trial": 80, "rt": 150, "response": "Alpha"}, "52": {"stimulus": 1124, "trial": 52, "rt": 544, "response": "Beta"}, "53": {"stimulus": 999, "trial": 53, "rt": 1095, "response": "Gamma"}, "24": {"stimulus": 1468, "trial": 24, "rt": 5679, "response": "Beta"}, "25": {"stimulus": 749, "trial": 25, "rt": 998, "response": "Gamma"}, "26": {"stimulus": 1937, "trial": 26, "rt": 599, "response": "Beta"}, "27": {"stimulus": 62, "trial": 27, "rt": 1463, "response": "Beta"}, "20": {"stimulus": 2030, "trial": 20, "rt": 910, "response": "Alpha"}, "21": {"stimulus": 1968, "trial": 21, "rt": 806, "response": "Alpha"}, "22": {"stimulus": 905, "trial": 22, "rt": 543, "response": "Alpha"}, "23": {"stimulus": 2218, "trial": 23, "rt": 726, "response": "Beta"}, "46": {"stimulus": 2124, "trial": 46, "rt": 887, "response": "Gamma"}, "47": {"stimulus": 1843, "trial": 47, "rt": 823, "response": "Gamma"}, "44": {"stimulus": 1812, "trial": 44, "rt": 686, "response": "Alpha"}, "45": {"stimulus": 1499, "trial": 45, "rt": 623, "response": "Beta"}, "28": {"stimulus": 1343, "trial": 28, "rt": 1629, "response": "Alpha"}, "29": {"stimulus": 2280, "trial": 29, "rt": 1390, "response": "Gamma"}, "40": {"stimulus": 1374, "trial": 40, "rt": 935, "response": "Gamma"}, "41": {"stimulus": 1718, "trial": 41, "rt": 1175, "response": "Beta"}, "1": {"stimulus": 249, "trial": 1, "rt": 658, "response": "Beta"}, "0": {"stimulus": 812, "trial": 0, "rt": 2406, "response": "Alpha"}, "3": {"stimulus": 155, "trial": 3, "rt": 602, "response": "Alpha"}, "2": {"stimulus": 1155, "trial": 2, "rt": 1456, "response": "Gamma"}, "5": {"stimulus": 1874, "trial": 5, "rt": 1460, "response": "Alpha"}, "4": {"stimulus": 218, "trial": 4, "rt": 2966, "response": "Beta"}, "7": {"stimulus": 1999, "trial": 7, "rt": 1279, "response": "Beta"}, "6": {"stimulus": 93, "trial": 6, "rt": 1446, "response": "Gamma"}, "9": {"stimulus": 968, "trial": 9, "rt": 25943, "response": "Gamma"}, "8": {"stimulus": 280, "trial": 8, "rt": 790, "response": "Beta"}, "78": {"stimulus": 1562, "trial": 78, "rt": 111, "response": "Alpha"}, "51": {"stimulus": 437, "trial": 51, "rt": 1047, "response": "Beta"}, "39": {"stimulus": 312, "trial": 39, "rt": 1039, "response": "Gamma"}, "65": {"stimulus": 2374, "trial": 65, "rt": 951, "response": "Beta"}, "76": {"stimulus": 562, "trial": 76, "rt": 262, "response": "Alpha"}, "75": {"stimulus": 1593, "trial": 75, "rt": 284, "response": "Alpha"}, "38": {"stimulus": 343, "trial": 38, "rt": 1733, "response": "Beta"}, "73": {"stimulus": 1905, "trial": 73, "rt": 456, "response": "Alpha"}, "72": {"stimulus": 780, "trial": 72, "rt": 414, "response": "Alpha"}, "71": {"stimulus": 2093, "trial": 71, "rt": 406, "response": "Alpha"}, "70": {"stimulus": 1530, "trial": 70, "rt": 767, "response": "Alpha"}, "59": {"stimulus": 1437, "trial": 59, "rt": 743, "response": "Alpha"}, "79": {"stimulus": 530, "trial": 79, "rt": 185, "response": "Alpha"}, "58": {"stimulus": 2249, "trial": 58, "rt": 966, "response": "Beta"}, "11": {"stimulus": 124, "trial": 11, "rt": 2389, "response": "Alpha"}, "10": {"stimulus": 655, "trial": 10, "rt": 15415, "response": "Gamma"}, "13": {"stimulus": 1749, "trial": 13, "rt": 1390, "response": "Alpha"}, "12": {"stimulus": 0, "trial": 12, "rt": 23514, "response": "Beta"}, "15": {"stimulus": 1687, "trial": 15, "rt": 1255, "response": "Alpha"}, "14": {"stimulus": 687, "trial": 14, "rt": 2238, "response": "Gamma"}, "17": {"stimulus": 2312, "trial": 17, "rt": 743, "response": "Beta"}, "16": {"stimulus": 187, "trial": 16, "rt": 1013, "response": "Beta"}, "19": {"stimulus": 2062, "trial": 19, "rt": 2790, "response": "Alpha"}, "18": {"stimulus": 1218, "trial": 18, "rt": 1296, "response": "Gamma"}, "31": {"stimulus": 2499, "trial": 31, "rt": 974, "response": "Beta"}, "30": {"stimulus": 1187, "trial": 30, "rt": 1398, "response": "Beta"}, "37": {"stimulus": 1624, "trial": 37, "rt": 3017, "response": "Beta"}, "36": {"stimulus": 718, "trial": 36, "rt": 1943, "response": "Gamma"}, "35": {"stimulus": 593, "trial": 35, "rt": 605, "response": "Beta"}, "34": {"stimulus": 1280, "trial": 34, "rt": 798, "response": "Alpha"}, "33": {"stimulus": 2155, "trial": 33, "rt": 1070, "response": "Beta"}, "55": {"stimulus": 374, "trial": 55, "rt": 1054, "response": "Beta"}, "74": {"stimulus": 1062, "trial": 74, "rt": 358, "response": "Alpha"}, "32": {"stimulus": 843, "trial": 32, "rt": 1175, "response": "Alpha"}, "57": {"stimulus": 468, "trial": 57, "rt": 3400, "response": "Gamma"}, "50": {"stimulus": 405, "trial": 50, "rt": 622, "response": "Alpha"}}, "experiment": {"Paradigm": "TACL", "Stimuli": "Size-Color Squares", "Experiment": "Generating-Multiple-Categories"}, "submit": {"timeTotal": 396669, "age": "34", "comments": "good", "sex": "female"}}