{"info": {"finish": 1548191840814, "participant": 408, "exposed": true, "lab": false, "start": 1548191529516, "counterbalance": 0, "gentype": 2, "condition": "Cluster", "browser": {"platform": "Win32", "userAgent": "Mozilla/5.0 (Windows NT 10.0; Win64; x64) AppleWebKit/537.36 (KHTML, like Gecko) Chrome/71.0.3578.98 Safari/537.36"}}, "observation": {"11": {"stimulus": 1093, "trial": 11, "rt": 1367}, "10": {"stimulus": 392, "trial": 10, "rt": 1443}, "1": {"stimulus": 392, "trial": 1, "rt": 1812}, "0": {"stimulus": 1093, "trial": 0, "rt": 2326}, "3": {"stimulus": 583, "trial": 3, "rt": 1431}, "2": {"stimulus": 1083, "trial": 2, "rt": 1565}, "5": {"stimulus": 392, "trial": 5, "rt": 1434}, "4": {"stimulus": 1083, "trial": 4, "rt": 1491}, "7": {"stimulus": 583, "trial": 7, "rt": 1392}, "6": {"stimulus": 1093, "trial": 6, "rt": 1420}, "9": {"stimulus": 1083, "trial": 9, "rt": 1364}, "8": {"stimulus": 583, "trial": 8, "rt": 1684}}, "generation": {"1": {"category": "Beta", "trial": 1, "stimulus": 2489, "rt": 8169}, "0": {"category": "Beta", "trial": 0, "stimulus": 2450, "rt": 10210}, "3": {"category": "Beta", "trial": 3, "stimulus": 2461, "rt": 14559}, "2": {"category": "Beta", "trial": 2, "stimulus": 500, "rt": 8600}, "5": {"category": "Gamma", "trial": 5, "stimulus": 2063, "rt": 5281}, "4": {"category": "Gamma", "trial": 4, "stimulus": 1500, "rt": 5687}, "7": {"category": "Gamma", "trial": 7, "stimulus": 2049, "rt": 3946}, "6": {"category": "Gamma", "trial": 6, "stimulus": 2119, "rt": 5054}}, "generalization": {"56": {"stimulus": 1437, "trial": 56, "rt": 541, "response": "Alpha"}, "77": {"stimulus": 2468, "trial": 77, "rt": 830, "response": "Gamma"}, "54": {"stimulus": 749, "trial": 54, "rt": 610, "response": "Alpha"}, "42": {"stimulus": 1905, "trial": 42, "rt": 1109, "response": "Beta"}, "48": {"stimulus": 2437, "trial": 48, "rt": 1077, "response": "Gamma"}, "43": {"stimulus": 624, "trial": 43, "rt": 700, "response": "Alpha"}, "60": {"stimulus": 405, "trial": 60, "rt": 715, "response": "Beta"}, "61": {"stimulus": 155, "trial": 61, "rt": 649, "response": "Beta"}, "62": {"stimulus": 2155, "trial": 62, "rt": 912, "response": "Gamma"}, "63": {"stimulus": 499, "trial": 63, "rt": 633, "response": "Alpha"}, "64": {"stimulus": 1280, "trial": 64, "rt": 525, "response": "Alpha"}, "49": {"stimulus": 2218, "trial": 49, "rt": 902, "response": "Gamma"}, "66": {"stimulus": 1093, "trial": 66, "rt": 508, "response": "Alpha"}, "67": {"stimulus": 2062, "trial": 67, "rt": 813, "response": "Beta"}, "68": {"stimulus": 968, "trial": 68, "rt": 707, "response": "Alpha"}, "69": {"stimulus": 30, "trial": 69, "rt": 531, "response": "Alpha"}, "80": {"stimulus": 530, "trial": 80, "rt": 612, "response": "Alpha"}, "52": {"stimulus": 1155, "trial": 52, "rt": 741, "response": "Beta"}, "53": {"stimulus": 843, "trial": 53, "rt": 817, "response": "Alpha"}, "24": {"stimulus": 1718, "trial": 24, "rt": 958, "response": "Beta"}, "25": {"stimulus": 1968, "trial": 25, "rt": 739, "response": "Beta"}, "26": {"stimulus": 1218, "trial": 26, "rt": 894, "response": "Alpha"}, "27": {"stimulus": 2187, "trial": 27, "rt": 959, "response": "Gamma"}, "20": {"stimulus": 999, "trial": 20, "rt": 1058, "response": "Alpha"}, "21": {"stimulus": 937, "trial": 21, "rt": 678, "response": "Alpha"}, "22": {"stimulus": 1999, "trial": 22, "rt": 2774, "response": "Gamma"}, "23": {"stimulus": 1530, "trial": 23, "rt": 1070, "response": "Alpha"}, "46": {"stimulus": 812, "trial": 46, "rt": 1217, "response": "Beta"}, "47": {"stimulus": 2249, "trial": 47, "rt": 1162, "response": "Alpha"}, "44": {"stimulus": 2124, "trial": 44, "rt": 779, "response": "Beta"}, "45": {"stimulus": 2093, "trial": 45, "rt": 609, "response": "Alpha"}, "28": {"stimulus": 1780, "trial": 28, "rt": 1163, "response": "Alpha"}, "29": {"stimulus": 687, "trial": 29, "rt": 694, "response": "Alpha"}, "40": {"stimulus": 1812, "trial": 40, "rt": 851, "response": "Beta"}, "41": {"stimulus": 2312, "trial": 41, "rt": 2480, "response": "Gamma"}, "1": {"stimulus": 280, "trial": 1, "rt": 2403, "response": "Beta"}, "0": {"stimulus": 1343, "trial": 0, "rt": 2071, "response": "Alpha"}, "3": {"stimulus": 562, "trial": 3, "rt": 896, "response": "Beta"}, "2": {"stimulus": 874, "trial": 2, "rt": 1065, "response": "Alpha"}, "5": {"stimulus": 1874, "trial": 5, "rt": 1565, "response": "Alpha"}, "4": {"stimulus": 905, "trial": 4, "rt": 1048, "response": "Beta"}, "7": {"stimulus": 1937, "trial": 7, "rt": 1058, "response": "Alpha"}, "6": {"stimulus": 2374, "trial": 6, "rt": 1474, "response": "Beta"}, "9": {"stimulus": 1499, "trial": 9, "rt": 1045, "response": "Alpha"}, "8": {"stimulus": 374, "trial": 8, "rt": 915, "response": "Beta"}, "78": {"stimulus": 249, "trial": 78, "rt": 1082, "response": "Beta"}, "51": {"stimulus": 1843, "trial": 51, "rt": 469, "response": "Alpha"}, "39": {"stimulus": 1124, "trial": 39, "rt": 748, "response": "Alpha"}, "65": {"stimulus": 1312, "trial": 65, "rt": 849, "response": "Beta"}, "76": {"stimulus": 1468, "trial": 76, "rt": 645, "response": "Beta"}, "75": {"stimulus": 1062, "trial": 75, "rt": 846, "response": "Beta"}, "38": {"stimulus": 2343, "trial": 38, "rt": 1819, "response": "Beta"}, "73": {"stimulus": 1374, "trial": 73, "rt": 802, "response": "Alpha"}, "72": {"stimulus": 1749, "trial": 72, "rt": 1054, "response": "Alpha"}, "71": {"stimulus": 343, "trial": 71, "rt": 863, "response": "Alpha"}, "70": {"stimulus": 62, "trial": 70, "rt": 822, "response": "Beta"}, "59": {"stimulus": 218, "trial": 59, "rt": 1074, "response": "Beta"}, "79": {"stimulus": 593, "trial": 79, "rt": 822, "response": "Alpha"}, "58": {"stimulus": 1624, "trial": 58, "rt": 641, "response": "Alpha"}, "11": {"stimulus": 1187, "trial": 11, "rt": 804, "response": "Alpha"}, "10": {"stimulus": 1655, "trial": 10, "rt": 1050, "response": "Beta"}, "13": {"stimulus": 718, "trial": 13, "rt": 846, "response": "Alpha"}, "12": {"stimulus": 468, "trial": 12, "rt": 899, "response": "Beta"}, "15": {"stimulus": 1562, "trial": 15, "rt": 805, "response": "Beta"}, "14": {"stimulus": 1249, "trial": 14, "rt": 811, "response": "Alpha"}, "17": {"stimulus": 1593, "trial": 17, "rt": 884, "response": "Beta"}, "16": {"stimulus": 124, "trial": 16, "rt": 1146, "response": "Beta"}, "19": {"stimulus": 93, "trial": 19, "rt": 1179, "response": "Beta"}, "18": {"stimulus": 1030, "trial": 18, "rt": 847, "response": "Alpha"}, "31": {"stimulus": 0, "trial": 31, "rt": 1241, "response": "Beta"}, "30": {"stimulus": 1405, "trial": 30, "rt": 903, "response": "Beta"}, "37": {"stimulus": 2499, "trial": 37, "rt": 838, "response": "Gamma"}, "36": {"stimulus": 1687, "trial": 36, "rt": 1002, "response": "Alpha"}, "35": {"stimulus": 2030, "trial": 35, "rt": 668, "response": "Gamma"}, "34": {"stimulus": 2405, "trial": 34, "rt": 919, "response": "Gamma"}, "33": {"stimulus": 780, "trial": 33, "rt": 880, "response": "Alpha"}, "55": {"stimulus": 437, "trial": 55, "rt": 771, "response": "Beta"}, "74": {"stimulus": 312, "trial": 74, "rt": 1048, "response": "Beta"}, "32": {"stimulus": 187, "trial": 32, "rt": 1093, "response": "Beta"}, "57": {"stimulus": 2280, "trial": 57, "rt": 826, "response": "Gamma"}, "50": {"stimulus": 655, "trial": 50, "rt": 1098, "response": "Alpha"}}, "experiment": {"Paradigm": "TACL", "Stimuli": "Size-Color Squares", "Experiment": "Generating-Multiple-Categories"}, "submit": {"timeTotal": 311512, "age": "28", "comments": "I thought it was a interesting and kind of fun experiment.", "sex": "Female"}}