{"info": {"finish": 1548192272246, "participant": 411, "exposed": true, "lab": false, "start": 1548192035988, "counterbalance": 7, "gentype": 1, "condition": "Cluster", "browser": {"platform": "Win32", "userAgent": "Mozilla/5.0 (Windows NT 10.0; Win64; x64; rv:64.0) Gecko/20100101 Firefox/64.0"}}, "observation": {"11": {"stimulus": 1093, "trial": 11, "rt": 1501}, "10": {"stimulus": 392, "trial": 10, "rt": 1506}, "1": {"stimulus": 1093, "trial": 1, "rt": 1917}, "0": {"stimulus": 583, "trial": 0, "rt": 2645}, "3": {"stimulus": 1083, "trial": 3, "rt": 3834}, "2": {"stimulus": 392, "trial": 2, "rt": 1803}, "5": {"stimulus": 583, "trial": 5, "rt": 1439}, "4": {"stimulus": 392, "trial": 4, "rt": 1560}, "7": {"stimulus": 1093, "trial": 7, "rt": 2348}, "6": {"stimulus": 1083, "trial": 6, "rt": 1234}, "9": {"stimulus": 1083, "trial": 9, "rt": 3905}, "8": {"stimulus": 583, "trial": 8, "rt": 1456}}, "generation": {"1": {"category": "Beta", "trial": 1, "stimulus": 1700, "rt": 2898}, "0": {"category": "Beta", "trial": 0, "stimulus": 1150, "rt": 8199}, "3": {"category": "Beta", "trial": 3, "stimulus": 1450, "rt": 2157}, "2": {"category": "Beta", "trial": 2, "stimulus": 100, "rt": 2785}, "5": {"category": "Beta", "trial": 5, "stimulus": 1300, "rt": 2789}, "4": {"category": "Beta", "trial": 4, "stimulus": 750, "rt": 2867}, "7": {"category": "Beta", "trial": 7, "stimulus": 907, "rt": 3120}, "6": {"category": "Beta", "trial": 6, "stimulus": 450, "rt": 2337}}, "generalization": {"56": {"stimulus": 1062, "trial": 56, "rt": 787, "response": "Alpha"}, "77": {"stimulus": 30, "trial": 77, "rt": 845, "response": "Beta"}, "54": {"stimulus": 1343, "trial": 54, "rt": 463, "response": "Alpha"}, "42": {"stimulus": 343, "trial": 42, "rt": 588, "response": "Alpha"}, "48": {"stimulus": 93, "trial": 48, "rt": 574, "response": "Beta"}, "43": {"stimulus": 1124, "trial": 43, "rt": 842, "response": "Beta"}, "60": {"stimulus": 905, "trial": 60, "rt": 551, "response": "Alpha"}, "61": {"stimulus": 999, "trial": 61, "rt": 772, "response": "Beta"}, "62": {"stimulus": 62, "trial": 62, "rt": 546, "response": "Alpha"}, "63": {"stimulus": 155, "trial": 63, "rt": 525, "response": "Alpha"}, "64": {"stimulus": 968, "trial": 64, "rt": 569, "response": "Beta"}, "49": {"stimulus": 1937, "trial": 49, "rt": 323, "response": "Beta"}, "66": {"stimulus": 874, "trial": 66, "rt": 569, "response": "Beta"}, "67": {"stimulus": 718, "trial": 67, "rt": 447, "response": "Beta"}, "68": {"stimulus": 468, "trial": 68, "rt": 1210, "response": "Beta"}, "69": {"stimulus": 1562, "trial": 69, "rt": 4984, "response": "Beta"}, "80": {"stimulus": 1093, "trial": 80, "rt": 627, "response": "Alpha"}, "52": {"stimulus": 499, "trial": 52, "rt": 312, "response": "Alpha"}, "53": {"stimulus": 530, "trial": 53, "rt": 311, "response": "Alpha"}, "24": {"stimulus": 2124, "trial": 24, "rt": 681, "response": "Beta"}, "25": {"stimulus": 218, "trial": 25, "rt": 650, "response": "Beta"}, "26": {"stimulus": 780, "trial": 26, "rt": 809, "response": "Alpha"}, "27": {"stimulus": 1187, "trial": 27, "rt": 556, "response": "Alpha"}, "20": {"stimulus": 1655, "trial": 20, "rt": 589, "response": "Beta"}, "21": {"stimulus": 2405, "trial": 21, "rt": 779, "response": "Beta"}, "22": {"stimulus": 1249, "trial": 22, "rt": 678, "response": "Alpha"}, "23": {"stimulus": 2187, "trial": 23, "rt": 789, "response": "Alpha"}, "46": {"stimulus": 1624, "trial": 46, "rt": 501, "response": "Beta"}, "47": {"stimulus": 843, "trial": 47, "rt": 700, "response": "Alpha"}, "44": {"stimulus": 2062, "trial": 44, "rt": 798, "response": "Beta"}, "45": {"stimulus": 1218, "trial": 45, "rt": 970, "response": "Alpha"}, "28": {"stimulus": 1437, "trial": 28, "rt": 497, "response": "Alpha"}, "29": {"stimulus": 2437, "trial": 29, "rt": 486, "response": "Alpha"}, "40": {"stimulus": 937, "trial": 40, "rt": 734, "response": "Alpha"}, "41": {"stimulus": 1374, "trial": 41, "rt": 776, "response": "Beta"}, "1": {"stimulus": 2312, "trial": 1, "rt": 662, "response": "Beta"}, "0": {"stimulus": 624, "trial": 0, "rt": 2457, "response": "Beta"}, "3": {"stimulus": 2374, "trial": 3, "rt": 739, "response": "Alpha"}, "2": {"stimulus": 2030, "trial": 2, "rt": 854, "response": "Alpha"}, "5": {"stimulus": 374, "trial": 5, "rt": 819, "response": "Beta"}, "4": {"stimulus": 1499, "trial": 4, "rt": 604, "response": "Alpha"}, "7": {"stimulus": 1749, "trial": 7, "rt": 585, "response": "Alpha"}, "6": {"stimulus": 1468, "trial": 6, "rt": 758, "response": "Beta"}, "9": {"stimulus": 1999, "trial": 9, "rt": 569, "response": "Alpha"}, "8": {"stimulus": 0, "trial": 8, "rt": 704, "response": "Beta"}, "78": {"stimulus": 1812, "trial": 78, "rt": 562, "response": "Beta"}, "51": {"stimulus": 593, "trial": 51, "rt": 343, "response": "Beta"}, "39": {"stimulus": 1593, "trial": 39, "rt": 686, "response": "Alpha"}, "65": {"stimulus": 1405, "trial": 65, "rt": 391, "response": "Beta"}, "76": {"stimulus": 187, "trial": 76, "rt": 606, "response": "Beta"}, "75": {"stimulus": 1687, "trial": 75, "rt": 1241, "response": "Beta"}, "38": {"stimulus": 312, "trial": 38, "rt": 1052, "response": "Beta"}, "73": {"stimulus": 2499, "trial": 73, "rt": 632, "response": "Alpha"}, "72": {"stimulus": 405, "trial": 72, "rt": 671, "response": "Beta"}, "71": {"stimulus": 1718, "trial": 71, "rt": 726, "response": "Beta"}, "70": {"stimulus": 1312, "trial": 70, "rt": 919, "response": "Beta"}, "59": {"stimulus": 1874, "trial": 59, "rt": 775, "response": "Alpha"}, "79": {"stimulus": 749, "trial": 79, "rt": 759, "response": "Alpha"}, "58": {"stimulus": 2249, "trial": 58, "rt": 707, "response": "Beta"}, "11": {"stimulus": 1030, "trial": 11, "rt": 821, "response": "Beta"}, "10": {"stimulus": 655, "trial": 10, "rt": 567, "response": "Beta"}, "13": {"stimulus": 1968, "trial": 13, "rt": 634, "response": "Beta"}, "12": {"stimulus": 2218, "trial": 12, "rt": 744, "response": "Beta"}, "15": {"stimulus": 2343, "trial": 15, "rt": 693, "response": "Alpha"}, "14": {"stimulus": 280, "trial": 14, "rt": 674, "response": "Alpha"}, "17": {"stimulus": 1905, "trial": 17, "rt": 554, "response": "Beta"}, "16": {"stimulus": 1155, "trial": 16, "rt": 604, "response": "Beta"}, "19": {"stimulus": 2280, "trial": 19, "rt": 1902, "response": "Beta"}, "18": {"stimulus": 687, "trial": 18, "rt": 607, "response": "Alpha"}, "31": {"stimulus": 2468, "trial": 31, "rt": 501, "response": "Alpha"}, "30": {"stimulus": 1530, "trial": 30, "rt": 458, "response": "Alpha"}, "37": {"stimulus": 2093, "trial": 37, "rt": 457, "response": "Alpha"}, "36": {"stimulus": 249, "trial": 36, "rt": 407, "response": "Alpha"}, "35": {"stimulus": 437, "trial": 35, "rt": 568, "response": "Alpha"}, "34": {"stimulus": 1780, "trial": 34, "rt": 476, "response": "Alpha"}, "33": {"stimulus": 1843, "trial": 33, "rt": 442, "response": "Alpha"}, "55": {"stimulus": 812, "trial": 55, "rt": 362, "response": "Alpha"}, "74": {"stimulus": 562, "trial": 74, "rt": 711, "response": "Beta"}, "32": {"stimulus": 2155, "trial": 32, "rt": 346, "response": "Alpha"}, "57": {"stimulus": 124, "trial": 57, "rt": 534, "response": "Alpha"}, "50": {"stimulus": 1280, "trial": 50, "rt": 491, "response": "Beta"}}, "experiment": {"Paradigm": "TACL", "Stimuli": "Size-Color Squares", "Experiment": "Generating-Multiple-Categories"}, "submit": {"timeTotal": 238985, "age": "23", "comments": "none", "sex": "male"}}