{"info": {"finish": 1548194122026, "participant": 416, "exposed": true, "lab": false, "start": 1548193734396, "counterbalance": 3, "gentype": 0, "condition": "XOR", "browser": {"platform": "Win32", "userAgent": "Mozilla/5.0 (Windows NT 10.0; Win64; x64) AppleWebKit/537.36 (KHTML, like Gecko) Chrome/71.0.3578.98 Safari/537.36"}}, "observation": {"11": {"stimulus": 1479, "trial": 11, "rt": 1662}, "10": {"stimulus": 818, "trial": 10, "rt": 1541}, "1": {"stimulus": 403, "trial": 1, "rt": 1927}, "0": {"stimulus": 818, "trial": 0, "rt": 2731}, "3": {"stimulus": 1890, "trial": 3, "rt": 1623}, "2": {"stimulus": 1479, "trial": 2, "rt": 1935}, "5": {"stimulus": 1890, "trial": 5, "rt": 1559}, "4": {"stimulus": 403, "trial": 4, "rt": 1622}, "7": {"stimulus": 818, "trial": 7, "rt": 1983}, "6": {"stimulus": 1479, "trial": 6, "rt": 1575}, "9": {"stimulus": 1890, "trial": 9, "rt": 1518}, "8": {"stimulus": 403, "trial": 8, "rt": 1840}}, "generation": {"1": {"category": "Not-Alpha", "trial": 1, "stimulus": 0, "rt": 10175}, "0": {"category": "Not-Alpha", "trial": 0, "stimulus": 1042, "rt": 15102}, "3": {"category": "Not-Alpha", "trial": 3, "stimulus": 150, "rt": 8462}, "2": {"category": "Not-Alpha", "trial": 2, "stimulus": 2450, "rt": 4407}, "5": {"category": "Not-Alpha", "trial": 5, "stimulus": 2399, "rt": 2518}, "4": {"category": "Not-Alpha", "trial": 4, "stimulus": 502, "rt": 2182}, "7": {"category": "Not-Alpha", "trial": 7, "stimulus": 1890, "rt": 3854}, "6": {"category": "Not-Alpha", "trial": 6, "stimulus": 2042, "rt": 3335}}, "generalization": {"56": {"stimulus": 1468, "trial": 56, "rt": 423, "response": "Alpha"}, "77": {"stimulus": 2249, "trial": 77, "rt": 1055, "response": "Beta"}, "54": {"stimulus": 1968, "trial": 54, "rt": 438, "response": "Alpha"}, "42": {"stimulus": 2499, "trial": 42, "rt": 462, "response": "Alpha"}, "48": {"stimulus": 374, "trial": 48, "rt": 367, "response": "Alpha"}, "43": {"stimulus": 1030, "trial": 43, "rt": 463, "response": "Beta"}, "60": {"stimulus": 343, "trial": 60, "rt": 341, "response": "Alpha"}, "61": {"stimulus": 312, "trial": 61, "rt": 135, "response": "Beta"}, "62": {"stimulus": 1280, "trial": 62, "rt": 360, "response": "Beta"}, "63": {"stimulus": 1093, "trial": 63, "rt": 375, "response": "Beta"}, "64": {"stimulus": 155, "trial": 64, "rt": 1047, "response": "Beta"}, "49": {"stimulus": 874, "trial": 49, "rt": 333, "response": "Alpha"}, "66": {"stimulus": 1530, "trial": 66, "rt": 342, "response": "Beta"}, "67": {"stimulus": 562, "trial": 67, "rt": 664, "response": "Beta"}, "68": {"stimulus": 0, "trial": 68, "rt": 510, "response": "Beta"}, "69": {"stimulus": 1905, "trial": 69, "rt": 503, "response": "Beta"}, "80": {"stimulus": 249, "trial": 80, "rt": 1023, "response": "Beta"}, "52": {"stimulus": 1124, "trial": 52, "rt": 471, "response": "Alpha"}, "53": {"stimulus": 718, "trial": 53, "rt": 399, "response": "Alpha"}, "24": {"stimulus": 1655, "trial": 24, "rt": 414, "response": "Beta"}, "25": {"stimulus": 1593, "trial": 25, "rt": 488, "response": "Alpha"}, "26": {"stimulus": 1937, "trial": 26, "rt": 328, "response": "Alpha"}, "27": {"stimulus": 218, "trial": 27, "rt": 351, "response": "Beta"}, "20": {"stimulus": 2062, "trial": 20, "rt": 175, "response": "Beta"}, "21": {"stimulus": 437, "trial": 21, "rt": 359, "response": "Beta"}, "22": {"stimulus": 1155, "trial": 22, "rt": 390, "response": "Alpha"}, "23": {"stimulus": 1312, "trial": 23, "rt": 344, "response": "Alpha"}, "46": {"stimulus": 499, "trial": 46, "rt": 527, "response": "Alpha"}, "47": {"stimulus": 2030, "trial": 47, "rt": 574, "response": "Alpha"}, "44": {"stimulus": 1405, "trial": 44, "rt": 206, "response": "Beta"}, "45": {"stimulus": 2374, "trial": 45, "rt": 391, "response": "Beta"}, "28": {"stimulus": 905, "trial": 28, "rt": 366, "response": "Alpha"}, "29": {"stimulus": 2437, "trial": 29, "rt": 288, "response": "Beta"}, "40": {"stimulus": 2124, "trial": 40, "rt": 463, "response": "Alpha"}, "41": {"stimulus": 2343, "trial": 41, "rt": 655, "response": "Alpha"}, "1": {"stimulus": 1749, "trial": 1, "rt": 1191, "response": "Beta"}, "0": {"stimulus": 624, "trial": 0, "rt": 1757, "response": "Alpha"}, "3": {"stimulus": 1218, "trial": 3, "rt": 518, "response": "Alpha"}, "2": {"stimulus": 1187, "trial": 2, "rt": 1038, "response": "Beta"}, "5": {"stimulus": 780, "trial": 5, "rt": 326, "response": "Alpha"}, "4": {"stimulus": 30, "trial": 4, "rt": 326, "response": "Alpha"}, "7": {"stimulus": 1249, "trial": 7, "rt": 127, "response": "Alpha"}, "6": {"stimulus": 1499, "trial": 6, "rt": 295, "response": "Alpha"}, "9": {"stimulus": 1780, "trial": 9, "rt": 214, "response": "Alpha"}, "8": {"stimulus": 1374, "trial": 8, "rt": 293, "response": "Alpha"}, "78": {"stimulus": 405, "trial": 78, "rt": 671, "response": "Alpha"}, "51": {"stimulus": 999, "trial": 51, "rt": 39204, "response": "Beta"}, "39": {"stimulus": 2218, "trial": 39, "rt": 478, "response": "Alpha"}, "65": {"stimulus": 280, "trial": 65, "rt": 790, "response": "Beta"}, "76": {"stimulus": 530, "trial": 76, "rt": 566, "response": "Beta"}, "75": {"stimulus": 1812, "trial": 75, "rt": 464, "response": "Beta"}, "38": {"stimulus": 1843, "trial": 38, "rt": 439, "response": "Beta"}, "73": {"stimulus": 1343, "trial": 73, "rt": 447, "response": "Alpha"}, "72": {"stimulus": 124, "trial": 72, "rt": 1704, "response": "Alpha"}, "71": {"stimulus": 2093, "trial": 71, "rt": 384, "response": "Alpha"}, "70": {"stimulus": 1437, "trial": 70, "rt": 511, "response": "Beta"}, "59": {"stimulus": 749, "trial": 59, "rt": 312, "response": "Beta"}, "79": {"stimulus": 1624, "trial": 79, "rt": 592, "response": "Alpha"}, "58": {"stimulus": 468, "trial": 58, "rt": 567, "response": "Beta"}, "11": {"stimulus": 1718, "trial": 11, "rt": 333, "response": "Beta"}, "10": {"stimulus": 1999, "trial": 10, "rt": 462, "response": "Beta"}, "13": {"stimulus": 1062, "trial": 13, "rt": 447, "response": "Alpha"}, "12": {"stimulus": 1562, "trial": 12, "rt": 407, "response": "Beta"}, "15": {"stimulus": 1687, "trial": 15, "rt": 158, "response": "Alpha"}, "14": {"stimulus": 687, "trial": 14, "rt": 319, "response": "Alpha"}, "17": {"stimulus": 2187, "trial": 17, "rt": 343, "response": "Alpha"}, "16": {"stimulus": 187, "trial": 16, "rt": 399, "response": "Alpha"}, "19": {"stimulus": 93, "trial": 19, "rt": 431, "response": "Alpha"}, "18": {"stimulus": 812, "trial": 18, "rt": 376, "response": "Alpha"}, "31": {"stimulus": 2468, "trial": 31, "rt": 367, "response": "Alpha"}, "30": {"stimulus": 593, "trial": 30, "rt": 399, "response": "Alpha"}, "37": {"stimulus": 2312, "trial": 37, "rt": 487, "response": "Alpha"}, "36": {"stimulus": 1874, "trial": 36, "rt": 214, "response": "Alpha"}, "35": {"stimulus": 968, "trial": 35, "rt": 407, "response": "Alpha"}, "34": {"stimulus": 62, "trial": 34, "rt": 135, "response": "Beta"}, "33": {"stimulus": 843, "trial": 33, "rt": 375, "response": "Alpha"}, "55": {"stimulus": 2155, "trial": 55, "rt": 198, "response": "Alpha"}, "74": {"stimulus": 2280, "trial": 74, "rt": 565, "response": "Beta"}, "32": {"stimulus": 2405, "trial": 32, "rt": 367, "response": "Alpha"}, "57": {"stimulus": 655, "trial": 57, "rt": 430, "response": "Alpha"}, "50": {"stimulus": 937, "trial": 50, "rt": 543, "response": "Alpha"}}, "experiment": {"Paradigm": "TACL", "Stimuli": "Size-Color Squares", "Experiment": "Generating-Multiple-Categories"}, "submit": {"timeTotal": 388511, "age": "30", "comments": "", "sex": "Male"}}