{"info": {"finish": 1548195746124, "participant": 423, "exposed": true, "lab": false, "start": 1548195387788, "counterbalance": 6, "gentype": 1, "condition": "Row", "browser": {"platform": "Win32", "userAgent": "Mozilla/5.0 (Windows NT 10.0; Win64; x64) AppleWebKit/537.36 (KHTML, like Gecko) Chrome/71.0.3578.98 Safari/537.36"}}, "observation": {"11": {"stimulus": 612, "trial": 11, "rt": 1928}, "10": {"stimulus": 493, "trial": 10, "rt": 1586}, "1": {"stimulus": 612, "trial": 1, "rt": 3257}, "0": {"stimulus": 582, "trial": 0, "rt": 3757}, "3": {"stimulus": 493, "trial": 3, "rt": 3243}, "2": {"stimulus": 421, "trial": 2, "rt": 2006}, "5": {"stimulus": 493, "trial": 5, "rt": 1728}, "4": {"stimulus": 421, "trial": 4, "rt": 1928}, "7": {"stimulus": 582, "trial": 7, "rt": 1600}, "6": {"stimulus": 612, "trial": 6, "rt": 2025}, "9": {"stimulus": 421, "trial": 9, "rt": 1638}, "8": {"stimulus": 582, "trial": 8, "rt": 1704}}, "generation": {"1": {"category": "Beta", "trial": 1, "stimulus": 2450, "rt": 31879}, "0": {"category": "Beta", "trial": 0, "stimulus": 0, "rt": 17650}, "3": {"category": "Beta", "trial": 3, "stimulus": 49, "rt": 4601}, "2": {"category": "Beta", "trial": 2, "stimulus": 2499, "rt": 10046}, "5": {"category": "Beta", "trial": 5, "stimulus": 2464, "rt": 9103}, "4": {"category": "Beta", "trial": 4, "stimulus": 2245, "rt": 8367}, "7": {"category": "Beta", "trial": 7, "stimulus": 500, "rt": 8451}, "6": {"category": "Beta", "trial": 6, "stimulus": 1950, "rt": 6996}}, "generalization": {"56": {"stimulus": 2499, "trial": 56, "rt": 1598, "response": "Alpha"}, "77": {"stimulus": 968, "trial": 77, "rt": 831, "response": "Beta"}, "54": {"stimulus": 2187, "trial": 54, "rt": 1279, "response": "Alpha"}, "42": {"stimulus": 1718, "trial": 42, "rt": 901, "response": "Alpha"}, "48": {"stimulus": 2374, "trial": 48, "rt": 1936, "response": "Beta"}, "43": {"stimulus": 468, "trial": 43, "rt": 841, "response": "Beta"}, "60": {"stimulus": 874, "trial": 60, "rt": 670, "response": "Beta"}, "61": {"stimulus": 249, "trial": 61, "rt": 599, "response": "Beta"}, "62": {"stimulus": 280, "trial": 62, "rt": 637, "response": "Beta"}, "63": {"stimulus": 30, "trial": 63, "rt": 570, "response": "Beta"}, "64": {"stimulus": 1062, "trial": 64, "rt": 738, "response": "Beta"}, "49": {"stimulus": 999, "trial": 49, "rt": 971, "response": "Beta"}, "66": {"stimulus": 1187, "trial": 66, "rt": 1163, "response": "Beta"}, "67": {"stimulus": 218, "trial": 67, "rt": 803, "response": "Beta"}, "68": {"stimulus": 1093, "trial": 68, "rt": 767, "response": "Beta"}, "69": {"stimulus": 1374, "trial": 69, "rt": 918, "response": "Beta"}, "80": {"stimulus": 1812, "trial": 80, "rt": 712, "response": "Alpha"}, "52": {"stimulus": 1499, "trial": 52, "rt": 1144, "response": "Beta"}, "53": {"stimulus": 1937, "trial": 53, "rt": 740, "response": "Alpha"}, "24": {"stimulus": 1030, "trial": 24, "rt": 758, "response": "Beta"}, "25": {"stimulus": 624, "trial": 25, "rt": 620, "response": "Beta"}, "26": {"stimulus": 1593, "trial": 26, "rt": 977, "response": "Alpha"}, "27": {"stimulus": 1780, "trial": 27, "rt": 573, "response": "Alpha"}, "20": {"stimulus": 1968, "trial": 20, "rt": 727, "response": "Alpha"}, "21": {"stimulus": 718, "trial": 21, "rt": 1051, "response": "Beta"}, "22": {"stimulus": 437, "trial": 22, "rt": 664, "response": "Beta"}, "23": {"stimulus": 187, "trial": 23, "rt": 590, "response": "Beta"}, "46": {"stimulus": 1530, "trial": 46, "rt": 916, "response": "Alpha"}, "47": {"stimulus": 1905, "trial": 47, "rt": 705, "response": "Alpha"}, "44": {"stimulus": 1280, "trial": 44, "rt": 958, "response": "Beta"}, "45": {"stimulus": 843, "trial": 45, "rt": 847, "response": "Beta"}, "28": {"stimulus": 62, "trial": 28, "rt": 883, "response": "Beta"}, "29": {"stimulus": 2437, "trial": 29, "rt": 1790, "response": "Beta"}, "40": {"stimulus": 1562, "trial": 40, "rt": 702, "response": "Alpha"}, "41": {"stimulus": 1343, "trial": 41, "rt": 2391, "response": "Beta"}, "1": {"stimulus": 1249, "trial": 1, "rt": 2319, "response": "Alpha"}, "0": {"stimulus": 1405, "trial": 0, "rt": 1846, "response": "Alpha"}, "3": {"stimulus": 1155, "trial": 3, "rt": 1076, "response": "Alpha"}, "2": {"stimulus": 405, "trial": 2, "rt": 2078, "response": "Beta"}, "5": {"stimulus": 749, "trial": 5, "rt": 851, "response": "Beta"}, "4": {"stimulus": 1687, "trial": 4, "rt": 1063, "response": "Alpha"}, "7": {"stimulus": 530, "trial": 7, "rt": 885, "response": "Beta"}, "6": {"stimulus": 1624, "trial": 6, "rt": 1502, "response": "Beta"}, "9": {"stimulus": 1312, "trial": 9, "rt": 1221, "response": "Alpha"}, "8": {"stimulus": 1749, "trial": 8, "rt": 888, "response": "Alpha"}, "78": {"stimulus": 1468, "trial": 78, "rt": 663, "response": "Alpha"}, "51": {"stimulus": 2343, "trial": 51, "rt": 1215, "response": "Beta"}, "39": {"stimulus": 562, "trial": 39, "rt": 886, "response": "Beta"}, "65": {"stimulus": 2155, "trial": 65, "rt": 991, "response": "Alpha"}, "76": {"stimulus": 1437, "trial": 76, "rt": 1030, "response": "Beta"}, "75": {"stimulus": 2312, "trial": 75, "rt": 825, "response": "Alpha"}, "38": {"stimulus": 499, "trial": 38, "rt": 952, "response": "Beta"}, "73": {"stimulus": 1218, "trial": 73, "rt": 1025, "response": "Beta"}, "72": {"stimulus": 1124, "trial": 72, "rt": 757, "response": "Beta"}, "71": {"stimulus": 2468, "trial": 71, "rt": 3009, "response": "Alpha"}, "70": {"stimulus": 155, "trial": 70, "rt": 793, "response": "Beta"}, "59": {"stimulus": 124, "trial": 59, "rt": 781, "response": "Beta"}, "79": {"stimulus": 937, "trial": 79, "rt": 931, "response": "Beta"}, "58": {"stimulus": 312, "trial": 58, "rt": 868, "response": "Beta"}, "11": {"stimulus": 780, "trial": 11, "rt": 1670, "response": "Beta"}, "10": {"stimulus": 0, "trial": 10, "rt": 1051, "response": "Beta"}, "13": {"stimulus": 2280, "trial": 13, "rt": 1457, "response": "Alpha"}, "12": {"stimulus": 2093, "trial": 12, "rt": 1249, "response": "Beta"}, "15": {"stimulus": 374, "trial": 15, "rt": 861, "response": "Beta"}, "14": {"stimulus": 2249, "trial": 14, "rt": 733, "response": "Alpha"}, "17": {"stimulus": 812, "trial": 17, "rt": 926, "response": "Beta"}, "16": {"stimulus": 1655, "trial": 16, "rt": 2047, "response": "Beta"}, "19": {"stimulus": 1843, "trial": 19, "rt": 817, "response": "Alpha"}, "18": {"stimulus": 2062, "trial": 18, "rt": 800, "response": "Alpha"}, "31": {"stimulus": 2124, "trial": 31, "rt": 867, "response": "Alpha"}, "30": {"stimulus": 1874, "trial": 30, "rt": 1200, "response": "Alpha"}, "37": {"stimulus": 2218, "trial": 37, "rt": 4649, "response": "Alpha"}, "36": {"stimulus": 655, "trial": 36, "rt": 1870, "response": "Beta"}, "35": {"stimulus": 93, "trial": 35, "rt": 2013, "response": "Beta"}, "34": {"stimulus": 687, "trial": 34, "rt": 1124, "response": "Beta"}, "33": {"stimulus": 2405, "trial": 33, "rt": 1134, "response": "Beta"}, "55": {"stimulus": 905, "trial": 55, "rt": 933, "response": "Beta"}, "74": {"stimulus": 343, "trial": 74, "rt": 875, "response": "Beta"}, "32": {"stimulus": 2030, "trial": 32, "rt": 648, "response": "Alpha"}, "57": {"stimulus": 1999, "trial": 57, "rt": 1137, "response": "Alpha"}, "50": {"stimulus": 593, "trial": 50, "rt": 1126, "response": "Beta"}}, "experiment": {"Paradigm": "TACL", "Stimuli": "Size-Color Squares", "Experiment": "Generating-Multiple-Categories"}, "submit": {"timeTotal": 358477, "age": "49", "comments": "It was different", "sex": "female"}}