{"info": {"finish": 1548196182014, "participant": 425, "exposed": true, "lab": false, "start": 1548195870341, "counterbalance": 1, "gentype": 2, "condition": "Row", "browser": {"platform": "Win32", "userAgent": "Mozilla/5.0 (Windows NT 10.0; Win64; x64) AppleWebKit/537.36 (KHTML, like Gecko) Chrome/71.0.3578.98 Safari/537.36"}}, "observation": {"11": {"stimulus": 421, "trial": 11, "rt": 1693}, "10": {"stimulus": 582, "trial": 10, "rt": 1440}, "1": {"stimulus": 493, "trial": 1, "rt": 1509}, "0": {"stimulus": 421, "trial": 0, "rt": 2509}, "3": {"stimulus": 582, "trial": 3, "rt": 1439}, "2": {"stimulus": 612, "trial": 2, "rt": 1487}, "5": {"stimulus": 612, "trial": 5, "rt": 1350}, "4": {"stimulus": 582, "trial": 4, "rt": 1383}, "7": {"stimulus": 493, "trial": 7, "rt": 1488}, "6": {"stimulus": 421, "trial": 6, "rt": 1998}, "9": {"stimulus": 612, "trial": 9, "rt": 1678}, "8": {"stimulus": 493, "trial": 8, "rt": 1421}}, "generation": {"1": {"category": "Beta", "trial": 1, "stimulus": 2, "rt": 9087}, "0": {"category": "Beta", "trial": 0, "stimulus": 0, "rt": 10214}, "3": {"category": "Beta", "trial": 3, "stimulus": 100, "rt": 3799}, "2": {"category": "Beta", "trial": 2, "stimulus": 50, "rt": 4983}, "5": {"category": "Gamma", "trial": 5, "stimulus": 149, "rt": 3856}, "4": {"category": "Gamma", "trial": 4, "stimulus": 49, "rt": 8998}, "7": {"category": "Gamma", "trial": 7, "stimulus": 99, "rt": 2927}, "6": {"category": "Gamma", "trial": 6, "stimulus": 48, "rt": 7038}}, "generalization": {"56": {"stimulus": 1937, "trial": 56, "rt": 1166, "response": "Gamma"}, "77": {"stimulus": 2093, "trial": 77, "rt": 1063, "response": "Gamma"}, "54": {"stimulus": 780, "trial": 54, "rt": 1383, "response": "Gamma"}, "42": {"stimulus": 2499, "trial": 42, "rt": 1229, "response": "Gamma"}, "48": {"stimulus": 218, "trial": 48, "rt": 1222, "response": "Beta"}, "43": {"stimulus": 1030, "trial": 43, "rt": 1575, "response": "Gamma"}, "60": {"stimulus": 30, "trial": 60, "rt": 895, "response": "Gamma"}, "61": {"stimulus": 343, "trial": 61, "rt": 727, "response": "Gamma"}, "62": {"stimulus": 749, "trial": 62, "rt": 495, "response": "Gamma"}, "63": {"stimulus": 1124, "trial": 63, "rt": 983, "response": "Beta"}, "64": {"stimulus": 1687, "trial": 64, "rt": 728, "response": "Gamma"}, "49": {"stimulus": 1718, "trial": 49, "rt": 1040, "response": "Beta"}, "66": {"stimulus": 1218, "trial": 66, "rt": 877, "response": "Beta"}, "67": {"stimulus": 1343, "trial": 67, "rt": 757, "response": "Gamma"}, "68": {"stimulus": 62, "trial": 68, "rt": 871, "response": "Beta"}, "69": {"stimulus": 1843, "trial": 69, "rt": 870, "response": "Gamma"}, "80": {"stimulus": 718, "trial": 80, "rt": 709, "response": "Beta"}, "52": {"stimulus": 468, "trial": 52, "rt": 766, "response": "Beta"}, "53": {"stimulus": 2280, "trial": 53, "rt": 1135, "response": "Alpha"}, "24": {"stimulus": 843, "trial": 24, "rt": 574, "response": "Gamma"}, "25": {"stimulus": 1812, "trial": 25, "rt": 1191, "response": "Alpha"}, "26": {"stimulus": 2030, "trial": 26, "rt": 997, "response": "Alpha"}, "27": {"stimulus": 2343, "trial": 27, "rt": 1831, "response": "Gamma"}, "20": {"stimulus": 2374, "trial": 20, "rt": 2727, "response": "Alpha"}, "21": {"stimulus": 937, "trial": 21, "rt": 1879, "response": "Gamma"}, "22": {"stimulus": 1593, "trial": 22, "rt": 2119, "response": "Alpha"}, "23": {"stimulus": 1468, "trial": 23, "rt": 1614, "response": "Beta"}, "46": {"stimulus": 124, "trial": 46, "rt": 1760, "response": "Gamma"}, "47": {"stimulus": 1437, "trial": 47, "rt": 1214, "response": "Gamma"}, "44": {"stimulus": 655, "trial": 44, "rt": 870, "response": "Beta"}, "45": {"stimulus": 249, "trial": 45, "rt": 1151, "response": "Gamma"}, "28": {"stimulus": 2155, "trial": 28, "rt": 1357, "response": "Alpha"}, "29": {"stimulus": 624, "trial": 29, "rt": 1286, "response": "Beta"}, "40": {"stimulus": 2124, "trial": 40, "rt": 4902, "response": "Beta"}, "41": {"stimulus": 905, "trial": 41, "rt": 1143, "response": "Beta"}, "1": {"stimulus": 1062, "trial": 1, "rt": 1853, "response": "Beta"}, "0": {"stimulus": 374, "trial": 0, "rt": 5246, "response": "Beta"}, "3": {"stimulus": 280, "trial": 3, "rt": 1207, "response": "Beta"}, "2": {"stimulus": 2312, "trial": 2, "rt": 1040, "response": "Alpha"}, "5": {"stimulus": 1530, "trial": 5, "rt": 1904, "response": "Gamma"}, "4": {"stimulus": 2062, "trial": 4, "rt": 871, "response": "Alpha"}, "7": {"stimulus": 1187, "trial": 7, "rt": 1109, "response": "Gamma"}, "6": {"stimulus": 1405, "trial": 6, "rt": 1373, "response": "Beta"}, "9": {"stimulus": 1749, "trial": 9, "rt": 870, "response": "Gamma"}, "8": {"stimulus": 687, "trial": 8, "rt": 934, "response": "Gamma"}, "78": {"stimulus": 1562, "trial": 78, "rt": 1342, "response": "Beta"}, "51": {"stimulus": 2468, "trial": 51, "rt": 1127, "response": "Alpha"}, "39": {"stimulus": 93, "trial": 39, "rt": 2760, "response": "Beta"}, "65": {"stimulus": 874, "trial": 65, "rt": 598, "response": "Beta"}, "76": {"stimulus": 1499, "trial": 76, "rt": 823, "response": "Gamma"}, "75": {"stimulus": 812, "trial": 75, "rt": 960, "response": "Beta"}, "38": {"stimulus": 1999, "trial": 38, "rt": 1239, "response": "Gamma"}, "73": {"stimulus": 1905, "trial": 73, "rt": 1223, "response": "Beta"}, "72": {"stimulus": 2405, "trial": 72, "rt": 1152, "response": "Alpha"}, "71": {"stimulus": 2187, "trial": 71, "rt": 1062, "response": "Gamma"}, "70": {"stimulus": 1780, "trial": 70, "rt": 2431, "response": "Gamma"}, "59": {"stimulus": 1155, "trial": 59, "rt": 672, "response": "Beta"}, "79": {"stimulus": 1968, "trial": 79, "rt": 1920, "response": "Beta"}, "58": {"stimulus": 155, "trial": 58, "rt": 877, "response": "Beta"}, "11": {"stimulus": 1093, "trial": 11, "rt": 535, "response": "Gamma"}, "10": {"stimulus": 1249, "trial": 10, "rt": 598, "response": "Gamma"}, "13": {"stimulus": 1312, "trial": 13, "rt": 1591, "response": "Beta"}, "12": {"stimulus": 499, "trial": 12, "rt": 783, "response": "Gamma"}, "15": {"stimulus": 968, "trial": 15, "rt": 1071, "response": "Beta"}, "14": {"stimulus": 593, "trial": 14, "rt": 926, "response": "Gamma"}, "17": {"stimulus": 405, "trial": 17, "rt": 1070, "response": "Beta"}, "16": {"stimulus": 1374, "trial": 16, "rt": 1007, "response": "Beta"}, "19": {"stimulus": 530, "trial": 19, "rt": 990, "response": "Gamma"}, "18": {"stimulus": 437, "trial": 18, "rt": 982, "response": "Gamma"}, "31": {"stimulus": 1280, "trial": 31, "rt": 1102, "response": "Gamma"}, "30": {"stimulus": 562, "trial": 30, "rt": 591, "response": "Beta"}, "37": {"stimulus": 1655, "trial": 37, "rt": 759, "response": "Beta"}, "36": {"stimulus": 1624, "trial": 36, "rt": 741, "response": "Beta"}, "35": {"stimulus": 312, "trial": 35, "rt": 1231, "response": "Beta"}, "34": {"stimulus": 2437, "trial": 34, "rt": 1223, "response": "Gamma"}, "33": {"stimulus": 0, "trial": 33, "rt": 847, "response": "Beta"}, "55": {"stimulus": 2249, "trial": 55, "rt": 879, "response": "Gamma"}, "74": {"stimulus": 1874, "trial": 74, "rt": 1184, "response": "Gamma"}, "32": {"stimulus": 2218, "trial": 32, "rt": 1071, "response": "Alpha"}, "57": {"stimulus": 187, "trial": 57, "rt": 623, "response": "Gamma"}, "50": {"stimulus": 999, "trial": 50, "rt": 808, "response": "Gamma"}}, "experiment": {"Paradigm": "TACL", "Stimuli": "Size-Color Squares", "Experiment": "Generating-Multiple-Categories"}, "submit": {"timeTotal": 311795, "age": "30", "comments": " ", "sex": "male"}}