{"info": {"finish": 1548200493098, "participant": 433, "exposed": true, "lab": false, "start": 1548200120300, "counterbalance": 2, "gentype": 0, "condition": "Row", "browser": {"platform": "Win32", "userAgent": "Mozilla/5.0 (Windows NT 6.1) AppleWebKit/537.36 (KHTML, like Gecko) Chrome/71.0.3578.98 Safari/537.36"}}, "observation": {"11": {"stimulus": 493, "trial": 11, "rt": 1627}, "10": {"stimulus": 421, "trial": 10, "rt": 1705}, "1": {"stimulus": 612, "trial": 1, "rt": 2389}, "0": {"stimulus": 421, "trial": 0, "rt": 5010}, "3": {"stimulus": 493, "trial": 3, "rt": 1917}, "2": {"stimulus": 582, "trial": 2, "rt": 1840}, "5": {"stimulus": 612, "trial": 5, "rt": 1984}, "4": {"stimulus": 421, "trial": 4, "rt": 1827}, "7": {"stimulus": 582, "trial": 7, "rt": 2018}, "6": {"stimulus": 493, "trial": 6, "rt": 1962}, "9": {"stimulus": 612, "trial": 9, "rt": 1652}, "8": {"stimulus": 582, "trial": 8, "rt": 1613}}, "generation": {"1": {"category": "Not-Alpha", "trial": 1, "stimulus": 1627, "rt": 15719}, "0": {"category": "Not-Alpha", "trial": 0, "stimulus": 2450, "rt": 32095}, "3": {"category": "Not-Alpha", "trial": 3, "stimulus": 2342, "rt": 5192}, "2": {"category": "Not-Alpha", "trial": 2, "stimulus": 1532, "rt": 5174}, "5": {"category": "Not-Alpha", "trial": 5, "stimulus": 2487, "rt": 3762}, "4": {"category": "Not-Alpha", "trial": 4, "stimulus": 2489, "rt": 5819}, "7": {"category": "Not-Alpha", "trial": 7, "stimulus": 2479, "rt": 3750}, "6": {"category": "Not-Alpha", "trial": 6, "stimulus": 2477, "rt": 4664}}, "generalization": {"56": {"stimulus": 2155, "trial": 56, "rt": 927, "response": "Beta"}, "77": {"stimulus": 1593, "trial": 77, "rt": 583, "response": "Beta"}, "54": {"stimulus": 468, "trial": 54, "rt": 2299, "response": "Alpha"}, "42": {"stimulus": 218, "trial": 42, "rt": 1100, "response": "Alpha"}, "48": {"stimulus": 2062, "trial": 48, "rt": 697, "response": "Beta"}, "43": {"stimulus": 2280, "trial": 43, "rt": 839, "response": "Beta"}, "60": {"stimulus": 655, "trial": 60, "rt": 908, "response": "Alpha"}, "61": {"stimulus": 2093, "trial": 61, "rt": 837, "response": "Beta"}, "62": {"stimulus": 1030, "trial": 62, "rt": 754, "response": "Beta"}, "63": {"stimulus": 843, "trial": 63, "rt": 857, "response": "Beta"}, "64": {"stimulus": 1874, "trial": 64, "rt": 777, "response": "Beta"}, "49": {"stimulus": 2437, "trial": 49, "rt": 925, "response": "Beta"}, "66": {"stimulus": 1905, "trial": 66, "rt": 834, "response": "Beta"}, "67": {"stimulus": 2312, "trial": 67, "rt": 916, "response": "Beta"}, "68": {"stimulus": 1687, "trial": 68, "rt": 929, "response": "Beta"}, "69": {"stimulus": 1093, "trial": 69, "rt": 955, "response": "Beta"}, "80": {"stimulus": 0, "trial": 80, "rt": 1254, "response": "Alpha"}, "52": {"stimulus": 2187, "trial": 52, "rt": 970, "response": "Beta"}, "53": {"stimulus": 1562, "trial": 53, "rt": 680, "response": "Beta"}, "24": {"stimulus": 1468, "trial": 24, "rt": 780, "response": "Beta"}, "25": {"stimulus": 1187, "trial": 25, "rt": 1209, "response": "Beta"}, "26": {"stimulus": 687, "trial": 26, "rt": 990, "response": "Alpha"}, "27": {"stimulus": 937, "trial": 27, "rt": 616, "response": "Alpha"}, "20": {"stimulus": 2249, "trial": 20, "rt": 692, "response": "Beta"}, "21": {"stimulus": 1937, "trial": 21, "rt": 810, "response": "Beta"}, "22": {"stimulus": 1655, "trial": 22, "rt": 966, "response": "Beta"}, "23": {"stimulus": 1312, "trial": 23, "rt": 890, "response": "Beta"}, "46": {"stimulus": 374, "trial": 46, "rt": 803, "response": "Alpha"}, "47": {"stimulus": 1499, "trial": 47, "rt": 1018, "response": "Beta"}, "44": {"stimulus": 437, "trial": 44, "rt": 842, "response": "Alpha"}, "45": {"stimulus": 93, "trial": 45, "rt": 848, "response": "Alpha"}, "28": {"stimulus": 1218, "trial": 28, "rt": 1172, "response": "Beta"}, "29": {"stimulus": 530, "trial": 29, "rt": 700, "response": "Alpha"}, "40": {"stimulus": 249, "trial": 40, "rt": 1036, "response": "Alpha"}, "41": {"stimulus": 2468, "trial": 41, "rt": 1250, "response": "Beta"}, "1": {"stimulus": 1405, "trial": 1, "rt": 2529, "response": "Beta"}, "0": {"stimulus": 1718, "trial": 0, "rt": 2525, "response": "Beta"}, "3": {"stimulus": 999, "trial": 3, "rt": 1236, "response": "Alpha"}, "2": {"stimulus": 30, "trial": 2, "rt": 1119, "response": "Alpha"}, "5": {"stimulus": 280, "trial": 5, "rt": 972, "response": "Alpha"}, "4": {"stimulus": 1843, "trial": 4, "rt": 999, "response": "Beta"}, "7": {"stimulus": 1343, "trial": 7, "rt": 1375, "response": "Beta"}, "6": {"stimulus": 1062, "trial": 6, "rt": 1055, "response": "Alpha"}, "9": {"stimulus": 1124, "trial": 9, "rt": 1603, "response": "Beta"}, "8": {"stimulus": 155, "trial": 8, "rt": 1037, "response": "Alpha"}, "78": {"stimulus": 718, "trial": 78, "rt": 1892, "response": "Alpha"}, "51": {"stimulus": 2124, "trial": 51, "rt": 1541, "response": "Beta"}, "39": {"stimulus": 343, "trial": 39, "rt": 1049, "response": "Alpha"}, "65": {"stimulus": 1749, "trial": 65, "rt": 813, "response": "Beta"}, "76": {"stimulus": 2343, "trial": 76, "rt": 754, "response": "Beta"}, "75": {"stimulus": 968, "trial": 75, "rt": 1138, "response": "Beta"}, "38": {"stimulus": 1968, "trial": 38, "rt": 749, "response": "Beta"}, "73": {"stimulus": 812, "trial": 73, "rt": 891, "response": "Beta"}, "72": {"stimulus": 1249, "trial": 72, "rt": 920, "response": "Beta"}, "71": {"stimulus": 2499, "trial": 71, "rt": 661, "response": "Beta"}, "70": {"stimulus": 1280, "trial": 70, "rt": 1074, "response": "Beta"}, "59": {"stimulus": 405, "trial": 59, "rt": 881, "response": "Alpha"}, "79": {"stimulus": 1437, "trial": 79, "rt": 2252, "response": "Beta"}, "58": {"stimulus": 499, "trial": 58, "rt": 1008, "response": "Alpha"}, "11": {"stimulus": 593, "trial": 11, "rt": 673, "response": "Alpha"}, "10": {"stimulus": 2374, "trial": 10, "rt": 1097, "response": "Beta"}, "13": {"stimulus": 1780, "trial": 13, "rt": 805, "response": "Beta"}, "12": {"stimulus": 874, "trial": 12, "rt": 832, "response": "Alpha"}, "15": {"stimulus": 187, "trial": 15, "rt": 921, "response": "Alpha"}, "14": {"stimulus": 1999, "trial": 14, "rt": 986, "response": "Beta"}, "17": {"stimulus": 2405, "trial": 17, "rt": 778, "response": "Beta"}, "16": {"stimulus": 1530, "trial": 16, "rt": 888, "response": "Beta"}, "19": {"stimulus": 2030, "trial": 19, "rt": 667, "response": "Beta"}, "18": {"stimulus": 749, "trial": 18, "rt": 1029, "response": "Alpha"}, "31": {"stimulus": 124, "trial": 31, "rt": 863, "response": "Alpha"}, "30": {"stimulus": 62, "trial": 30, "rt": 594, "response": "Alpha"}, "37": {"stimulus": 312, "trial": 37, "rt": 1092, "response": "Alpha"}, "36": {"stimulus": 562, "trial": 36, "rt": 1200, "response": "Alpha"}, "35": {"stimulus": 1155, "trial": 35, "rt": 760, "response": "Beta"}, "34": {"stimulus": 1812, "trial": 34, "rt": 563, "response": "Beta"}, "33": {"stimulus": 780, "trial": 33, "rt": 2013, "response": "Alpha"}, "55": {"stimulus": 1624, "trial": 55, "rt": 992, "response": "Beta"}, "74": {"stimulus": 905, "trial": 74, "rt": 1222, "response": "Alpha"}, "32": {"stimulus": 2218, "trial": 32, "rt": 1010, "response": "Beta"}, "57": {"stimulus": 624, "trial": 57, "rt": 987, "response": "Beta"}, "50": {"stimulus": 1374, "trial": 50, "rt": 831, "response": "Beta"}}, "experiment": {"Paradigm": "TACL", "Stimuli": "Size-Color Squares", "Experiment": "Generating-Multiple-Categories"}, "submit": {"timeTotal": 374149, "age": "31", "comments": "its very interesting survey i'm very happy to taken this survey ", "sex": "male"}}