{"info": {"finish": 1548202557296, "participant": 438, "exposed": true, "lab": false, "start": 1548202260630, "counterbalance": 0, "gentype": 0, "condition": "Row", "browser": {"platform": "Win32", "userAgent": "Mozilla/5.0 (Windows NT 10.0; Win64; x64) AppleWebKit/537.36 (KHTML, like Gecko) Chrome/71.0.3578.98 Safari/537.36"}}, "observation": {"11": {"stimulus": 612, "trial": 11, "rt": 1408}, "10": {"stimulus": 421, "trial": 10, "rt": 1757}, "1": {"stimulus": 612, "trial": 1, "rt": 1895}, "0": {"stimulus": 493, "trial": 0, "rt": 2513}, "3": {"stimulus": 582, "trial": 3, "rt": 1494}, "2": {"stimulus": 421, "trial": 2, "rt": 1648}, "5": {"stimulus": 612, "trial": 5, "rt": 1638}, "4": {"stimulus": 421, "trial": 4, "rt": 1429}, "7": {"stimulus": 493, "trial": 7, "rt": 1389}, "6": {"stimulus": 582, "trial": 6, "rt": 1471}, "9": {"stimulus": 582, "trial": 9, "rt": 1471}, "8": {"stimulus": 493, "trial": 8, "rt": 1463}}, "generation": {"1": {"category": "Not-Alpha", "trial": 1, "stimulus": 1302, "rt": 5758}, "0": {"category": "Not-Alpha", "trial": 0, "stimulus": 2249, "rt": 17198}, "3": {"category": "Not-Alpha", "trial": 3, "stimulus": 1818, "rt": 4654}, "2": {"category": "Not-Alpha", "trial": 2, "stimulus": 1714, "rt": 4821}, "5": {"category": "Not-Alpha", "trial": 5, "stimulus": 2450, "rt": 3350}, "4": {"category": "Not-Alpha", "trial": 4, "stimulus": 2481, "rt": 4366}, "7": {"category": "Not-Alpha", "trial": 7, "stimulus": 1435, "rt": 6879}, "6": {"category": "Not-Alpha", "trial": 6, "stimulus": 1673, "rt": 4567}}, "generalization": {"56": {"stimulus": 562, "trial": 56, "rt": 631, "response": "Alpha"}, "77": {"stimulus": 93, "trial": 77, "rt": 592, "response": "Alpha"}, "54": {"stimulus": 1343, "trial": 54, "rt": 629, "response": "Beta"}, "42": {"stimulus": 1562, "trial": 42, "rt": 799, "response": "Beta"}, "48": {"stimulus": 187, "trial": 48, "rt": 501, "response": "Alpha"}, "43": {"stimulus": 1874, "trial": 43, "rt": 887, "response": "Beta"}, "60": {"stimulus": 718, "trial": 60, "rt": 662, "response": "Alpha"}, "61": {"stimulus": 780, "trial": 61, "rt": 631, "response": "Alpha"}, "62": {"stimulus": 1374, "trial": 62, "rt": 1326, "response": "Beta"}, "63": {"stimulus": 1499, "trial": 63, "rt": 629, "response": "Beta"}, "64": {"stimulus": 0, "trial": 64, "rt": 806, "response": "Alpha"}, "49": {"stimulus": 905, "trial": 49, "rt": 911, "response": "Beta"}, "66": {"stimulus": 1999, "trial": 66, "rt": 733, "response": "Beta"}, "67": {"stimulus": 1718, "trial": 67, "rt": 819, "response": "Beta"}, "68": {"stimulus": 1530, "trial": 68, "rt": 558, "response": "Beta"}, "69": {"stimulus": 1218, "trial": 69, "rt": 622, "response": "Beta"}, "80": {"stimulus": 1155, "trial": 80, "rt": 1037, "response": "Beta"}, "52": {"stimulus": 1062, "trial": 52, "rt": 893, "response": "Beta"}, "53": {"stimulus": 2499, "trial": 53, "rt": 927, "response": "Beta"}, "24": {"stimulus": 999, "trial": 24, "rt": 623, "response": "Beta"}, "25": {"stimulus": 2155, "trial": 25, "rt": 773, "response": "Beta"}, "26": {"stimulus": 155, "trial": 26, "rt": 854, "response": "Alpha"}, "27": {"stimulus": 1593, "trial": 27, "rt": 798, "response": "Beta"}, "20": {"stimulus": 749, "trial": 20, "rt": 2279, "response": "Alpha"}, "21": {"stimulus": 687, "trial": 21, "rt": 1375, "response": "Alpha"}, "22": {"stimulus": 1937, "trial": 22, "rt": 702, "response": "Beta"}, "23": {"stimulus": 2218, "trial": 23, "rt": 631, "response": "Beta"}, "46": {"stimulus": 1249, "trial": 46, "rt": 982, "response": "Beta"}, "47": {"stimulus": 437, "trial": 47, "rt": 798, "response": "Alpha"}, "44": {"stimulus": 2343, "trial": 44, "rt": 646, "response": "Beta"}, "45": {"stimulus": 1905, "trial": 45, "rt": 615, "response": "Beta"}, "28": {"stimulus": 1968, "trial": 28, "rt": 1165, "response": "Beta"}, "29": {"stimulus": 812, "trial": 29, "rt": 1123, "response": "Alpha"}, "40": {"stimulus": 2405, "trial": 40, "rt": 878, "response": "Beta"}, "41": {"stimulus": 2312, "trial": 41, "rt": 718, "response": "Beta"}, "1": {"stimulus": 624, "trial": 1, "rt": 1593, "response": "Alpha"}, "0": {"stimulus": 1749, "trial": 0, "rt": 14848, "response": "Beta"}, "3": {"stimulus": 1280, "trial": 3, "rt": 911, "response": "Beta"}, "2": {"stimulus": 2062, "trial": 2, "rt": 880, "response": "Beta"}, "5": {"stimulus": 374, "trial": 5, "rt": 915, "response": "Alpha"}, "4": {"stimulus": 874, "trial": 4, "rt": 1560, "response": "Beta"}, "7": {"stimulus": 1812, "trial": 7, "rt": 686, "response": "Beta"}, "6": {"stimulus": 1405, "trial": 6, "rt": 1047, "response": "Beta"}, "9": {"stimulus": 218, "trial": 9, "rt": 774, "response": "Alpha"}, "8": {"stimulus": 2187, "trial": 8, "rt": 758, "response": "Beta"}, "78": {"stimulus": 280, "trial": 78, "rt": 647, "response": "Alpha"}, "51": {"stimulus": 2124, "trial": 51, "rt": 886, "response": "Beta"}, "39": {"stimulus": 1093, "trial": 39, "rt": 1031, "response": "Beta"}, "65": {"stimulus": 1468, "trial": 65, "rt": 935, "response": "Beta"}, "76": {"stimulus": 62, "trial": 76, "rt": 790, "response": "Alpha"}, "75": {"stimulus": 1780, "trial": 75, "rt": 1189, "response": "Beta"}, "38": {"stimulus": 1655, "trial": 38, "rt": 759, "response": "Beta"}, "73": {"stimulus": 1312, "trial": 73, "rt": 903, "response": "Beta"}, "72": {"stimulus": 405, "trial": 72, "rt": 567, "response": "Alpha"}, "71": {"stimulus": 530, "trial": 71, "rt": 813, "response": "Alpha"}, "70": {"stimulus": 1124, "trial": 70, "rt": 871, "response": "Beta"}, "59": {"stimulus": 843, "trial": 59, "rt": 1239, "response": "Alpha"}, "79": {"stimulus": 2280, "trial": 79, "rt": 1222, "response": "Beta"}, "58": {"stimulus": 468, "trial": 58, "rt": 783, "response": "Alpha"}, "11": {"stimulus": 2030, "trial": 11, "rt": 1055, "response": "Beta"}, "10": {"stimulus": 1624, "trial": 10, "rt": 877, "response": "Beta"}, "13": {"stimulus": 1437, "trial": 13, "rt": 632, "response": "Beta"}, "12": {"stimulus": 2093, "trial": 12, "rt": 543, "response": "Beta"}, "15": {"stimulus": 1687, "trial": 15, "rt": 784, "response": "Beta"}, "14": {"stimulus": 968, "trial": 14, "rt": 1127, "response": "Beta"}, "17": {"stimulus": 124, "trial": 17, "rt": 510, "response": "Alpha"}, "16": {"stimulus": 593, "trial": 16, "rt": 871, "response": "Alpha"}, "19": {"stimulus": 2437, "trial": 19, "rt": 661, "response": "Beta"}, "18": {"stimulus": 2249, "trial": 18, "rt": 1652, "response": "Beta"}, "31": {"stimulus": 2374, "trial": 31, "rt": 941, "response": "Beta"}, "30": {"stimulus": 249, "trial": 30, "rt": 2686, "response": "Alpha"}, "37": {"stimulus": 937, "trial": 37, "rt": 975, "response": "Beta"}, "36": {"stimulus": 312, "trial": 36, "rt": 751, "response": "Alpha"}, "35": {"stimulus": 1843, "trial": 35, "rt": 831, "response": "Beta"}, "34": {"stimulus": 499, "trial": 34, "rt": 471, "response": "Alpha"}, "33": {"stimulus": 343, "trial": 33, "rt": 751, "response": "Alpha"}, "55": {"stimulus": 655, "trial": 55, "rt": 975, "response": "Alpha"}, "74": {"stimulus": 30, "trial": 74, "rt": 885, "response": "Alpha"}, "32": {"stimulus": 1187, "trial": 32, "rt": 1085, "response": "Beta"}, "57": {"stimulus": 2468, "trial": 57, "rt": 879, "response": "Beta"}, "50": {"stimulus": 1030, "trial": 50, "rt": 1229, "response": "Beta"}}, "experiment": {"Paradigm": "TACL", "Stimuli": "Size-Color Squares", "Experiment": "Generating-Multiple-Categories"}, "submit": {"timeTotal": 297262, "age": "40", "comments": "fun", "sex": "female"}}