{"info": {"finish": 1521101482676, "participant": 102, "exposed": true, "stimuli": [30, 32, 48, 50, 8, 20, 1, 0], "lab": false, "pptmatch": 102, "start": 1521101165714, "catflip": false, "categories": [0, 0, 0, 0, 1, 1, 1, 1], "counterbalance": 3, "condition": "Middle", "browser": {"platform": "Win32", "userAgent": "Mozilla/5.0 (Windows NT 10.0; Win64; x64) AppleWebKit/537.36 (KHTML, like Gecko) Chrome/64.0.3282.186 Safari/537.36"}}, "assignment": {"24": {"stimulus": 1, "trial": 24, "rt": 2567, "correctcat": 1, "response": 1}, "25": {"stimulus": 32, "trial": 25, "rt": 3262, "correctcat": 0, "response": 0}, "26": {"stimulus": 30, "trial": 26, "rt": 1995, "correctcat": 0, "response": 0}, "27": {"stimulus": 50, "trial": 27, "rt": 2877, "correctcat": 0, "response": 0}, "20": {"stimulus": 1, "trial": 20, "rt": 3821, "correctcat": 1, "response": 1}, "21": {"stimulus": 48, "trial": 21, "rt": 1973, "correctcat": 0, "response": 0}, "22": {"stimulus": 30, "trial": 22, "rt": 1847, "correctcat": 0, "response": 1}, "23": {"stimulus": 20, "trial": 23, "rt": 1306, "correctcat": 1, "response": 0}, "28": {"stimulus": 48, "trial": 28, "rt": 1913, "correctcat": 0, "response": 0}, "29": {"stimulus": 8, "trial": 29, "rt": 3116, "correctcat": 1, "response": 1}, "1": {"stimulus": 8, "trial": 1, "rt": 1915, "correctcat": 1, "response": 1}, "0": {"stimulus": 0, "trial": 0, "rt": 4514, "correctcat": 1, "response": 1}, "3": {"stimulus": 32, "trial": 3, "rt": 4651, "correctcat": 0, "response": 1}, "2": {"stimulus": 1, "trial": 2, "rt": 2177, "correctcat": 1, "response": 1}, "5": {"stimulus": 50, "trial": 5, "rt": 1894, "correctcat": 0, "response": 0}, "4": {"stimulus": 30, "trial": 4, "rt": 2020, "correctcat": 0, "response": 0}, "7": {"stimulus": 20, "trial": 7, "rt": 1939, "correctcat": 1, "response": 1}, "6": {"stimulus": 48, "trial": 6, "rt": 2164, "correctcat": 0, "response": 0}, "9": {"stimulus": 32, "trial": 9, "rt": 2507, "correctcat": 0, "response": 0}, "8": {"stimulus": 48, "trial": 8, "rt": 2103, "correctcat": 0, "response": 0}, "11": {"stimulus": 30, "trial": 11, "rt": 2050, "correctcat": 0, "response": 0}, "10": {"stimulus": 1, "trial": 10, "rt": 1717, "correctcat": 1, "response": 1}, "13": {"stimulus": 20, "trial": 13, "rt": 321, "correctcat": 1, "response": 1}, "12": {"stimulus": 0, "trial": 12, "rt": 2466, "correctcat": 1, "response": 1}, "15": {"stimulus": 50, "trial": 15, "rt": 2799, "correctcat": 0, "response": 0}, "14": {"stimulus": 8, "trial": 14, "rt": 1884, "correctcat": 1, "response": 1}, "17": {"stimulus": 8, "trial": 17, "rt": 1649, "correctcat": 1, "response": 1}, "16": {"stimulus": 32, "trial": 16, "rt": 2514, "correctcat": 0, "response": 0}, "19": {"stimulus": 50, "trial": 19, "rt": 1909, "correctcat": 0, "response": 0}, "18": {"stimulus": 0, "trial": 18, "rt": 2651, "correctcat": 1, "response": 1}, "31": {"stimulus": 0, "trial": 31, "rt": 1838, "correctcat": 1, "response": 1}, "30": {"stimulus": 20, "trial": 30, "rt": 1953, "correctcat": 1, "response": 1}}, "experiment": {"Paradigm": "TACL", "Stimuli": "Size-Color Squares", "Experiment": "Assigning-Generated-Categories"}, "goodness": {"1": {"stimulus": 8, "trial": 1, "categoryRate": "NA", "rt": 13939, "rating": 9}, "0": {"stimulus": 30, "trial": 0, "categoryRate": "NA", "rt": 6841, "rating": 8}, "3": {"stimulus": 0, "trial": 3, "categoryRate": "NA", "rt": 2319, "rating": 9}, "2": {"stimulus": 48, "trial": 2, "categoryRate": "NA", "rt": 2426, "rating": 9}, "5": {"stimulus": 50, "trial": 5, "categoryRate": "NA", "rt": 2953, "rating": 9}, "4": {"stimulus": 1, "trial": 4, "categoryRate": "NA", "rt": 3388, "rating": 9}, "7": {"stimulus": 32, "trial": 7, "categoryRate": "NA", "rt": 1840, "rating": 9}, "6": {"stimulus": 20, "trial": 6, "categoryRate": "NA", "rt": 1513, "rating": 9}, "9": {"stimulus": -1, "trial": 9, "categoryRate": "Alpha", "rt": 4063, "rating": 8}, "8": {"stimulus": -1, "trial": 8, "categoryRate": "Beta", "rt": 21322, "rating": 8}}, "submit": {"timeTotal": 317173, "age": "28", "comments": "NA ", "sex": "Female "}}