{"info": {"finish": 1521102466394, "participant": 107, "exposed": true, "stimuli": [30, 32, 48, 50, 8, 71, 80, 17], "lab": false, "pptmatch": 107, "start": 1521101309231, "catflip": true, "categories": [1, 1, 1, 1, 0, 0, 0, 0], "counterbalance": 7, "condition": "Middle", "browser": {"platform": "Win64", "userAgent": "Mozilla/5.0 (Windows NT 10.0; Win64; x64; rv:58.0) Gecko/20100101 Firefox/58.0"}}, "assignment": {"24": {"stimulus": 48, "trial": 24, "rt": 110643, "correctcat": 1, "response": 0}, "25": {"stimulus": 71, "trial": 25, "rt": 858, "correctcat": 0, "response": 1}, "26": {"stimulus": 80, "trial": 26, "rt": 1642, "correctcat": 0, "response": 0}, "27": {"stimulus": 32, "trial": 27, "rt": 1261, "correctcat": 1, "response": 1}, "20": {"stimulus": 50, "trial": 20, "rt": 2287, "correctcat": 1, "response": 0}, "21": {"stimulus": 48, "trial": 21, "rt": 8524, "correctcat": 1, "response": 1}, "22": {"stimulus": 8, "trial": 22, "rt": 1495, "correctcat": 0, "response": 0}, "23": {"stimulus": 80, "trial": 23, "rt": 32292, "correctcat": 0, "response": 0}, "28": {"stimulus": 8, "trial": 28, "rt": 1782, "correctcat": 0, "response": 0}, "29": {"stimulus": 50, "trial": 29, "rt": 693, "correctcat": 1, "response": 0}, "1": {"stimulus": 17, "trial": 1, "rt": 564423, "correctcat": 0, "response": 0}, "0": {"stimulus": 8, "trial": 0, "rt": 1673, "correctcat": 0, "response": 0}, "3": {"stimulus": 30, "trial": 3, "rt": 14948, "correctcat": 1, "response": 1}, "2": {"stimulus": 50, "trial": 2, "rt": 6720, "correctcat": 1, "response": 0}, "5": {"stimulus": 48, "trial": 5, "rt": 9249, "correctcat": 1, "response": 0}, "4": {"stimulus": 80, "trial": 4, "rt": 6788, "correctcat": 0, "response": 0}, "7": {"stimulus": 71, "trial": 7, "rt": 23527, "correctcat": 0, "response": 0}, "6": {"stimulus": 32, "trial": 6, "rt": 1247, "correctcat": 1, "response": 1}, "9": {"stimulus": 71, "trial": 9, "rt": 7065, "correctcat": 0, "response": 0}, "8": {"stimulus": 17, "trial": 8, "rt": 8265, "correctcat": 0, "response": 0}, "11": {"stimulus": 48, "trial": 11, "rt": 1547, "correctcat": 1, "response": 1}, "10": {"stimulus": 8, "trial": 10, "rt": 75075, "correctcat": 0, "response": 0}, "13": {"stimulus": 32, "trial": 13, "rt": 1215, "correctcat": 1, "response": 1}, "12": {"stimulus": 30, "trial": 12, "rt": 3342, "correctcat": 1, "response": 1}, "15": {"stimulus": 50, "trial": 15, "rt": 3185, "correctcat": 1, "response": 0}, "14": {"stimulus": 80, "trial": 14, "rt": 877, "correctcat": 0, "response": 0}, "17": {"stimulus": 30, "trial": 17, "rt": 4459, "correctcat": 1, "response": 0}, "16": {"stimulus": 32, "trial": 16, "rt": 8499, "correctcat": 1, "response": 0}, "19": {"stimulus": 17, "trial": 19, "rt": 5137, "correctcat": 0, "response": 0}, "18": {"stimulus": 71, "trial": 18, "rt": 3456, "correctcat": 0, "response": 0}, "31": {"stimulus": 17, "trial": 31, "rt": 4620, "correctcat": 0, "response": 0}, "30": {"stimulus": 30, "trial": 30, "rt": 804, "correctcat": 1, "response": 1}}, "experiment": {"Paradigm": "TACL", "Stimuli": "Size-Color Squares", "Experiment": "Assigning-Generated-Categories"}, "goodness": {"1": {"stimulus": 71, "trial": 1, "categoryRate": "NA", "rt": 3699, "rating": 7}, "0": {"stimulus": 50, "trial": 0, "categoryRate": "NA", "rt": 3521, "rating": 6}, "3": {"stimulus": 48, "trial": 3, "categoryRate": "NA", "rt": 2460, "rating": 6}, "2": {"stimulus": 80, "trial": 2, "categoryRate": "NA", "rt": 25989, "rating": 7}, "5": {"stimulus": 8, "trial": 5, "categoryRate": "NA", "rt": 1683, "rating": 6}, "4": {"stimulus": 30, "trial": 4, "categoryRate": "NA", "rt": 27893, "rating": 8}, "7": {"stimulus": 17, "trial": 7, "categoryRate": "NA", "rt": 12090, "rating": 6}, "6": {"stimulus": 32, "trial": 6, "categoryRate": "NA", "rt": 16022, "rating": 7}, "9": {"stimulus": -1, "trial": 9, "categoryRate": "Alpha", "rt": 6984, "rating": 6}, "8": {"stimulus": -1, "trial": 8, "categoryRate": "Beta", "rt": 7811, "rating": 6}}, "submit": {}}