{"info": {"finish": 1521106132339, "participant": 116, "exposed": true, "stimuli": [12, 14, 30, 32, 0, 80, 8, 72], "lab": false, "pptmatch": 116, "start": 1521105961643, "catflip": false, "categories": [0, 0, 0, 0, 1, 1, 1, 1], "counterbalance": 0, "condition": "Bottom", "browser": {"platform": "Win32", "userAgent": "Mozilla/5.0 (Windows NT 10.0; Win64; x64) AppleWebKit/537.36 (KHTML, like Gecko) Chrome/65.0.3325.162 Safari/537.36"}}, "assignment": {"24": {"stimulus": 32, "trial": 24, "rt": 636, "correctcat": 0, "response": 0}, "25": {"stimulus": 80, "trial": 25, "rt": 602, "correctcat": 1, "response": 0}, "26": {"stimulus": 8, "trial": 26, "rt": 504, "correctcat": 1, "response": 0}, "27": {"stimulus": 12, "trial": 27, "rt": 616, "correctcat": 0, "response": 0}, "20": {"stimulus": 12, "trial": 20, "rt": 547, "correctcat": 0, "response": 0}, "21": {"stimulus": 80, "trial": 21, "rt": 538, "correctcat": 1, "response": 0}, "22": {"stimulus": 32, "trial": 22, "rt": 666, "correctcat": 0, "response": 0}, "23": {"stimulus": 14, "trial": 23, "rt": 569, "correctcat": 0, "response": 0}, "28": {"stimulus": 0, "trial": 28, "rt": 624, "correctcat": 1, "response": 0}, "29": {"stimulus": 72, "trial": 29, "rt": 512, "correctcat": 1, "response": 0}, "1": {"stimulus": 14, "trial": 1, "rt": 1232, "correctcat": 0, "response": 0}, "0": {"stimulus": 80, "trial": 0, "rt": 3186, "correctcat": 1, "response": 1}, "3": {"stimulus": 32, "trial": 3, "rt": 1257, "correctcat": 0, "response": 1}, "2": {"stimulus": 8, "trial": 2, "rt": 1170, "correctcat": 1, "response": 0}, "5": {"stimulus": 72, "trial": 5, "rt": 841, "correctcat": 1, "response": 1}, "4": {"stimulus": 0, "trial": 4, "rt": 1383, "correctcat": 1, "response": 0}, "7": {"stimulus": 30, "trial": 7, "rt": 561, "correctcat": 0, "response": 1}, "6": {"stimulus": 12, "trial": 6, "rt": 668, "correctcat": 0, "response": 1}, "9": {"stimulus": 32, "trial": 9, "rt": 553, "correctcat": 0, "response": 0}, "8": {"stimulus": 14, "trial": 8, "rt": 707, "correctcat": 0, "response": 0}, "11": {"stimulus": 8, "trial": 11, "rt": 502, "correctcat": 1, "response": 0}, "10": {"stimulus": 30, "trial": 10, "rt": 548, "correctcat": 0, "response": 0}, "13": {"stimulus": 72, "trial": 13, "rt": 483, "correctcat": 1, "response": 0}, "12": {"stimulus": 80, "trial": 12, "rt": 495, "correctcat": 1, "response": 0}, "15": {"stimulus": 0, "trial": 15, "rt": 531, "correctcat": 1, "response": 0}, "14": {"stimulus": 12, "trial": 14, "rt": 677, "correctcat": 0, "response": 0}, "17": {"stimulus": 72, "trial": 17, "rt": 516, "correctcat": 1, "response": 0}, "16": {"stimulus": 30, "trial": 16, "rt": 592, "correctcat": 0, "response": 0}, "19": {"stimulus": 8, "trial": 19, "rt": 528, "correctcat": 1, "response": 0}, "18": {"stimulus": 0, "trial": 18, "rt": 555, "correctcat": 1, "response": 0}, "31": {"stimulus": 14, "trial": 31, "rt": 685, "correctcat": 0, "response": 0}, "30": {"stimulus": 30, "trial": 30, "rt": 646, "correctcat": 0, "response": 0}}, "experiment": {"Paradigm": "TACL", "Stimuli": "Size-Color Squares", "Experiment": "Assigning-Generated-Categories"}, "goodness": {"1": {"stimulus": 8, "trial": 1, "categoryRate": "NA", "rt": 5518, "rating": 7}, "0": {"stimulus": 32, "trial": 0, "categoryRate": "NA", "rt": 7584, "rating": 6}, "3": {"stimulus": 30, "trial": 3, "categoryRate": "NA", "rt": 6872, "rating": 6}, "2": {"stimulus": 72, "trial": 2, "categoryRate": "NA", "rt": 3347, "rating": 6}, "5": {"stimulus": 0, "trial": 5, "categoryRate": "NA", "rt": 2119, "rating": 4}, "4": {"stimulus": 14, "trial": 4, "categoryRate": "NA", "rt": 2633, "rating": 8}, "7": {"stimulus": 80, "trial": 7, "categoryRate": "NA", "rt": 1769, "rating": 6}, "6": {"stimulus": 12, "trial": 6, "categoryRate": "NA", "rt": 2460, "rating": 7}, "9": {"stimulus": -1, "trial": 9, "categoryRate": "Alpha", "rt": 3650, "rating": 7}, "8": {"stimulus": -1, "trial": 8, "categoryRate": "Beta", "rt": 4171, "rating": 7}}, "submit": {"timeTotal": 170875, "age": "31", "comments": "it was about how we view shapes", "sex": "male"}}