{"info": {"finish": 1521105456934, "participant": 119, "exposed": true, "stimuli": [30, 32, 48, 50, 1, 0, 20, 10], "lab": false, "pptmatch": 119, "start": 1521105262944, "catflip": false, "categories": [0, 0, 0, 0, 1, 1, 1, 1], "counterbalance": 4, "condition": "Middle", "browser": {"platform": "Win32", "userAgent": "Mozilla/5.0 (Windows NT 10.0; WOW64; rv:59.0) Gecko/20100101 Firefox/59.0"}}, "assignment": {"24": {"stimulus": 30, "trial": 24, "rt": 1278, "correctcat": 0, "response": 0}, "25": {"stimulus": 1, "trial": 25, "rt": 380, "correctcat": 1, "response": 1}, "26": {"stimulus": 50, "trial": 26, "rt": 348, "correctcat": 0, "response": 1}, "27": {"stimulus": 48, "trial": 27, "rt": 452, "correctcat": 0, "response": 0}, "20": {"stimulus": 10, "trial": 20, "rt": 2388, "correctcat": 1, "response": 0}, "21": {"stimulus": 1, "trial": 21, "rt": 4450, "correctcat": 1, "response": 0}, "22": {"stimulus": 20, "trial": 22, "rt": 2948, "correctcat": 1, "response": 1}, "23": {"stimulus": 50, "trial": 23, "rt": 1318, "correctcat": 0, "response": 0}, "28": {"stimulus": 0, "trial": 28, "rt": 608, "correctcat": 1, "response": 0}, "29": {"stimulus": 20, "trial": 29, "rt": 3650, "correctcat": 1, "response": 1}, "1": {"stimulus": 20, "trial": 1, "rt": 1142, "correctcat": 1, "response": 1}, "0": {"stimulus": 50, "trial": 0, "rt": 1850, "correctcat": 0, "response": 1}, "3": {"stimulus": 1, "trial": 3, "rt": 7168, "correctcat": 1, "response": 0}, "2": {"stimulus": 48, "trial": 2, "rt": 894, "correctcat": 0, "response": 1}, "5": {"stimulus": 0, "trial": 5, "rt": 422, "correctcat": 1, "response": 1}, "4": {"stimulus": 10, "trial": 4, "rt": 804, "correctcat": 1, "response": 1}, "7": {"stimulus": 30, "trial": 7, "rt": 3544, "correctcat": 0, "response": 1}, "6": {"stimulus": 32, "trial": 6, "rt": 608, "correctcat": 0, "response": 0}, "9": {"stimulus": 48, "trial": 9, "rt": 972, "correctcat": 0, "response": 0}, "8": {"stimulus": 10, "trial": 8, "rt": 812, "correctcat": 1, "response": 1}, "11": {"stimulus": 0, "trial": 11, "rt": 2076, "correctcat": 1, "response": 1}, "10": {"stimulus": 32, "trial": 10, "rt": 444, "correctcat": 0, "response": 0}, "13": {"stimulus": 20, "trial": 13, "rt": 2238, "correctcat": 1, "response": 1}, "12": {"stimulus": 30, "trial": 12, "rt": 7204, "correctcat": 0, "response": 0}, "15": {"stimulus": 1, "trial": 15, "rt": 1834, "correctcat": 1, "response": 1}, "14": {"stimulus": 50, "trial": 14, "rt": 1662, "correctcat": 0, "response": 0}, "17": {"stimulus": 30, "trial": 17, "rt": 2426, "correctcat": 0, "response": 0}, "16": {"stimulus": 48, "trial": 16, "rt": 2272, "correctcat": 0, "response": 0}, "19": {"stimulus": 0, "trial": 19, "rt": 834, "correctcat": 1, "response": 0}, "18": {"stimulus": 32, "trial": 18, "rt": 1244, "correctcat": 0, "response": 1}, "31": {"stimulus": 32, "trial": 31, "rt": 966, "correctcat": 0, "response": 0}, "30": {"stimulus": 10, "trial": 30, "rt": 2014, "correctcat": 1, "response": 0}}, "experiment": {"Paradigm": "TACL", "Stimuli": "Size-Color Squares", "Experiment": "Assigning-Generated-Categories"}, "goodness": {"1": {"stimulus": 10, "trial": 1, "categoryRate": "NA", "rt": 4532, "rating": 6}, "0": {"stimulus": 48, "trial": 0, "categoryRate": "NA", "rt": 5654, "rating": 5}, "3": {"stimulus": 30, "trial": 3, "categoryRate": "NA", "rt": 1218, "rating": 7}, "2": {"stimulus": 0, "trial": 2, "categoryRate": "NA", "rt": 1608, "rating": 2}, "5": {"stimulus": 32, "trial": 5, "categoryRate": "NA", "rt": 1456, "rating": 2}, "4": {"stimulus": 1, "trial": 4, "categoryRate": "NA", "rt": 2726, "rating": 4}, "7": {"stimulus": 50, "trial": 7, "categoryRate": "NA", "rt": 2056, "rating": 3}, "6": {"stimulus": 20, "trial": 6, "categoryRate": "NA", "rt": 2056, "rating": 7}, "9": {"stimulus": -1, "trial": 9, "categoryRate": "Beta", "rt": 2208, "rating": 8}, "8": {"stimulus": -1, "trial": 8, "categoryRate": "Alpha", "rt": 3528, "rating": 7}}, "submit": {}}