{"info": {"finish": 1520924693313, "participant": 12, "exposed": true, "stimuli": [12, 14, 30, 32, 72, 80, 78, 79], "lab": false, "pptmatch": 12, "start": 1520924422862, "catflip": false, "categories": [0, 0, 0, 0, 1, 1, 1, 1], "counterbalance": 6, "condition": "Bottom", "browser": {"platform": "Win32", "userAgent": "Mozilla/5.0 (Windows NT 10.0; Win64; x64) AppleWebKit/537.36 (KHTML, like Gecko) Chrome/64.0.3282.186 Safari/537.36"}}, "assignment": {"24": {"stimulus": 32, "trial": 24, "rt": 1681, "correctcat": 0, "response": 0}, "25": {"stimulus": 80, "trial": 25, "rt": 1096, "correctcat": 1, "response": 1}, "26": {"stimulus": 30, "trial": 26, "rt": 1073, "correctcat": 0, "response": 0}, "27": {"stimulus": 14, "trial": 27, "rt": 805, "correctcat": 0, "response": 0}, "20": {"stimulus": 80, "trial": 20, "rt": 1047, "correctcat": 1, "response": 1}, "21": {"stimulus": 30, "trial": 21, "rt": 1089, "correctcat": 0, "response": 0}, "22": {"stimulus": 72, "trial": 22, "rt": 1518, "correctcat": 1, "response": 1}, "23": {"stimulus": 79, "trial": 23, "rt": 1269, "correctcat": 1, "response": 1}, "28": {"stimulus": 72, "trial": 28, "rt": 2027, "correctcat": 1, "response": 1}, "29": {"stimulus": 79, "trial": 29, "rt": 795, "correctcat": 1, "response": 1}, "1": {"stimulus": 78, "trial": 1, "rt": 2015, "correctcat": 1, "response": 0}, "0": {"stimulus": 72, "trial": 0, "rt": 7774, "correctcat": 1, "response": 1}, "3": {"stimulus": 12, "trial": 3, "rt": 1357, "correctcat": 0, "response": 0}, "2": {"stimulus": 30, "trial": 2, "rt": 1558, "correctcat": 0, "response": 1}, "5": {"stimulus": 80, "trial": 5, "rt": 955, "correctcat": 1, "response": 1}, "4": {"stimulus": 14, "trial": 4, "rt": 1333, "correctcat": 0, "response": 0}, "7": {"stimulus": 32, "trial": 7, "rt": 1519, "correctcat": 0, "response": 0}, "6": {"stimulus": 79, "trial": 6, "rt": 636, "correctcat": 1, "response": 1}, "9": {"stimulus": 72, "trial": 9, "rt": 2114, "correctcat": 1, "response": 0}, "8": {"stimulus": 79, "trial": 8, "rt": 1226, "correctcat": 1, "response": 1}, "11": {"stimulus": 30, "trial": 11, "rt": 2280, "correctcat": 0, "response": 1}, "10": {"stimulus": 32, "trial": 10, "rt": 964, "correctcat": 0, "response": 0}, "13": {"stimulus": 78, "trial": 13, "rt": 1314, "correctcat": 1, "response": 1}, "12": {"stimulus": 14, "trial": 12, "rt": 1379, "correctcat": 0, "response": 0}, "15": {"stimulus": 12, "trial": 15, "rt": 1559, "correctcat": 0, "response": 0}, "14": {"stimulus": 80, "trial": 14, "rt": 1453, "correctcat": 1, "response": 1}, "17": {"stimulus": 12, "trial": 17, "rt": 792, "correctcat": 0, "response": 0}, "16": {"stimulus": 78, "trial": 16, "rt": 791, "correctcat": 1, "response": 1}, "19": {"stimulus": 32, "trial": 19, "rt": 1143, "correctcat": 0, "response": 0}, "18": {"stimulus": 14, "trial": 18, "rt": 1081, "correctcat": 0, "response": 0}, "31": {"stimulus": 78, "trial": 31, "rt": 999, "correctcat": 1, "response": 1}, "30": {"stimulus": 12, "trial": 30, "rt": 917, "correctcat": 0, "response": 0}}, "experiment": {"Paradigm": "TACL", "Stimuli": "Size-Color Squares", "Experiment": "Assigning-Generated-Categories"}, "goodness": {"1": {"stimulus": 72, "trial": 1, "categoryRate": "NA", "rt": 8559, "rating": 8}, "0": {"stimulus": 78, "trial": 0, "categoryRate": "NA", "rt": 9978, "rating": 7}, "3": {"stimulus": 79, "trial": 3, "categoryRate": "NA", "rt": 3161, "rating": 6}, "2": {"stimulus": 12, "trial": 2, "categoryRate": "NA", "rt": 9186, "rating": 6}, "5": {"stimulus": 14, "trial": 5, "categoryRate": "NA", "rt": 3984, "rating": 6}, "4": {"stimulus": 32, "trial": 4, "categoryRate": "NA", "rt": 3022, "rating": 8}, "7": {"stimulus": 30, "trial": 7, "categoryRate": "NA", "rt": 2624, "rating": 6}, "6": {"stimulus": 80, "trial": 6, "categoryRate": "NA", "rt": 2384, "rating": 8}, "9": {"stimulus": -1, "trial": 9, "categoryRate": "Beta", "rt": 10440, "rating": 7}, "8": {"stimulus": -1, "trial": 8, "categoryRate": "Alpha", "rt": 8411, "rating": 8}}, "submit": {"timeTotal": 287228, "age": "39", "comments": "enjoyed", "sex": "male"}}