{"info": {"finish": 1521106300434, "participant": 120, "exposed": true, "stimuli": [30, 32, 48, 50, 18, 0, 1, 9], "lab": false, "pptmatch": 120, "start": 1521106040904, "catflip": true, "categories": [1, 1, 1, 1, 0, 0, 0, 0], "counterbalance": 4, "condition": "Middle", "browser": {"platform": "Win64", "userAgent": "Mozilla/5.0 (Windows NT 10.0; Win64; x64; rv:58.0) Gecko/20100101 Firefox/58.0"}}, "assignment": {"24": {"stimulus": 0, "trial": 24, "rt": 586, "correctcat": 0, "response": 0}, "25": {"stimulus": 18, "trial": 25, "rt": 918, "correctcat": 0, "response": 0}, "26": {"stimulus": 48, "trial": 26, "rt": 1470, "correctcat": 1, "response": 1}, "27": {"stimulus": 32, "trial": 27, "rt": 927, "correctcat": 1, "response": 1}, "20": {"stimulus": 50, "trial": 20, "rt": 1610, "correctcat": 1, "response": 1}, "21": {"stimulus": 48, "trial": 21, "rt": 759, "correctcat": 1, "response": 1}, "22": {"stimulus": 30, "trial": 22, "rt": 845, "correctcat": 1, "response": 1}, "23": {"stimulus": 1, "trial": 23, "rt": 1360, "correctcat": 0, "response": 0}, "28": {"stimulus": 50, "trial": 28, "rt": 672, "correctcat": 1, "response": 1}, "29": {"stimulus": 9, "trial": 29, "rt": 1743, "correctcat": 0, "response": 0}, "1": {"stimulus": 1, "trial": 1, "rt": 4973, "correctcat": 0, "response": 1}, "0": {"stimulus": 48, "trial": 0, "rt": 3118, "correctcat": 1, "response": 0}, "3": {"stimulus": 50, "trial": 3, "rt": 1903, "correctcat": 1, "response": 1}, "2": {"stimulus": 9, "trial": 2, "rt": 3678, "correctcat": 0, "response": 0}, "5": {"stimulus": 30, "trial": 5, "rt": 1684, "correctcat": 1, "response": 1}, "4": {"stimulus": 18, "trial": 4, "rt": 1826, "correctcat": 0, "response": 0}, "7": {"stimulus": 0, "trial": 7, "rt": 2379, "correctcat": 0, "response": 1}, "6": {"stimulus": 32, "trial": 6, "rt": 1081, "correctcat": 1, "response": 1}, "9": {"stimulus": 0, "trial": 9, "rt": 974, "correctcat": 0, "response": 0}, "8": {"stimulus": 18, "trial": 8, "rt": 1492, "correctcat": 0, "response": 0}, "11": {"stimulus": 48, "trial": 11, "rt": 1691, "correctcat": 1, "response": 1}, "10": {"stimulus": 1, "trial": 10, "rt": 2306, "correctcat": 0, "response": 1}, "13": {"stimulus": 50, "trial": 13, "rt": 752, "correctcat": 1, "response": 1}, "12": {"stimulus": 32, "trial": 12, "rt": 926, "correctcat": 1, "response": 1}, "15": {"stimulus": 9, "trial": 15, "rt": 1454, "correctcat": 0, "response": 0}, "14": {"stimulus": 30, "trial": 14, "rt": 841, "correctcat": 1, "response": 1}, "17": {"stimulus": 32, "trial": 17, "rt": 1972, "correctcat": 1, "response": 1}, "16": {"stimulus": 0, "trial": 16, "rt": 1117, "correctcat": 0, "response": 0}, "19": {"stimulus": 18, "trial": 19, "rt": 871, "correctcat": 0, "response": 0}, "18": {"stimulus": 9, "trial": 18, "rt": 2165, "correctcat": 0, "response": 0}, "31": {"stimulus": 30, "trial": 31, "rt": 1468, "correctcat": 1, "response": 1}, "30": {"stimulus": 1, "trial": 30, "rt": 2622, "correctcat": 0, "response": 0}}, "experiment": {"Paradigm": "TACL", "Stimuli": "Size-Color Squares", "Experiment": "Assigning-Generated-Categories"}, "goodness": {"1": {"stimulus": 18, "trial": 1, "categoryRate": "NA", "rt": 6346, "rating": 9}, "0": {"stimulus": 48, "trial": 0, "categoryRate": "NA", "rt": 11423, "rating": 7}, "3": {"stimulus": 32, "trial": 3, "categoryRate": "NA", "rt": 3853, "rating": 9}, "2": {"stimulus": 9, "trial": 2, "categoryRate": "NA", "rt": 3252, "rating": 8}, "5": {"stimulus": 0, "trial": 5, "categoryRate": "NA", "rt": 3513, "rating": 10}, "4": {"stimulus": 30, "trial": 4, "categoryRate": "NA", "rt": 2979, "rating": 8}, "7": {"stimulus": 50, "trial": 7, "categoryRate": "NA", "rt": 5589, "rating": 9}, "6": {"stimulus": 1, "trial": 6, "categoryRate": "NA", "rt": 2851, "rating": 9}, "9": {"stimulus": -1, "trial": 9, "categoryRate": "Beta", "rt": 5271, "rating": 8}, "8": {"stimulus": -1, "trial": 8, "categoryRate": "Alpha", "rt": 12104, "rating": 9}}, "submit": {}}