{"info": {"finish": 1521106762958, "participant": 122, "exposed": true, "stimuli": [30, 32, 48, 50, 74, 78, 16, 3], "lab": false, "pptmatch": 18, "start": 1521106566790, "catflip": false, "categories": [0, 0, 0, 0, 1, 1, 1, 1], "counterbalance": 2, "condition": "Middle", "browser": {"platform": "Win32", "userAgent": "Mozilla/5.0 (Windows NT 6.1; Win64; x64) AppleWebKit/537.36 (KHTML, like Gecko) Chrome/65.0.3325.162 Safari/537.36"}}, "assignment": {"24": {"stimulus": 3, "trial": 24, "rt": 873, "correctcat": 1, "response": 1}, "25": {"stimulus": 50, "trial": 25, "rt": 1453, "correctcat": 0, "response": 0}, "26": {"stimulus": 30, "trial": 26, "rt": 1033, "correctcat": 0, "response": 0}, "27": {"stimulus": 78, "trial": 27, "rt": 1090, "correctcat": 1, "response": 1}, "20": {"stimulus": 3, "trial": 20, "rt": 992, "correctcat": 1, "response": 1}, "21": {"stimulus": 78, "trial": 21, "rt": 869, "correctcat": 1, "response": 0}, "22": {"stimulus": 16, "trial": 22, "rt": 793, "correctcat": 1, "response": 1}, "23": {"stimulus": 74, "trial": 23, "rt": 1030, "correctcat": 1, "response": 1}, "28": {"stimulus": 48, "trial": 28, "rt": 880, "correctcat": 0, "response": 0}, "29": {"stimulus": 32, "trial": 29, "rt": 887, "correctcat": 0, "response": 0}, "1": {"stimulus": 78, "trial": 1, "rt": 1079, "correctcat": 1, "response": 0}, "0": {"stimulus": 3, "trial": 0, "rt": 3568, "correctcat": 1, "response": 1}, "3": {"stimulus": 32, "trial": 3, "rt": 1070, "correctcat": 0, "response": 0}, "2": {"stimulus": 16, "trial": 2, "rt": 1016, "correctcat": 1, "response": 1}, "5": {"stimulus": 48, "trial": 5, "rt": 873, "correctcat": 0, "response": 0}, "4": {"stimulus": 50, "trial": 4, "rt": 949, "correctcat": 0, "response": 0}, "7": {"stimulus": 30, "trial": 7, "rt": 1247, "correctcat": 0, "response": 0}, "6": {"stimulus": 74, "trial": 6, "rt": 1575, "correctcat": 1, "response": 0}, "9": {"stimulus": 50, "trial": 9, "rt": 969, "correctcat": 0, "response": 1}, "8": {"stimulus": 74, "trial": 8, "rt": 1088, "correctcat": 1, "response": 0}, "11": {"stimulus": 16, "trial": 11, "rt": 816, "correctcat": 1, "response": 1}, "10": {"stimulus": 48, "trial": 10, "rt": 829, "correctcat": 0, "response": 0}, "13": {"stimulus": 32, "trial": 13, "rt": 967, "correctcat": 0, "response": 1}, "12": {"stimulus": 78, "trial": 12, "rt": 1326, "correctcat": 1, "response": 1}, "15": {"stimulus": 30, "trial": 15, "rt": 1341, "correctcat": 0, "response": 0}, "14": {"stimulus": 3, "trial": 14, "rt": 976, "correctcat": 1, "response": 1}, "17": {"stimulus": 30, "trial": 17, "rt": 913, "correctcat": 0, "response": 0}, "16": {"stimulus": 32, "trial": 16, "rt": 768, "correctcat": 0, "response": 0}, "19": {"stimulus": 50, "trial": 19, "rt": 864, "correctcat": 0, "response": 0}, "18": {"stimulus": 48, "trial": 18, "rt": 1767, "correctcat": 0, "response": 1}, "31": {"stimulus": 16, "trial": 31, "rt": 704, "correctcat": 1, "response": 1}, "30": {"stimulus": 74, "trial": 30, "rt": 838, "correctcat": 1, "response": 1}}, "experiment": {"Paradigm": "TACL", "Stimuli": "Size-Color Squares", "Experiment": "Assigning-Generated-Categories"}, "goodness": {"1": {"stimulus": 50, "trial": 1, "categoryRate": "NA", "rt": 2521, "rating": 6}, "0": {"stimulus": 30, "trial": 0, "categoryRate": "NA", "rt": 19719, "rating": 2}, "3": {"stimulus": 78, "trial": 3, "categoryRate": "NA", "rt": 2100, "rating": 1}, "2": {"stimulus": 3, "trial": 2, "categoryRate": "NA", "rt": 2745, "rating": 0}, "5": {"stimulus": 16, "trial": 5, "categoryRate": "NA", "rt": 2141, "rating": 8}, "4": {"stimulus": 48, "trial": 4, "categoryRate": "NA", "rt": 1887, "rating": 3}, "7": {"stimulus": 32, "trial": 7, "categoryRate": "NA", "rt": 3405, "rating": 9}, "6": {"stimulus": 74, "trial": 6, "categoryRate": "NA", "rt": 2838, "rating": 1}, "9": {"stimulus": -1, "trial": 9, "categoryRate": "Alpha", "rt": 2350, "rating": 4}, "8": {"stimulus": -1, "trial": 8, "categoryRate": "Beta", "rt": 6370, "rating": 8}}, "submit": {"timeTotal": 196391, "age": "28", "comments": "I thought the experiment was hard at first but once you learn the pattern it was easy to recognize the difference between Alpha and Beta.", "sex": "Female "}}