{"info": {"finish": 1521107989457, "participant": 127, "exposed": true, "stimuli": [12, 14, 30, 32, 73, 72, 75, 74], "lab": false, "pptmatch": 4, "start": 1521107735223, "catflip": false, "categories": [0, 0, 0, 0, 1, 1, 1, 1], "counterbalance": 0, "condition": "Bottom", "browser": {"platform": "Win32", "userAgent": "Mozilla/5.0 (Windows NT 6.1; Win64; x64) AppleWebKit/537.36 (KHTML, like Gecko) Chrome/64.0.3282.186 Safari/537.36"}}, "assignment": {"24": {"stimulus": 73, "trial": 24, "rt": 1556, "correctcat": 1, "response": 1}, "25": {"stimulus": 14, "trial": 25, "rt": 1686, "correctcat": 0, "response": 0}, "26": {"stimulus": 74, "trial": 26, "rt": 947, "correctcat": 1, "response": 1}, "27": {"stimulus": 32, "trial": 27, "rt": 1246, "correctcat": 0, "response": 0}, "20": {"stimulus": 74, "trial": 20, "rt": 1179, "correctcat": 1, "response": 1}, "21": {"stimulus": 30, "trial": 21, "rt": 1243, "correctcat": 0, "response": 0}, "22": {"stimulus": 73, "trial": 22, "rt": 1444, "correctcat": 1, "response": 1}, "23": {"stimulus": 75, "trial": 23, "rt": 1456, "correctcat": 1, "response": 0}, "28": {"stimulus": 75, "trial": 28, "rt": 1995, "correctcat": 1, "response": 1}, "29": {"stimulus": 72, "trial": 29, "rt": 1184, "correctcat": 1, "response": 1}, "1": {"stimulus": 74, "trial": 1, "rt": 2859, "correctcat": 1, "response": 1}, "0": {"stimulus": 12, "trial": 0, "rt": 5667, "correctcat": 0, "response": 0}, "3": {"stimulus": 72, "trial": 3, "rt": 1753, "correctcat": 1, "response": 1}, "2": {"stimulus": 30, "trial": 2, "rt": 2192, "correctcat": 0, "response": 0}, "5": {"stimulus": 73, "trial": 5, "rt": 958, "correctcat": 1, "response": 1}, "4": {"stimulus": 75, "trial": 4, "rt": 1772, "correctcat": 1, "response": 1}, "7": {"stimulus": 14, "trial": 7, "rt": 1226, "correctcat": 0, "response": 0}, "6": {"stimulus": 32, "trial": 6, "rt": 1724, "correctcat": 0, "response": 0}, "9": {"stimulus": 75, "trial": 9, "rt": 1196, "correctcat": 1, "response": 1}, "8": {"stimulus": 32, "trial": 8, "rt": 1106, "correctcat": 0, "response": 1}, "11": {"stimulus": 12, "trial": 11, "rt": 1645, "correctcat": 0, "response": 0}, "10": {"stimulus": 14, "trial": 10, "rt": 1295, "correctcat": 0, "response": 0}, "13": {"stimulus": 73, "trial": 13, "rt": 1337, "correctcat": 1, "response": 1}, "12": {"stimulus": 74, "trial": 12, "rt": 2203, "correctcat": 1, "response": 1}, "15": {"stimulus": 30, "trial": 15, "rt": 2571, "correctcat": 0, "response": 0}, "14": {"stimulus": 72, "trial": 14, "rt": 1077, "correctcat": 1, "response": 1}, "17": {"stimulus": 72, "trial": 17, "rt": 1076, "correctcat": 1, "response": 1}, "16": {"stimulus": 12, "trial": 16, "rt": 1364, "correctcat": 0, "response": 0}, "19": {"stimulus": 32, "trial": 19, "rt": 2471, "correctcat": 0, "response": 0}, "18": {"stimulus": 14, "trial": 18, "rt": 42682, "correctcat": 0, "response": 0}, "31": {"stimulus": 12, "trial": 31, "rt": 1975, "correctcat": 0, "response": 0}, "30": {"stimulus": 30, "trial": 30, "rt": 997, "correctcat": 0, "response": 0}}, "experiment": {"Paradigm": "TACL", "Stimuli": "Size-Color Squares", "Experiment": "Assigning-Generated-Categories"}, "goodness": {"1": {"stimulus": 14, "trial": 1, "categoryRate": "NA", "rt": 3168, "rating": 0}, "0": {"stimulus": 72, "trial": 0, "categoryRate": "NA", "rt": 7952, "rating": 10}, "3": {"stimulus": 32, "trial": 3, "categoryRate": "NA", "rt": 2342, "rating": 4}, "2": {"stimulus": 30, "trial": 2, "categoryRate": "NA", "rt": 3120, "rating": 2}, "5": {"stimulus": 12, "trial": 5, "categoryRate": "NA", "rt": 2459, "rating": 0}, "4": {"stimulus": 74, "trial": 4, "categoryRate": "NA", "rt": 3690, "rating": 10}, "7": {"stimulus": 75, "trial": 7, "categoryRate": "NA", "rt": 2540, "rating": 8}, "6": {"stimulus": 73, "trial": 6, "categoryRate": "NA", "rt": 2622, "rating": 8}, "9": {"stimulus": -1, "trial": 9, "categoryRate": "Alpha", "rt": 3768, "rating": 2}, "8": {"stimulus": -1, "trial": 8, "categoryRate": "Beta", "rt": 3816, "rating": 7}}, "submit": {"timeTotal": 254552, "age": "28", "comments": "", "sex": "male"}}