{"info": {"finish": 1521108041350, "participant": 129, "exposed": true, "stimuli": [12, 14, 30, 32, 27, 63, 0, 9], "lab": false, "pptmatch": 56, "start": 1521107845933, "catflip": true, "categories": [1, 1, 1, 1, 0, 0, 0, 0], "counterbalance": 7, "condition": "Bottom", "browser": {"platform": "Win32", "userAgent": "Mozilla/5.0 (Windows NT 10.0; Win64; x64) AppleWebKit/537.36 (KHTML, like Gecko) Chrome/64.0.3282.186 Safari/537.36"}}, "assignment": {"24": {"stimulus": 9, "trial": 24, "rt": 1032, "correctcat": 0, "response": 0}, "25": {"stimulus": 27, "trial": 25, "rt": 610, "correctcat": 0, "response": 0}, "26": {"stimulus": 0, "trial": 26, "rt": 736, "correctcat": 0, "response": 0}, "27": {"stimulus": 30, "trial": 27, "rt": 1220, "correctcat": 1, "response": 1}, "20": {"stimulus": 63, "trial": 20, "rt": 1035, "correctcat": 0, "response": 0}, "21": {"stimulus": 12, "trial": 21, "rt": 862, "correctcat": 1, "response": 1}, "22": {"stimulus": 14, "trial": 22, "rt": 543, "correctcat": 1, "response": 1}, "23": {"stimulus": 32, "trial": 23, "rt": 529, "correctcat": 1, "response": 1}, "28": {"stimulus": 14, "trial": 28, "rt": 916, "correctcat": 1, "response": 1}, "29": {"stimulus": 63, "trial": 29, "rt": 875, "correctcat": 0, "response": 0}, "1": {"stimulus": 27, "trial": 1, "rt": 1541, "correctcat": 0, "response": 1}, "0": {"stimulus": 9, "trial": 0, "rt": 4172, "correctcat": 0, "response": 0}, "3": {"stimulus": 14, "trial": 3, "rt": 841, "correctcat": 1, "response": 1}, "2": {"stimulus": 30, "trial": 2, "rt": 1705, "correctcat": 1, "response": 1}, "5": {"stimulus": 0, "trial": 5, "rt": 506, "correctcat": 0, "response": 0}, "4": {"stimulus": 63, "trial": 4, "rt": 821, "correctcat": 0, "response": 0}, "7": {"stimulus": 32, "trial": 7, "rt": 801, "correctcat": 1, "response": 1}, "6": {"stimulus": 12, "trial": 6, "rt": 849, "correctcat": 1, "response": 1}, "9": {"stimulus": 63, "trial": 9, "rt": 598, "correctcat": 0, "response": 0}, "8": {"stimulus": 27, "trial": 8, "rt": 896, "correctcat": 0, "response": 0}, "11": {"stimulus": 0, "trial": 11, "rt": 1037, "correctcat": 0, "response": 0}, "10": {"stimulus": 14, "trial": 10, "rt": 1573, "correctcat": 1, "response": 1}, "13": {"stimulus": 12, "trial": 13, "rt": 983, "correctcat": 1, "response": 1}, "12": {"stimulus": 9, "trial": 12, "rt": 569, "correctcat": 0, "response": 0}, "15": {"stimulus": 32, "trial": 15, "rt": 591, "correctcat": 1, "response": 1}, "14": {"stimulus": 30, "trial": 14, "rt": 658, "correctcat": 1, "response": 1}, "17": {"stimulus": 0, "trial": 17, "rt": 788, "correctcat": 0, "response": 0}, "16": {"stimulus": 9, "trial": 16, "rt": 990, "correctcat": 0, "response": 0}, "19": {"stimulus": 30, "trial": 19, "rt": 1142, "correctcat": 1, "response": 1}, "18": {"stimulus": 27, "trial": 18, "rt": 610, "correctcat": 0, "response": 0}, "31": {"stimulus": 12, "trial": 31, "rt": 1045, "correctcat": 1, "response": 1}, "30": {"stimulus": 32, "trial": 30, "rt": 1171, "correctcat": 1, "response": 1}}, "experiment": {"Paradigm": "TACL", "Stimuli": "Size-Color Squares", "Experiment": "Assigning-Generated-Categories"}, "goodness": {"1": {"stimulus": 30, "trial": 1, "categoryRate": "NA", "rt": 3855, "rating": 7}, "0": {"stimulus": 0, "trial": 0, "categoryRate": "NA", "rt": 4945, "rating": 10}, "3": {"stimulus": 12, "trial": 3, "categoryRate": "NA", "rt": 2859, "rating": 8}, "2": {"stimulus": 9, "trial": 2, "categoryRate": "NA", "rt": 2924, "rating": 10}, "5": {"stimulus": 14, "trial": 5, "categoryRate": "NA", "rt": 2441, "rating": 10}, "4": {"stimulus": 63, "trial": 4, "categoryRate": "NA", "rt": 2298, "rating": 10}, "7": {"stimulus": 32, "trial": 7, "categoryRate": "NA", "rt": 3099, "rating": 9}, "6": {"stimulus": 27, "trial": 6, "categoryRate": "NA", "rt": 3146, "rating": 10}, "9": {"stimulus": -1, "trial": 9, "categoryRate": "Alpha", "rt": 2350, "rating": 10}, "8": {"stimulus": -1, "trial": 8, "categoryRate": "Beta", "rt": 5296, "rating": 8}}, "submit": {"timeTotal": 195759, "age": "32", "comments": "", "sex": "female"}}