{"info": {"finish": 1521108307455, "participant": 130, "exposed": true, "stimuli": [12, 14, 30, 32, 73, 72, 75, 74], "lab": false, "pptmatch": 4, "start": 1521107999604, "catflip": true, "categories": [1, 1, 1, 1, 0, 0, 0, 0], "counterbalance": 0, "condition": "Bottom", "browser": {"platform": "Win32", "userAgent": "Mozilla/5.0 (Windows NT 10.0; WOW64) AppleWebKit/537.36 (KHTML, like Gecko) Chrome/64.0.3282.170 Safari/537.36 Vivaldi/1.95.1077.50"}}, "assignment": {"24": {"stimulus": 73, "trial": 24, "rt": 911, "correctcat": 0, "response": 0}, "25": {"stimulus": 72, "trial": 25, "rt": 644, "correctcat": 0, "response": 0}, "26": {"stimulus": 30, "trial": 26, "rt": 1383, "correctcat": 1, "response": 1}, "27": {"stimulus": 12, "trial": 27, "rt": 571, "correctcat": 1, "response": 1}, "20": {"stimulus": 32, "trial": 20, "rt": 716, "correctcat": 1, "response": 1}, "21": {"stimulus": 72, "trial": 21, "rt": 1270, "correctcat": 0, "response": 0}, "22": {"stimulus": 75, "trial": 22, "rt": 730, "correctcat": 0, "response": 0}, "23": {"stimulus": 12, "trial": 23, "rt": 1059, "correctcat": 1, "response": 1}, "28": {"stimulus": 75, "trial": 28, "rt": 2843, "correctcat": 0, "response": 0}, "29": {"stimulus": 32, "trial": 29, "rt": 7949, "correctcat": 1, "response": 1}, "1": {"stimulus": 12, "trial": 1, "rt": 1042, "correctcat": 1, "response": 1}, "0": {"stimulus": 74, "trial": 0, "rt": 2302, "correctcat": 0, "response": 0}, "3": {"stimulus": 14, "trial": 3, "rt": 1249, "correctcat": 1, "response": 1}, "2": {"stimulus": 72, "trial": 2, "rt": 1167, "correctcat": 0, "response": 0}, "5": {"stimulus": 32, "trial": 5, "rt": 1243, "correctcat": 1, "response": 1}, "4": {"stimulus": 73, "trial": 4, "rt": 1435, "correctcat": 0, "response": 0}, "7": {"stimulus": 75, "trial": 7, "rt": 3154, "correctcat": 0, "response": 0}, "6": {"stimulus": 30, "trial": 6, "rt": 1896, "correctcat": 1, "response": 1}, "9": {"stimulus": 74, "trial": 9, "rt": 639, "correctcat": 0, "response": 0}, "8": {"stimulus": 72, "trial": 8, "rt": 672, "correctcat": 0, "response": 0}, "11": {"stimulus": 14, "trial": 11, "rt": 1249, "correctcat": 1, "response": 1}, "10": {"stimulus": 12, "trial": 10, "rt": 1598, "correctcat": 1, "response": 1}, "13": {"stimulus": 30, "trial": 13, "rt": 681, "correctcat": 1, "response": 1}, "12": {"stimulus": 32, "trial": 12, "rt": 628, "correctcat": 1, "response": 1}, "15": {"stimulus": 73, "trial": 15, "rt": 1184, "correctcat": 0, "response": 0}, "14": {"stimulus": 75, "trial": 14, "rt": 2043, "correctcat": 0, "response": 0}, "17": {"stimulus": 73, "trial": 17, "rt": 887, "correctcat": 0, "response": 0}, "16": {"stimulus": 30, "trial": 16, "rt": 845, "correctcat": 1, "response": 1}, "19": {"stimulus": 14, "trial": 19, "rt": 1194, "correctcat": 1, "response": 1}, "18": {"stimulus": 74, "trial": 18, "rt": 1439, "correctcat": 0, "response": 0}, "31": {"stimulus": 14, "trial": 31, "rt": 1119, "correctcat": 1, "response": 1}, "30": {"stimulus": 74, "trial": 30, "rt": 1261, "correctcat": 0, "response": 0}}, "experiment": {"Paradigm": "TACL", "Stimuli": "Size-Color Squares", "Experiment": "Assigning-Generated-Categories"}, "goodness": {"1": {"stimulus": 74, "trial": 1, "categoryRate": "NA", "rt": 2362, "rating": 2}, "0": {"stimulus": 12, "trial": 0, "categoryRate": "NA", "rt": 5497, "rating": 8}, "3": {"stimulus": 75, "trial": 3, "categoryRate": "NA", "rt": 5324, "rating": 9}, "2": {"stimulus": 72, "trial": 2, "categoryRate": "NA", "rt": 1822, "rating": 4}, "5": {"stimulus": 73, "trial": 5, "categoryRate": "NA", "rt": 1925, "rating": 4}, "4": {"stimulus": 32, "trial": 4, "categoryRate": "NA", "rt": 2356, "rating": 6}, "7": {"stimulus": 14, "trial": 7, "categoryRate": "NA", "rt": 2087, "rating": 10}, "6": {"stimulus": 30, "trial": 6, "categoryRate": "NA", "rt": 1851, "rating": 9}, "9": {"stimulus": -1, "trial": 9, "categoryRate": "Beta", "rt": 2679, "rating": 3}, "8": {"stimulus": -1, "trial": 8, "categoryRate": "Alpha", "rt": 5891, "rating": 8}}, "submit": {"timeTotal": 308097, "age": "29", "comments": "", "sex": "Female"}}