{"info": {"finish": 1521109993287, "participant": 134, "exposed": true, "stimuli": [12, 14, 30, 32, 73, 72, 75, 74], "lab": false, "pptmatch": 4, "start": 1521109723806, "catflip": false, "categories": [0, 0, 0, 0, 1, 1, 1, 1], "counterbalance": 0, "condition": "Bottom", "browser": {"platform": "Win32", "userAgent": "Mozilla/5.0 (Windows NT 10.0; Win64; x64) AppleWebKit/537.36 (KHTML, like Gecko) Chrome/65.0.3325.162 Safari/537.36"}}, "assignment": {"24": {"stimulus": 73, "trial": 24, "rt": 500, "correctcat": 1, "response": 1}, "25": {"stimulus": 74, "trial": 25, "rt": 1013, "correctcat": 1, "response": 1}, "26": {"stimulus": 75, "trial": 26, "rt": 1631, "correctcat": 1, "response": 1}, "27": {"stimulus": 32, "trial": 27, "rt": 954, "correctcat": 0, "response": 0}, "20": {"stimulus": 73, "trial": 20, "rt": 1924, "correctcat": 1, "response": 1}, "21": {"stimulus": 75, "trial": 21, "rt": 879, "correctcat": 1, "response": 1}, "22": {"stimulus": 74, "trial": 22, "rt": 478, "correctcat": 1, "response": 1}, "23": {"stimulus": 72, "trial": 23, "rt": 524, "correctcat": 1, "response": 1}, "28": {"stimulus": 30, "trial": 28, "rt": 880, "correctcat": 0, "response": 0}, "29": {"stimulus": 14, "trial": 29, "rt": 1334, "correctcat": 0, "response": 0}, "1": {"stimulus": 14, "trial": 1, "rt": 698, "correctcat": 0, "response": 0}, "0": {"stimulus": 75, "trial": 0, "rt": 1352, "correctcat": 1, "response": 0}, "3": {"stimulus": 72, "trial": 3, "rt": 557, "correctcat": 1, "response": 1}, "2": {"stimulus": 74, "trial": 2, "rt": 641, "correctcat": 1, "response": 1}, "5": {"stimulus": 32, "trial": 5, "rt": 3706, "correctcat": 0, "response": 0}, "4": {"stimulus": 12, "trial": 4, "rt": 507, "correctcat": 0, "response": 0}, "7": {"stimulus": 73, "trial": 7, "rt": 696, "correctcat": 1, "response": 1}, "6": {"stimulus": 30, "trial": 6, "rt": 545, "correctcat": 0, "response": 0}, "9": {"stimulus": 75, "trial": 9, "rt": 6110, "correctcat": 1, "response": 1}, "8": {"stimulus": 12, "trial": 8, "rt": 646, "correctcat": 0, "response": 0}, "11": {"stimulus": 14, "trial": 11, "rt": 8106, "correctcat": 0, "response": 0}, "10": {"stimulus": 30, "trial": 10, "rt": 5462, "correctcat": 0, "response": 0}, "13": {"stimulus": 32, "trial": 13, "rt": 1394, "correctcat": 0, "response": 0}, "12": {"stimulus": 73, "trial": 12, "rt": 2982, "correctcat": 1, "response": 1}, "15": {"stimulus": 72, "trial": 15, "rt": 851, "correctcat": 1, "response": 1}, "14": {"stimulus": 74, "trial": 14, "rt": 884, "correctcat": 1, "response": 1}, "17": {"stimulus": 30, "trial": 17, "rt": 645, "correctcat": 0, "response": 0}, "16": {"stimulus": 32, "trial": 16, "rt": 746, "correctcat": 0, "response": 0}, "19": {"stimulus": 14, "trial": 19, "rt": 62180, "correctcat": 0, "response": 0}, "18": {"stimulus": 12, "trial": 18, "rt": 660, "correctcat": 0, "response": 0}, "31": {"stimulus": 72, "trial": 31, "rt": 1017, "correctcat": 1, "response": 1}, "30": {"stimulus": 12, "trial": 30, "rt": 605, "correctcat": 0, "response": 0}}, "experiment": {"Paradigm": "TACL", "Stimuli": "Size-Color Squares", "Experiment": "Assigning-Generated-Categories"}, "goodness": {"1": {"stimulus": 73, "trial": 1, "categoryRate": "NA", "rt": 2018, "rating": 9}, "0": {"stimulus": 74, "trial": 0, "categoryRate": "NA", "rt": 5835, "rating": 9}, "3": {"stimulus": 72, "trial": 3, "categoryRate": "NA", "rt": 2577, "rating": 8}, "2": {"stimulus": 32, "trial": 2, "categoryRate": "NA", "rt": 4249, "rating": 7}, "5": {"stimulus": 75, "trial": 5, "categoryRate": "NA", "rt": 6711, "rating": 9}, "4": {"stimulus": 12, "trial": 4, "categoryRate": "NA", "rt": 1502, "rating": 10}, "7": {"stimulus": 30, "trial": 7, "categoryRate": "NA", "rt": 1898, "rating": 7}, "6": {"stimulus": 14, "trial": 6, "categoryRate": "NA", "rt": 3916, "rating": 9}, "9": {"stimulus": -1, "trial": 9, "categoryRate": "Alpha", "rt": 23964, "rating": 7}, "8": {"stimulus": -1, "trial": 8, "categoryRate": "Beta", "rt": 4069, "rating": 9}}, "submit": {"timeTotal": 269633, "age": "23", "comments": "", "sex": "male"}}