{"info": {"finish": 1521111399196, "participant": 135, "exposed": true, "stimuli": [30, 32, 48, 50, 1, 0, 7, 3], "lab": false, "pptmatch": 60, "start": 1521111197410, "catflip": true, "categories": [1, 1, 1, 1, 0, 0, 0, 0], "counterbalance": 0, "condition": "Middle", "browser": {"platform": "Win32", "userAgent": "Mozilla/5.0 (Windows NT 10.0; Win64; x64) AppleWebKit/537.36 (KHTML, like Gecko) Chrome/64.0.3282.186 Safari/537.36"}}, "assignment": {"24": {"stimulus": 3, "trial": 24, "rt": 1121, "correctcat": 0, "response": 0}, "25": {"stimulus": 7, "trial": 25, "rt": 711, "correctcat": 0, "response": 0}, "26": {"stimulus": 0, "trial": 26, "rt": 760, "correctcat": 0, "response": 0}, "27": {"stimulus": 50, "trial": 27, "rt": 1539, "correctcat": 1, "response": 1}, "20": {"stimulus": 50, "trial": 20, "rt": 812, "correctcat": 1, "response": 1}, "21": {"stimulus": 1, "trial": 21, "rt": 535, "correctcat": 0, "response": 0}, "22": {"stimulus": 48, "trial": 22, "rt": 924, "correctcat": 1, "response": 1}, "23": {"stimulus": 7, "trial": 23, "rt": 670, "correctcat": 0, "response": 0}, "28": {"stimulus": 1, "trial": 28, "rt": 669, "correctcat": 0, "response": 0}, "29": {"stimulus": 30, "trial": 29, "rt": 662, "correctcat": 1, "response": 1}, "1": {"stimulus": 3, "trial": 1, "rt": 1112, "correctcat": 0, "response": 0}, "0": {"stimulus": 48, "trial": 0, "rt": 3368, "correctcat": 1, "response": 0}, "3": {"stimulus": 32, "trial": 3, "rt": 1025, "correctcat": 1, "response": 1}, "2": {"stimulus": 30, "trial": 2, "rt": 1015, "correctcat": 1, "response": 1}, "5": {"stimulus": 50, "trial": 5, "rt": 1251, "correctcat": 1, "response": 1}, "4": {"stimulus": 7, "trial": 4, "rt": 1167, "correctcat": 0, "response": 0}, "7": {"stimulus": 1, "trial": 7, "rt": 943, "correctcat": 0, "response": 0}, "6": {"stimulus": 0, "trial": 6, "rt": 513, "correctcat": 0, "response": 0}, "9": {"stimulus": 50, "trial": 9, "rt": 645, "correctcat": 1, "response": 1}, "8": {"stimulus": 1, "trial": 8, "rt": 845, "correctcat": 0, "response": 0}, "11": {"stimulus": 3, "trial": 11, "rt": 849, "correctcat": 0, "response": 0}, "10": {"stimulus": 32, "trial": 10, "rt": 812, "correctcat": 1, "response": 1}, "13": {"stimulus": 48, "trial": 13, "rt": 495, "correctcat": 1, "response": 1}, "12": {"stimulus": 30, "trial": 12, "rt": 893, "correctcat": 1, "response": 1}, "15": {"stimulus": 0, "trial": 15, "rt": 405, "correctcat": 0, "response": 0}, "14": {"stimulus": 7, "trial": 14, "rt": 726, "correctcat": 0, "response": 0}, "17": {"stimulus": 0, "trial": 17, "rt": 752, "correctcat": 0, "response": 0}, "16": {"stimulus": 30, "trial": 16, "rt": 511, "correctcat": 1, "response": 1}, "19": {"stimulus": 3, "trial": 19, "rt": 439, "correctcat": 0, "response": 0}, "18": {"stimulus": 32, "trial": 18, "rt": 518, "correctcat": 1, "response": 1}, "31": {"stimulus": 32, "trial": 31, "rt": 792, "correctcat": 1, "response": 1}, "30": {"stimulus": 48, "trial": 30, "rt": 750, "correctcat": 1, "response": 1}}, "experiment": {"Paradigm": "TACL", "Stimuli": "Size-Color Squares", "Experiment": "Assigning-Generated-Categories"}, "goodness": {"1": {"stimulus": 50, "trial": 1, "categoryRate": "NA", "rt": 2553, "rating": 7}, "0": {"stimulus": 32, "trial": 0, "categoryRate": "NA", "rt": 8183, "rating": 4}, "3": {"stimulus": 30, "trial": 3, "categoryRate": "NA", "rt": 1771, "rating": 4}, "2": {"stimulus": 0, "trial": 2, "categoryRate": "NA", "rt": 4387, "rating": 10}, "5": {"stimulus": 48, "trial": 5, "categoryRate": "NA", "rt": 3786, "rating": 6}, "4": {"stimulus": 7, "trial": 4, "categoryRate": "NA", "rt": 2844, "rating": 8}, "7": {"stimulus": 3, "trial": 7, "categoryRate": "NA", "rt": 2259, "rating": 9}, "6": {"stimulus": 1, "trial": 6, "categoryRate": "NA", "rt": 2772, "rating": 9}, "9": {"stimulus": -1, "trial": 9, "categoryRate": "Alpha", "rt": 2770, "rating": 9}, "8": {"stimulus": -1, "trial": 8, "categoryRate": "Beta", "rt": 8660, "rating": 7}}, "submit": {"timeTotal": 202230, "age": "25", "comments": "This experiment was pretty cool. Thank you.", "sex": "Male"}}