{"info": {"finish": 1521112214045, "participant": 138, "exposed": true, "stimuli": [12, 14, 30, 32, 27, 63, 0, 9], "lab": false, "pptmatch": 56, "start": 1521111968066, "catflip": false, "categories": [0, 0, 0, 0, 1, 1, 1, 1], "counterbalance": 7, "condition": "Bottom", "browser": {"platform": "Win32", "userAgent": "Mozilla/5.0 (Windows NT 10.0; Win64; x64) AppleWebKit/537.36 (KHTML, like Gecko) Chrome/65.0.3325.162 Safari/537.36"}}, "assignment": {"24": {"stimulus": 14, "trial": 24, "rt": 674, "correctcat": 0, "response": 0}, "25": {"stimulus": 32, "trial": 25, "rt": 584, "correctcat": 0, "response": 0}, "26": {"stimulus": 63, "trial": 26, "rt": 1534, "correctcat": 1, "response": 1}, "27": {"stimulus": 12, "trial": 27, "rt": 1229, "correctcat": 0, "response": 0}, "20": {"stimulus": 27, "trial": 20, "rt": 929, "correctcat": 1, "response": 1}, "21": {"stimulus": 0, "trial": 21, "rt": 580, "correctcat": 1, "response": 1}, "22": {"stimulus": 12, "trial": 22, "rt": 1784, "correctcat": 0, "response": 0}, "23": {"stimulus": 32, "trial": 23, "rt": 586, "correctcat": 0, "response": 0}, "28": {"stimulus": 30, "trial": 28, "rt": 1826, "correctcat": 0, "response": 0}, "29": {"stimulus": 9, "trial": 29, "rt": 1052, "correctcat": 1, "response": 0}, "1": {"stimulus": 9, "trial": 1, "rt": 1577, "correctcat": 1, "response": 1}, "0": {"stimulus": 32, "trial": 0, "rt": 3234, "correctcat": 0, "response": 0}, "3": {"stimulus": 63, "trial": 3, "rt": 2235, "correctcat": 1, "response": 1}, "2": {"stimulus": 27, "trial": 2, "rt": 1357, "correctcat": 1, "response": 1}, "5": {"stimulus": 14, "trial": 5, "rt": 4195, "correctcat": 0, "response": 0}, "4": {"stimulus": 0, "trial": 4, "rt": 757, "correctcat": 1, "response": 1}, "7": {"stimulus": 30, "trial": 7, "rt": 1545, "correctcat": 0, "response": 0}, "6": {"stimulus": 12, "trial": 6, "rt": 1822, "correctcat": 0, "response": 0}, "9": {"stimulus": 32, "trial": 9, "rt": 924, "correctcat": 0, "response": 0}, "8": {"stimulus": 30, "trial": 8, "rt": 1344, "correctcat": 0, "response": 0}, "11": {"stimulus": 12, "trial": 11, "rt": 1227, "correctcat": 0, "response": 0}, "10": {"stimulus": 0, "trial": 10, "rt": 1277, "correctcat": 1, "response": 0}, "13": {"stimulus": 9, "trial": 13, "rt": 730, "correctcat": 1, "response": 1}, "12": {"stimulus": 63, "trial": 12, "rt": 1226, "correctcat": 1, "response": 1}, "15": {"stimulus": 14, "trial": 15, "rt": 1599, "correctcat": 0, "response": 0}, "14": {"stimulus": 27, "trial": 14, "rt": 629, "correctcat": 1, "response": 1}, "17": {"stimulus": 63, "trial": 17, "rt": 1681, "correctcat": 1, "response": 1}, "16": {"stimulus": 30, "trial": 16, "rt": 1360, "correctcat": 0, "response": 0}, "19": {"stimulus": 9, "trial": 19, "rt": 1011, "correctcat": 1, "response": 1}, "18": {"stimulus": 14, "trial": 18, "rt": 1534, "correctcat": 0, "response": 0}, "31": {"stimulus": 27, "trial": 31, "rt": 998, "correctcat": 1, "response": 1}, "30": {"stimulus": 0, "trial": 30, "rt": 1240, "correctcat": 1, "response": 1}}, "experiment": {"Paradigm": "TACL", "Stimuli": "Size-Color Squares", "Experiment": "Assigning-Generated-Categories"}, "goodness": {"1": {"stimulus": 63, "trial": 1, "categoryRate": "NA", "rt": 8325, "rating": 9}, "0": {"stimulus": 0, "trial": 0, "categoryRate": "NA", "rt": 8876, "rating": 4}, "3": {"stimulus": 14, "trial": 3, "categoryRate": "NA", "rt": 10421, "rating": 9}, "2": {"stimulus": 9, "trial": 2, "categoryRate": "NA", "rt": 3017, "rating": 6}, "5": {"stimulus": 12, "trial": 5, "categoryRate": "NA", "rt": 2610, "rating": 10}, "4": {"stimulus": 32, "trial": 4, "categoryRate": "NA", "rt": 2573, "rating": 10}, "7": {"stimulus": 27, "trial": 7, "categoryRate": "NA", "rt": 3316, "rating": 10}, "6": {"stimulus": 30, "trial": 6, "categoryRate": "NA", "rt": 2067, "rating": 10}, "9": {"stimulus": -1, "trial": 9, "categoryRate": "Beta", "rt": 4584, "rating": 2}, "8": {"stimulus": -1, "trial": 8, "categoryRate": "Alpha", "rt": 12845, "rating": 10}}, "submit": {"timeTotal": 246176, "age": "54", "comments": "interesting.  TYVM", "sex": "female"}}