{"info": {"finish": 1521112230973, "participant": 141, "exposed": true, "stimuli": [12, 14, 30, 32, 56, 5, 7, 1], "lab": false, "pptmatch": 40, "start": 1521111980405, "catflip": true, "categories": [1, 1, 1, 1, 0, 0, 0, 0], "counterbalance": 3, "condition": "Bottom", "browser": {"platform": "Linux armv8l", "userAgent": "Mozilla/5.0 (Linux; Android 7.1.1; SM-N950U Build/NMF26X) AppleWebKit/537.36 (KHTML, like Gecko) Chrome/64.0.3282.123 Mobile Safari/537.36"}}, "assignment": {"24": {"stimulus": 12, "trial": 24, "rt": 788, "correctcat": 1, "response": 1}, "25": {"stimulus": 7, "trial": 25, "rt": 2093, "correctcat": 0, "response": 0}, "26": {"stimulus": 1, "trial": 26, "rt": 1280, "correctcat": 0, "response": 0}, "27": {"stimulus": 30, "trial": 27, "rt": 1696, "correctcat": 1, "response": 1}, "20": {"stimulus": 5, "trial": 20, "rt": 1935, "correctcat": 0, "response": 1}, "21": {"stimulus": 56, "trial": 21, "rt": 1283, "correctcat": 0, "response": 0}, "22": {"stimulus": 7, "trial": 22, "rt": 1310, "correctcat": 0, "response": 0}, "23": {"stimulus": 32, "trial": 23, "rt": 1034, "correctcat": 1, "response": 0}, "28": {"stimulus": 32, "trial": 28, "rt": 1436, "correctcat": 1, "response": 0}, "29": {"stimulus": 56, "trial": 29, "rt": 1976, "correctcat": 0, "response": 0}, "1": {"stimulus": 56, "trial": 1, "rt": 3902, "correctcat": 0, "response": 0}, "0": {"stimulus": 30, "trial": 0, "rt": 4147, "correctcat": 1, "response": 1}, "3": {"stimulus": 7, "trial": 3, "rt": 1009, "correctcat": 0, "response": 1}, "2": {"stimulus": 32, "trial": 2, "rt": 939, "correctcat": 1, "response": 1}, "5": {"stimulus": 12, "trial": 5, "rt": 4224, "correctcat": 1, "response": 0}, "4": {"stimulus": 1, "trial": 4, "rt": 2207, "correctcat": 0, "response": 1}, "7": {"stimulus": 5, "trial": 7, "rt": 1184, "correctcat": 0, "response": 1}, "6": {"stimulus": 14, "trial": 6, "rt": 1104, "correctcat": 1, "response": 1}, "9": {"stimulus": 30, "trial": 9, "rt": 998, "correctcat": 1, "response": 1}, "8": {"stimulus": 1, "trial": 8, "rt": 3261, "correctcat": 0, "response": 0}, "11": {"stimulus": 5, "trial": 11, "rt": 828, "correctcat": 0, "response": 1}, "10": {"stimulus": 14, "trial": 10, "rt": 812, "correctcat": 1, "response": 1}, "13": {"stimulus": 56, "trial": 13, "rt": 1723, "correctcat": 0, "response": 0}, "12": {"stimulus": 32, "trial": 12, "rt": 1117, "correctcat": 1, "response": 0}, "15": {"stimulus": 12, "trial": 15, "rt": 1181, "correctcat": 1, "response": 0}, "14": {"stimulus": 7, "trial": 14, "rt": 781, "correctcat": 0, "response": 1}, "17": {"stimulus": 12, "trial": 17, "rt": 925, "correctcat": 1, "response": 1}, "16": {"stimulus": 30, "trial": 16, "rt": 1008, "correctcat": 1, "response": 1}, "19": {"stimulus": 1, "trial": 19, "rt": 1165, "correctcat": 0, "response": 0}, "18": {"stimulus": 14, "trial": 18, "rt": 1711, "correctcat": 1, "response": 0}, "31": {"stimulus": 14, "trial": 31, "rt": 868, "correctcat": 1, "response": 0}, "30": {"stimulus": 5, "trial": 30, "rt": 1310, "correctcat": 0, "response": 0}}, "experiment": {"Paradigm": "TACL", "Stimuli": "Size-Color Squares", "Experiment": "Assigning-Generated-Categories"}, "goodness": {"1": {"stimulus": 7, "trial": 1, "categoryRate": "NA", "rt": 2636, "rating": 7}, "0": {"stimulus": 14, "trial": 0, "categoryRate": "NA", "rt": 16744, "rating": 9}, "3": {"stimulus": 1, "trial": 3, "categoryRate": "NA", "rt": 4777, "rating": 6}, "2": {"stimulus": 56, "trial": 2, "categoryRate": "NA", "rt": 5133, "rating": 10}, "5": {"stimulus": 30, "trial": 5, "categoryRate": "NA", "rt": 3843, "rating": 3}, "4": {"stimulus": 32, "trial": 4, "categoryRate": "NA", "rt": 1945, "rating": 3}, "7": {"stimulus": 5, "trial": 7, "categoryRate": "NA", "rt": 2101, "rating": 4}, "6": {"stimulus": 12, "trial": 6, "categoryRate": "NA", "rt": 3150, "rating": 7}, "9": {"stimulus": -1, "trial": 9, "categoryRate": "Alpha", "rt": 10616, "rating": 2}, "8": {"stimulus": -1, "trial": 8, "categoryRate": "Beta", "rt": 15859, "rating": 9}}, "submit": {"timeTotal": 250862, "age": "43", "comments": "Interesting study", "sex": "Female"}}