{"info": {"finish": 1521112339234, "participant": 143, "exposed": true, "stimuli": [30, 32, 48, 50, 8, 45, 72, 80], "lab": false, "pptmatch": 95, "start": 1521112158720, "catflip": true, "categories": [1, 1, 1, 1, 0, 0, 0, 0], "counterbalance": 4, "condition": "Middle", "browser": {"platform": "Win32", "userAgent": "Mozilla/5.0 (Windows NT 10.0; Win64; x64) AppleWebKit/537.36 (KHTML, like Gecko) Chrome/64.0.3282.186 Safari/537.36"}}, "assignment": {"24": {"stimulus": 50, "trial": 24, "rt": 671, "correctcat": 1, "response": 0}, "25": {"stimulus": 48, "trial": 25, "rt": 761, "correctcat": 1, "response": 1}, "26": {"stimulus": 80, "trial": 26, "rt": 535, "correctcat": 0, "response": 1}, "27": {"stimulus": 45, "trial": 27, "rt": 2908, "correctcat": 0, "response": 0}, "20": {"stimulus": 80, "trial": 20, "rt": 633, "correctcat": 0, "response": 1}, "21": {"stimulus": 8, "trial": 21, "rt": 844, "correctcat": 0, "response": 0}, "22": {"stimulus": 30, "trial": 22, "rt": 774, "correctcat": 1, "response": 1}, "23": {"stimulus": 72, "trial": 23, "rt": 597, "correctcat": 0, "response": 0}, "28": {"stimulus": 72, "trial": 28, "rt": 631, "correctcat": 0, "response": 0}, "29": {"stimulus": 8, "trial": 29, "rt": 2189, "correctcat": 0, "response": 1}, "1": {"stimulus": 8, "trial": 1, "rt": 1093, "correctcat": 0, "response": 1}, "0": {"stimulus": 80, "trial": 0, "rt": 2129, "correctcat": 0, "response": 1}, "3": {"stimulus": 32, "trial": 3, "rt": 534, "correctcat": 1, "response": 1}, "2": {"stimulus": 48, "trial": 2, "rt": 735, "correctcat": 1, "response": 1}, "5": {"stimulus": 72, "trial": 5, "rt": 2135, "correctcat": 0, "response": 0}, "4": {"stimulus": 50, "trial": 4, "rt": 802, "correctcat": 1, "response": 1}, "7": {"stimulus": 30, "trial": 7, "rt": 1003, "correctcat": 1, "response": 0}, "6": {"stimulus": 45, "trial": 6, "rt": 749, "correctcat": 0, "response": 0}, "9": {"stimulus": 45, "trial": 9, "rt": 692, "correctcat": 0, "response": 0}, "8": {"stimulus": 80, "trial": 8, "rt": 4262, "correctcat": 0, "response": 1}, "11": {"stimulus": 50, "trial": 11, "rt": 737, "correctcat": 1, "response": 1}, "10": {"stimulus": 30, "trial": 10, "rt": 1083, "correctcat": 1, "response": 1}, "13": {"stimulus": 8, "trial": 13, "rt": 531, "correctcat": 0, "response": 0}, "12": {"stimulus": 48, "trial": 12, "rt": 762, "correctcat": 1, "response": 1}, "15": {"stimulus": 32, "trial": 15, "rt": 611, "correctcat": 1, "response": 0}, "14": {"stimulus": 72, "trial": 14, "rt": 1047, "correctcat": 0, "response": 0}, "17": {"stimulus": 50, "trial": 17, "rt": 582, "correctcat": 1, "response": 1}, "16": {"stimulus": 32, "trial": 16, "rt": 688, "correctcat": 1, "response": 1}, "19": {"stimulus": 45, "trial": 19, "rt": 872, "correctcat": 0, "response": 0}, "18": {"stimulus": 48, "trial": 18, "rt": 764, "correctcat": 1, "response": 0}, "31": {"stimulus": 30, "trial": 31, "rt": 1105, "correctcat": 1, "response": 1}, "30": {"stimulus": 32, "trial": 30, "rt": 1396, "correctcat": 1, "response": 0}}, "experiment": {"Paradigm": "TACL", "Stimuli": "Size-Color Squares", "Experiment": "Assigning-Generated-Categories"}, "goodness": {"1": {"stimulus": 30, "trial": 1, "categoryRate": "NA", "rt": 2098, "rating": 10}, "0": {"stimulus": 8, "trial": 0, "categoryRate": "NA", "rt": 4744, "rating": 5}, "3": {"stimulus": 32, "trial": 3, "categoryRate": "NA", "rt": 1692, "rating": 4}, "2": {"stimulus": 45, "trial": 2, "categoryRate": "NA", "rt": 1402, "rating": 10}, "5": {"stimulus": 48, "trial": 5, "categoryRate": "NA", "rt": 2497, "rating": 4}, "4": {"stimulus": 72, "trial": 4, "categoryRate": "NA", "rt": 1793, "rating": 7}, "7": {"stimulus": 80, "trial": 7, "categoryRate": "NA", "rt": 2169, "rating": 10}, "6": {"stimulus": 50, "trial": 6, "categoryRate": "NA", "rt": 1370, "rating": 6}, "9": {"stimulus": -1, "trial": 9, "categoryRate": "Alpha", "rt": 2945, "rating": 10}, "8": {"stimulus": -1, "trial": 8, "categoryRate": "Beta", "rt": 6911, "rating": 8}}, "submit": {"timeTotal": 180772, "age": "25", "comments": "Thank you for this experiment;i love these.", "sex": "Male"}}