{"info": {"finish": 1521057853647, "participant": 15, "exposed": true, "stimuli": [12, 14, 30, 32, 25, 32, 74, 73], "lab": false, "pptmatch": 15, "start": 1521057580379, "catflip": false, "categories": [0, 0, 0, 0, 1, 1, 1, 1], "counterbalance": 4, "condition": "Bottom", "browser": {"platform": "Win32", "userAgent": "Mozilla/5.0 (Windows NT 6.1; Win64; x64) AppleWebKit/537.36 (KHTML, like Gecko) Chrome/64.0.3282.168 Safari/537.36 OPR/51.0.2830.40"}}, "assignment": {"24": {"stimulus": 12, "trial": 24, "rt": 1151, "correctcat": 0, "response": 0}, "25": {"stimulus": 73, "trial": 25, "rt": 996, "correctcat": 1, "response": 1}, "26": {"stimulus": 32, "trial": 26, "rt": 2995, "correctcat": 1, "response": 0}, "27": {"stimulus": 30, "trial": 27, "rt": 2232, "correctcat": 0, "response": 0}, "20": {"stimulus": 14, "trial": 20, "rt": 1349, "correctcat": 0, "response": 1}, "21": {"stimulus": 32, "trial": 21, "rt": 3383, "correctcat": 1, "response": 0}, "22": {"stimulus": 32, "trial": 22, "rt": 1175, "correctcat": 0, "response": 1}, "23": {"stimulus": 74, "trial": 23, "rt": 2293, "correctcat": 1, "response": 1}, "28": {"stimulus": 74, "trial": 28, "rt": 1037, "correctcat": 1, "response": 1}, "29": {"stimulus": 32, "trial": 29, "rt": 1542, "correctcat": 0, "response": 0}, "1": {"stimulus": 32, "trial": 1, "rt": 2129, "correctcat": 1, "response": 0}, "0": {"stimulus": 14, "trial": 0, "rt": 2472, "correctcat": 0, "response": 1}, "3": {"stimulus": 74, "trial": 3, "rt": 1154, "correctcat": 1, "response": 1}, "2": {"stimulus": 30, "trial": 2, "rt": 3301, "correctcat": 0, "response": 1}, "5": {"stimulus": 25, "trial": 5, "rt": 1963, "correctcat": 1, "response": 0}, "4": {"stimulus": 73, "trial": 4, "rt": 1285, "correctcat": 1, "response": 0}, "7": {"stimulus": 12, "trial": 7, "rt": 1437, "correctcat": 0, "response": 1}, "6": {"stimulus": 32, "trial": 6, "rt": 1350, "correctcat": 0, "response": 0}, "9": {"stimulus": 74, "trial": 9, "rt": 1021, "correctcat": 1, "response": 1}, "8": {"stimulus": 32, "trial": 8, "rt": 1221, "correctcat": 0, "response": 0}, "11": {"stimulus": 25, "trial": 11, "rt": 1999, "correctcat": 1, "response": 1}, "10": {"stimulus": 30, "trial": 10, "rt": 3125, "correctcat": 0, "response": 0}, "13": {"stimulus": 73, "trial": 13, "rt": 1493, "correctcat": 1, "response": 1}, "12": {"stimulus": 32, "trial": 12, "rt": 1750, "correctcat": 1, "response": 0}, "15": {"stimulus": 12, "trial": 15, "rt": 1062, "correctcat": 0, "response": 1}, "14": {"stimulus": 14, "trial": 14, "rt": 2917, "correctcat": 0, "response": 0}, "17": {"stimulus": 12, "trial": 17, "rt": 2038, "correctcat": 0, "response": 0}, "16": {"stimulus": 30, "trial": 16, "rt": 2784, "correctcat": 0, "response": 1}, "19": {"stimulus": 73, "trial": 19, "rt": 1269, "correctcat": 1, "response": 1}, "18": {"stimulus": 25, "trial": 18, "rt": 2239, "correctcat": 1, "response": 1}, "31": {"stimulus": 14, "trial": 31, "rt": 2167, "correctcat": 0, "response": 0}, "30": {"stimulus": 25, "trial": 30, "rt": 2477, "correctcat": 1, "response": 1}}, "experiment": {"Paradigm": "TACL", "Stimuli": "Size-Color Squares", "Experiment": "Assigning-Generated-Categories"}, "goodness": {"1": {"stimulus": 32, "trial": 1, "categoryRate": "NA", "rt": 5435, "rating": 7}, "0": {"stimulus": 32, "trial": 0, "categoryRate": "NA", "rt": 14866, "rating": 7}, "3": {"stimulus": 25, "trial": 3, "categoryRate": "NA", "rt": 16188, "rating": 4}, "2": {"stimulus": 30, "trial": 2, "categoryRate": "NA", "rt": 6309, "rating": 6}, "5": {"stimulus": 73, "trial": 5, "categoryRate": "NA", "rt": 6884, "rating": 2}, "4": {"stimulus": 12, "trial": 4, "categoryRate": "NA", "rt": 4251, "rating": 5}, "7": {"stimulus": 74, "trial": 7, "categoryRate": "NA", "rt": 6748, "rating": 5}, "6": {"stimulus": 14, "trial": 6, "categoryRate": "NA", "rt": 6661, "rating": 7}, "9": {"stimulus": -1, "trial": 9, "categoryRate": "Alpha", "rt": 7970, "rating": 8}, "8": {"stimulus": -1, "trial": 8, "categoryRate": "Beta", "rt": 13212, "rating": 4}}, "submit": {"timeTotal": 273547, "age": "40", "comments": "Thanks ! ", "sex": "Male"}}