{"info": {"finish": 1521113418558, "participant": 150, "exposed": true, "stimuli": [12, 14, 30, 32, 22, 39, 36, 43], "lab": false, "pptmatch": 41, "start": 1521113196749, "catflip": false, "categories": [0, 0, 0, 0, 1, 1, 1, 1], "counterbalance": 5, "condition": "Bottom", "browser": {"platform": "Win32", "userAgent": "Mozilla/5.0 (Windows NT 10.0; Win64; x64) AppleWebKit/537.36 (KHTML, like Gecko) Chrome/64.0.3282.186 Safari/537.36"}}, "assignment": {"24": {"stimulus": 43, "trial": 24, "rt": 6612, "correctcat": 1, "response": 0}, "25": {"stimulus": 14, "trial": 25, "rt": 810, "correctcat": 0, "response": 1}, "26": {"stimulus": 30, "trial": 26, "rt": 992, "correctcat": 0, "response": 0}, "27": {"stimulus": 39, "trial": 27, "rt": 1089, "correctcat": 1, "response": 1}, "20": {"stimulus": 32, "trial": 20, "rt": 837, "correctcat": 0, "response": 0}, "21": {"stimulus": 43, "trial": 21, "rt": 1644, "correctcat": 1, "response": 1}, "22": {"stimulus": 14, "trial": 22, "rt": 2063, "correctcat": 0, "response": 0}, "23": {"stimulus": 12, "trial": 23, "rt": 11754, "correctcat": 0, "response": 1}, "28": {"stimulus": 32, "trial": 28, "rt": 11272, "correctcat": 0, "response": 1}, "29": {"stimulus": 12, "trial": 29, "rt": 3344, "correctcat": 0, "response": 0}, "1": {"stimulus": 12, "trial": 1, "rt": 1892, "correctcat": 0, "response": 0}, "0": {"stimulus": 14, "trial": 0, "rt": 9129, "correctcat": 0, "response": 0}, "3": {"stimulus": 39, "trial": 3, "rt": 1595, "correctcat": 1, "response": 0}, "2": {"stimulus": 43, "trial": 2, "rt": 1207, "correctcat": 1, "response": 1}, "5": {"stimulus": 36, "trial": 5, "rt": 769, "correctcat": 1, "response": 1}, "4": {"stimulus": 22, "trial": 4, "rt": 2032, "correctcat": 1, "response": 1}, "7": {"stimulus": 30, "trial": 7, "rt": 1630, "correctcat": 0, "response": 1}, "6": {"stimulus": 32, "trial": 6, "rt": 1586, "correctcat": 0, "response": 0}, "9": {"stimulus": 39, "trial": 9, "rt": 113, "correctcat": 1, "response": 0}, "8": {"stimulus": 22, "trial": 8, "rt": 892, "correctcat": 1, "response": 0}, "11": {"stimulus": 12, "trial": 11, "rt": 939, "correctcat": 0, "response": 0}, "10": {"stimulus": 14, "trial": 10, "rt": 581, "correctcat": 0, "response": 1}, "13": {"stimulus": 30, "trial": 13, "rt": 527, "correctcat": 0, "response": 1}, "12": {"stimulus": 43, "trial": 12, "rt": 612, "correctcat": 1, "response": 0}, "15": {"stimulus": 32, "trial": 15, "rt": 662, "correctcat": 0, "response": 1}, "14": {"stimulus": 36, "trial": 14, "rt": 368, "correctcat": 1, "response": 0}, "17": {"stimulus": 36, "trial": 17, "rt": 569, "correctcat": 1, "response": 0}, "16": {"stimulus": 30, "trial": 16, "rt": 319, "correctcat": 0, "response": 0}, "19": {"stimulus": 39, "trial": 19, "rt": 1261, "correctcat": 1, "response": 1}, "18": {"stimulus": 22, "trial": 18, "rt": 1186, "correctcat": 1, "response": 1}, "31": {"stimulus": 36, "trial": 31, "rt": 834, "correctcat": 1, "response": 0}, "30": {"stimulus": 22, "trial": 30, "rt": 1007, "correctcat": 1, "response": 1}}, "experiment": {"Paradigm": "TACL", "Stimuli": "Size-Color Squares", "Experiment": "Assigning-Generated-Categories"}, "goodness": {"1": {"stimulus": 22, "trial": 1, "categoryRate": "NA", "rt": 3383, "rating": 6}, "0": {"stimulus": 14, "trial": 0, "categoryRate": "NA", "rt": 6361, "rating": 6}, "3": {"stimulus": 36, "trial": 3, "categoryRate": "NA", "rt": 3491, "rating": 7}, "2": {"stimulus": 39, "trial": 2, "categoryRate": "NA", "rt": 2947, "rating": 6}, "5": {"stimulus": 30, "trial": 5, "categoryRate": "NA", "rt": 2904, "rating": 7}, "4": {"stimulus": 43, "trial": 4, "categoryRate": "NA", "rt": 2653, "rating": 7}, "7": {"stimulus": 12, "trial": 7, "categoryRate": "NA", "rt": 3833, "rating": 7}, "6": {"stimulus": 32, "trial": 6, "categoryRate": "NA", "rt": 4891, "rating": 6}, "9": {"stimulus": -1, "trial": 9, "categoryRate": "Beta", "rt": 3742, "rating": 7}, "8": {"stimulus": -1, "trial": 8, "categoryRate": "Alpha", "rt": 8577, "rating": 6}}, "submit": {"timeTotal": 222098, "age": "26", "comments": "", "sex": "male"}}