{"info": {"finish": 1521113422272, "participant": 151, "exposed": true, "stimuli": [30, 32, 48, 50, 1, 0, 7, 3], "lab": false, "pptmatch": 60, "start": 1521113198458, "catflip": false, "categories": [0, 0, 0, 0, 1, 1, 1, 1], "counterbalance": 0, "condition": "Middle", "browser": {"platform": "Win32", "userAgent": "Mozilla/5.0 (Windows NT 10.0; Win64; x64) AppleWebKit/537.36 (KHTML, like Gecko) Chrome/64.0.3282.186 Safari/537.36"}}, "assignment": {"24": {"stimulus": 3, "trial": 24, "rt": 6536, "correctcat": 1, "response": 0}, "25": {"stimulus": 32, "trial": 25, "rt": 832, "correctcat": 0, "response": 1}, "26": {"stimulus": 1, "trial": 26, "rt": 865, "correctcat": 1, "response": 0}, "27": {"stimulus": 0, "trial": 27, "rt": 1306, "correctcat": 1, "response": 1}, "20": {"stimulus": 0, "trial": 20, "rt": 868, "correctcat": 1, "response": 0}, "21": {"stimulus": 7, "trial": 21, "rt": 1624, "correctcat": 1, "response": 1}, "22": {"stimulus": 32, "trial": 22, "rt": 2196, "correctcat": 0, "response": 0}, "23": {"stimulus": 30, "trial": 23, "rt": 11659, "correctcat": 0, "response": 1}, "28": {"stimulus": 30, "trial": 28, "rt": 11188, "correctcat": 0, "response": 1}, "29": {"stimulus": 48, "trial": 29, "rt": 3287, "correctcat": 0, "response": 0}, "1": {"stimulus": 48, "trial": 1, "rt": 2328, "correctcat": 0, "response": 0}, "0": {"stimulus": 32, "trial": 0, "rt": 5023, "correctcat": 0, "response": 0}, "3": {"stimulus": 30, "trial": 3, "rt": 966, "correctcat": 0, "response": 1}, "2": {"stimulus": 3, "trial": 2, "rt": 749, "correctcat": 1, "response": 1}, "5": {"stimulus": 0, "trial": 5, "rt": 694, "correctcat": 1, "response": 1}, "4": {"stimulus": 1, "trial": 4, "rt": 2100, "correctcat": 1, "response": 1}, "7": {"stimulus": 7, "trial": 7, "rt": 277, "correctcat": 1, "response": 1}, "6": {"stimulus": 50, "trial": 6, "rt": 4182, "correctcat": 0, "response": 0}, "9": {"stimulus": 0, "trial": 9, "rt": 181, "correctcat": 1, "response": 0}, "8": {"stimulus": 3, "trial": 8, "rt": 130, "correctcat": 1, "response": 0}, "11": {"stimulus": 30, "trial": 11, "rt": 347, "correctcat": 0, "response": 0}, "10": {"stimulus": 50, "trial": 10, "rt": 799, "correctcat": 0, "response": 0}, "13": {"stimulus": 1, "trial": 13, "rt": 681, "correctcat": 1, "response": 0}, "12": {"stimulus": 7, "trial": 12, "rt": 553, "correctcat": 1, "response": 1}, "15": {"stimulus": 48, "trial": 15, "rt": 432, "correctcat": 0, "response": 1}, "14": {"stimulus": 32, "trial": 14, "rt": 371, "correctcat": 0, "response": 0}, "17": {"stimulus": 48, "trial": 17, "rt": 302, "correctcat": 0, "response": 0}, "16": {"stimulus": 50, "trial": 16, "rt": 567, "correctcat": 0, "response": 0}, "19": {"stimulus": 3, "trial": 19, "rt": 1254, "correctcat": 1, "response": 1}, "18": {"stimulus": 1, "trial": 18, "rt": 1083, "correctcat": 1, "response": 1}, "31": {"stimulus": 50, "trial": 31, "rt": 770, "correctcat": 0, "response": 0}, "30": {"stimulus": 7, "trial": 30, "rt": 992, "correctcat": 1, "response": 1}}, "experiment": {"Paradigm": "TACL", "Stimuli": "Size-Color Squares", "Experiment": "Assigning-Generated-Categories"}, "goodness": {"1": {"stimulus": 32, "trial": 1, "categoryRate": "NA", "rt": 3535, "rating": 6}, "0": {"stimulus": 3, "trial": 0, "categoryRate": "NA", "rt": 6445, "rating": 7}, "3": {"stimulus": 48, "trial": 3, "categoryRate": "NA", "rt": 2723, "rating": 6}, "2": {"stimulus": 1, "trial": 2, "categoryRate": "NA", "rt": 3348, "rating": 6}, "5": {"stimulus": 30, "trial": 5, "categoryRate": "NA", "rt": 4939, "rating": 7}, "4": {"stimulus": 7, "trial": 4, "categoryRate": "NA", "rt": 2818, "rating": 7}, "7": {"stimulus": 0, "trial": 7, "categoryRate": "NA", "rt": 9562, "rating": 6}, "6": {"stimulus": 50, "trial": 6, "categoryRate": "NA", "rt": 3517, "rating": 6}, "9": {"stimulus": -1, "trial": 9, "categoryRate": "Beta", "rt": 6113, "rating": 7}, "8": {"stimulus": -1, "trial": 8, "categoryRate": "Alpha", "rt": 2318, "rating": 6}}, "submit": {"timeTotal": 224102, "age": "26", "comments": "", "sex": "female"}}