{"info": {"finish": 1521115749665, "participant": 159, "exposed": true, "stimuli": [12, 14, 30, 32, 0, 39, 1, 35], "lab": false, "pptmatch": 111, "start": 1521115384761, "catflip": false, "categories": [0, 0, 0, 0, 1, 1, 1, 1], "counterbalance": 7, "condition": "Bottom", "browser": {"platform": "Win32", "userAgent": "Mozilla/5.0 (Windows NT 10.0; Win64; x64) AppleWebKit/537.36 (KHTML, like Gecko) Chrome/64.0.3282.186 Safari/537.36"}}, "assignment": {"24": {"stimulus": 35, "trial": 24, "rt": 1990, "correctcat": 1, "response": 1}, "25": {"stimulus": 39, "trial": 25, "rt": 1248, "correctcat": 1, "response": 0}, "26": {"stimulus": 32, "trial": 26, "rt": 1179, "correctcat": 0, "response": 0}, "27": {"stimulus": 30, "trial": 27, "rt": 857, "correctcat": 0, "response": 1}, "20": {"stimulus": 0, "trial": 20, "rt": 1389, "correctcat": 1, "response": 1}, "21": {"stimulus": 39, "trial": 21, "rt": 1234, "correctcat": 1, "response": 0}, "22": {"stimulus": 32, "trial": 22, "rt": 3921, "correctcat": 0, "response": 1}, "23": {"stimulus": 30, "trial": 23, "rt": 1140, "correctcat": 0, "response": 0}, "28": {"stimulus": 1, "trial": 28, "rt": 1305, "correctcat": 1, "response": 0}, "29": {"stimulus": 14, "trial": 29, "rt": 1233, "correctcat": 0, "response": 0}, "1": {"stimulus": 1, "trial": 1, "rt": 950, "correctcat": 1, "response": 1}, "0": {"stimulus": 32, "trial": 0, "rt": 1755, "correctcat": 0, "response": 0}, "3": {"stimulus": 14, "trial": 3, "rt": 1054, "correctcat": 0, "response": 1}, "2": {"stimulus": 30, "trial": 2, "rt": 586, "correctcat": 0, "response": 0}, "5": {"stimulus": 39, "trial": 5, "rt": 757, "correctcat": 1, "response": 0}, "4": {"stimulus": 0, "trial": 4, "rt": 871, "correctcat": 1, "response": 1}, "7": {"stimulus": 35, "trial": 7, "rt": 1786, "correctcat": 1, "response": 0}, "6": {"stimulus": 12, "trial": 6, "rt": 1091, "correctcat": 0, "response": 0}, "9": {"stimulus": 39, "trial": 9, "rt": 1021, "correctcat": 1, "response": 1}, "8": {"stimulus": 35, "trial": 8, "rt": 874, "correctcat": 1, "response": 1}, "11": {"stimulus": 1, "trial": 11, "rt": 1109, "correctcat": 1, "response": 0}, "10": {"stimulus": 0, "trial": 10, "rt": 2405, "correctcat": 1, "response": 1}, "13": {"stimulus": 12, "trial": 13, "rt": 1117, "correctcat": 0, "response": 0}, "12": {"stimulus": 30, "trial": 12, "rt": 1758, "correctcat": 0, "response": 1}, "15": {"stimulus": 14, "trial": 15, "rt": 1313, "correctcat": 0, "response": 0}, "14": {"stimulus": 32, "trial": 14, "rt": 1209, "correctcat": 0, "response": 1}, "17": {"stimulus": 35, "trial": 17, "rt": 1303, "correctcat": 1, "response": 1}, "16": {"stimulus": 1, "trial": 16, "rt": 1053, "correctcat": 1, "response": 0}, "19": {"stimulus": 12, "trial": 19, "rt": 1559, "correctcat": 0, "response": 0}, "18": {"stimulus": 14, "trial": 18, "rt": 1202, "correctcat": 0, "response": 0}, "31": {"stimulus": 0, "trial": 31, "rt": 1680, "correctcat": 1, "response": 1}, "30": {"stimulus": 12, "trial": 30, "rt": 1462, "correctcat": 0, "response": 0}}, "experiment": {"Paradigm": "TACL", "Stimuli": "Size-Color Squares", "Experiment": "Assigning-Generated-Categories"}, "goodness": {"1": {"stimulus": 14, "trial": 1, "categoryRate": "NA", "rt": 4112, "rating": 8}, "0": {"stimulus": 1, "trial": 0, "categoryRate": "NA", "rt": 13642, "rating": 9}, "3": {"stimulus": 12, "trial": 3, "categoryRate": "NA", "rt": 2450, "rating": 9}, "2": {"stimulus": 30, "trial": 2, "categoryRate": "NA", "rt": 4464, "rating": 8}, "5": {"stimulus": 35, "trial": 5, "categoryRate": "NA", "rt": 2449, "rating": 2}, "4": {"stimulus": 0, "trial": 4, "categoryRate": "NA", "rt": 2502, "rating": 2}, "7": {"stimulus": 32, "trial": 7, "categoryRate": "NA", "rt": 4707, "rating": 8}, "6": {"stimulus": 39, "trial": 6, "categoryRate": "NA", "rt": 3800, "rating": 8}, "9": {"stimulus": -1, "trial": 9, "categoryRate": "Beta", "rt": 7914, "rating": 10}, "8": {"stimulus": -1, "trial": 8, "categoryRate": "Alpha", "rt": 6348, "rating": 10}}, "submit": {"timeTotal": 365173, "age": "29", "comments": "", "sex": "man"}}