{"info": {"finish": 1521058156045, "participant": 16, "exposed": true, "stimuli": [12, 14, 30, 32, 64, 73, 63, 72], "lab": false, "pptmatch": 16, "start": 1521057585556, "catflip": true, "categories": [1, 1, 1, 1, 0, 0, 0, 0], "counterbalance": 0, "condition": "Bottom", "browser": {"platform": "Win32", "userAgent": "Mozilla/5.0 (Windows NT 10.0; Win64; x64) AppleWebKit/537.36 (KHTML, like Gecko) Chrome/64.0.3282.186 Safari/537.36"}}, "assignment": {"24": {"stimulus": 32, "trial": 24, "rt": 2987, "correctcat": 1, "response": 1}, "25": {"stimulus": 30, "trial": 25, "rt": 9531, "correctcat": 1, "response": 0}, "26": {"stimulus": 63, "trial": 26, "rt": 9093, "correctcat": 0, "response": 1}, "27": {"stimulus": 12, "trial": 27, "rt": 68211, "correctcat": 1, "response": 1}, "20": {"stimulus": 73, "trial": 20, "rt": 10619, "correctcat": 0, "response": 1}, "21": {"stimulus": 72, "trial": 21, "rt": 15451, "correctcat": 0, "response": 1}, "22": {"stimulus": 30, "trial": 22, "rt": 30302, "correctcat": 1, "response": 0}, "23": {"stimulus": 12, "trial": 23, "rt": 17728, "correctcat": 1, "response": 0}, "28": {"stimulus": 14, "trial": 28, "rt": 27156, "correctcat": 1, "response": 1}, "29": {"stimulus": 64, "trial": 29, "rt": 10630, "correctcat": 0, "response": 0}, "1": {"stimulus": 63, "trial": 1, "rt": 13810, "correctcat": 0, "response": 1}, "0": {"stimulus": 30, "trial": 0, "rt": 15388, "correctcat": 1, "response": 0}, "3": {"stimulus": 12, "trial": 3, "rt": 1878, "correctcat": 1, "response": 0}, "2": {"stimulus": 73, "trial": 2, "rt": 1295, "correctcat": 0, "response": 0}, "5": {"stimulus": 14, "trial": 5, "rt": 669, "correctcat": 1, "response": 1}, "4": {"stimulus": 32, "trial": 4, "rt": 299, "correctcat": 1, "response": 1}, "7": {"stimulus": 72, "trial": 7, "rt": 619, "correctcat": 0, "response": 0}, "6": {"stimulus": 64, "trial": 6, "rt": 1353, "correctcat": 0, "response": 1}, "9": {"stimulus": 14, "trial": 9, "rt": 3571, "correctcat": 1, "response": 0}, "8": {"stimulus": 12, "trial": 8, "rt": 6584, "correctcat": 1, "response": 0}, "11": {"stimulus": 64, "trial": 11, "rt": 753, "correctcat": 0, "response": 1}, "10": {"stimulus": 30, "trial": 10, "rt": 3430, "correctcat": 1, "response": 0}, "13": {"stimulus": 63, "trial": 13, "rt": 31833, "correctcat": 0, "response": 1}, "12": {"stimulus": 73, "trial": 12, "rt": 260, "correctcat": 0, "response": 0}, "15": {"stimulus": 72, "trial": 15, "rt": 11330, "correctcat": 0, "response": 1}, "14": {"stimulus": 32, "trial": 14, "rt": 9251, "correctcat": 1, "response": 1}, "17": {"stimulus": 32, "trial": 17, "rt": 13297, "correctcat": 1, "response": 1}, "16": {"stimulus": 64, "trial": 16, "rt": 2910, "correctcat": 0, "response": 0}, "19": {"stimulus": 14, "trial": 19, "rt": 11730, "correctcat": 1, "response": 1}, "18": {"stimulus": 63, "trial": 18, "rt": 21375, "correctcat": 0, "response": 0}, "31": {"stimulus": 73, "trial": 31, "rt": 18486, "correctcat": 0, "response": 0}, "30": {"stimulus": 72, "trial": 30, "rt": 2389, "correctcat": 0, "response": 0}}, "experiment": {"Paradigm": "TACL", "Stimuli": "Size-Color Squares", "Experiment": "Assigning-Generated-Categories"}, "goodness": {"1": {"stimulus": 30, "trial": 1, "categoryRate": "NA", "rt": 1294, "rating": 10}, "0": {"stimulus": 63, "trial": 0, "categoryRate": "NA", "rt": 2544, "rating": 0}, "3": {"stimulus": 73, "trial": 3, "categoryRate": "NA", "rt": 1673, "rating": 2}, "2": {"stimulus": 12, "trial": 2, "categoryRate": "NA", "rt": 1237, "rating": 4}, "5": {"stimulus": 72, "trial": 5, "categoryRate": "NA", "rt": 2290, "rating": 1}, "4": {"stimulus": 14, "trial": 4, "categoryRate": "NA", "rt": 1035, "rating": 7}, "7": {"stimulus": 64, "trial": 7, "categoryRate": "NA", "rt": 1617, "rating": 3}, "6": {"stimulus": 32, "trial": 6, "categoryRate": "NA", "rt": 14562, "rating": 9}, "9": {"stimulus": -1, "trial": 9, "categoryRate": "Beta", "rt": 2002, "rating": 9}, "8": {"stimulus": -1, "trial": 8, "categoryRate": "Alpha", "rt": 10877, "rating": 4}}, "submit": {"timeTotal": 570755, "age": "26", "comments": "none", "sex": "male"}}