{"info": {"finish": 1521116138720, "participant": 160, "exposed": true, "stimuli": [30, 32, 48, 50, 0, 80, 8, 36], "lab": false, "pptmatch": 112, "start": 1521115749075, "catflip": false, "categories": [0, 0, 0, 0, 1, 1, 1, 1], "counterbalance": 4, "condition": "Middle", "browser": {"platform": "Win32", "userAgent": "Mozilla/5.0 (Windows NT 10.0; Win64; x64) AppleWebKit/537.36 (KHTML, like Gecko) Chrome/64.0.3282.186 Safari/537.36"}}, "assignment": {"24": {"stimulus": 0, "trial": 24, "rt": 999, "correctcat": 1, "response": 1}, "25": {"stimulus": 48, "trial": 25, "rt": 1095, "correctcat": 0, "response": 0}, "26": {"stimulus": 36, "trial": 26, "rt": 1625, "correctcat": 1, "response": 1}, "27": {"stimulus": 80, "trial": 27, "rt": 2592, "correctcat": 1, "response": 1}, "20": {"stimulus": 48, "trial": 20, "rt": 1297, "correctcat": 0, "response": 0}, "21": {"stimulus": 80, "trial": 21, "rt": 896, "correctcat": 1, "response": 1}, "22": {"stimulus": 0, "trial": 22, "rt": 1954, "correctcat": 1, "response": 1}, "23": {"stimulus": 30, "trial": 23, "rt": 1176, "correctcat": 0, "response": 0}, "28": {"stimulus": 50, "trial": 28, "rt": 8284, "correctcat": 0, "response": 0}, "29": {"stimulus": 8, "trial": 29, "rt": 2151, "correctcat": 1, "response": 1}, "1": {"stimulus": 80, "trial": 1, "rt": 3137, "correctcat": 1, "response": 0}, "0": {"stimulus": 0, "trial": 0, "rt": 3182, "correctcat": 1, "response": 0}, "3": {"stimulus": 30, "trial": 3, "rt": 1252, "correctcat": 0, "response": 1}, "2": {"stimulus": 8, "trial": 2, "rt": 1527, "correctcat": 1, "response": 0}, "5": {"stimulus": 48, "trial": 5, "rt": 1180, "correctcat": 0, "response": 0}, "4": {"stimulus": 50, "trial": 4, "rt": 2279, "correctcat": 0, "response": 0}, "7": {"stimulus": 32, "trial": 7, "rt": 3697, "correctcat": 0, "response": 0}, "6": {"stimulus": 36, "trial": 6, "rt": 2335, "correctcat": 1, "response": 1}, "9": {"stimulus": 80, "trial": 9, "rt": 1218, "correctcat": 1, "response": 1}, "8": {"stimulus": 50, "trial": 8, "rt": 985, "correctcat": 0, "response": 0}, "11": {"stimulus": 48, "trial": 11, "rt": 1254, "correctcat": 0, "response": 0}, "10": {"stimulus": 8, "trial": 10, "rt": 1288, "correctcat": 1, "response": 1}, "13": {"stimulus": 0, "trial": 13, "rt": 1061, "correctcat": 1, "response": 1}, "12": {"stimulus": 32, "trial": 12, "rt": 1101, "correctcat": 0, "response": 0}, "15": {"stimulus": 30, "trial": 15, "rt": 1143, "correctcat": 0, "response": 0}, "14": {"stimulus": 36, "trial": 14, "rt": 634, "correctcat": 1, "response": 1}, "17": {"stimulus": 50, "trial": 17, "rt": 624, "correctcat": 0, "response": 0}, "16": {"stimulus": 32, "trial": 16, "rt": 1035, "correctcat": 0, "response": 0}, "19": {"stimulus": 36, "trial": 19, "rt": 1178, "correctcat": 1, "response": 1}, "18": {"stimulus": 8, "trial": 18, "rt": 1192, "correctcat": 1, "response": 1}, "31": {"stimulus": 30, "trial": 31, "rt": 1159, "correctcat": 0, "response": 0}, "30": {"stimulus": 32, "trial": 30, "rt": 1247, "correctcat": 0, "response": 0}}, "experiment": {"Paradigm": "TACL", "Stimuli": "Size-Color Squares", "Experiment": "Assigning-Generated-Categories"}, "goodness": {"1": {"stimulus": 80, "trial": 1, "categoryRate": "NA", "rt": 6053, "rating": 3}, "0": {"stimulus": 8, "trial": 0, "categoryRate": "NA", "rt": 9596, "rating": 3}, "3": {"stimulus": 32, "trial": 3, "categoryRate": "NA", "rt": 4298, "rating": 7}, "2": {"stimulus": 0, "trial": 2, "categoryRate": "NA", "rt": 5996, "rating": 8}, "5": {"stimulus": 50, "trial": 5, "categoryRate": "NA", "rt": 3738, "rating": 7}, "4": {"stimulus": 30, "trial": 4, "categoryRate": "NA", "rt": 3023, "rating": 8}, "7": {"stimulus": 36, "trial": 7, "categoryRate": "NA", "rt": 5695, "rating": 10}, "6": {"stimulus": 48, "trial": 6, "categoryRate": "NA", "rt": 3434, "rating": 9}, "9": {"stimulus": -1, "trial": 9, "categoryRate": "Beta", "rt": 4563, "rating": 9}, "8": {"stimulus": -1, "trial": 8, "categoryRate": "Alpha", "rt": 15580, "rating": 7}}, "submit": {"timeTotal": 389938, "age": "35", "comments": "I had no problems with the experiment.", "sex": "male"}}