{"info": {"finish": 1521117507182, "participant": 165, "exposed": true, "stimuli": [12, 14, 30, 32, 27, 63, 0, 9], "lab": false, "pptmatch": 56, "start": 1521117288455, "catflip": false, "categories": [0, 0, 0, 0, 1, 1, 1, 1], "counterbalance": 7, "condition": "Bottom", "browser": {"platform": "Win32", "userAgent": "Mozilla/5.0 (Windows NT 6.1; Win64; x64) AppleWebKit/537.36 (KHTML, like Gecko) Chrome/64.0.3282.186 Safari/537.36"}}, "assignment": {"24": {"stimulus": 12, "trial": 24, "rt": 1127, "correctcat": 0, "response": 0}, "25": {"stimulus": 27, "trial": 25, "rt": 1247, "correctcat": 1, "response": 1}, "26": {"stimulus": 9, "trial": 26, "rt": 1102, "correctcat": 1, "response": 1}, "27": {"stimulus": 32, "trial": 27, "rt": 796, "correctcat": 0, "response": 0}, "20": {"stimulus": 63, "trial": 20, "rt": 1076, "correctcat": 1, "response": 1}, "21": {"stimulus": 14, "trial": 21, "rt": 1481, "correctcat": 0, "response": 0}, "22": {"stimulus": 9, "trial": 22, "rt": 1125, "correctcat": 1, "response": 1}, "23": {"stimulus": 0, "trial": 23, "rt": 1005, "correctcat": 1, "response": 1}, "28": {"stimulus": 63, "trial": 28, "rt": 1066, "correctcat": 1, "response": 1}, "29": {"stimulus": 30, "trial": 29, "rt": 958, "correctcat": 0, "response": 0}, "1": {"stimulus": 30, "trial": 1, "rt": 1786, "correctcat": 0, "response": 0}, "0": {"stimulus": 9, "trial": 0, "rt": 2591, "correctcat": 1, "response": 0}, "3": {"stimulus": 63, "trial": 3, "rt": 1170, "correctcat": 1, "response": 1}, "2": {"stimulus": 12, "trial": 2, "rt": 1616, "correctcat": 0, "response": 0}, "5": {"stimulus": 14, "trial": 5, "rt": 1581, "correctcat": 0, "response": 0}, "4": {"stimulus": 27, "trial": 4, "rt": 982, "correctcat": 1, "response": 1}, "7": {"stimulus": 32, "trial": 7, "rt": 786, "correctcat": 0, "response": 0}, "6": {"stimulus": 0, "trial": 6, "rt": 1036, "correctcat": 1, "response": 0}, "9": {"stimulus": 30, "trial": 9, "rt": 992, "correctcat": 0, "response": 0}, "8": {"stimulus": 12, "trial": 8, "rt": 1847, "correctcat": 0, "response": 0}, "11": {"stimulus": 9, "trial": 11, "rt": 977, "correctcat": 1, "response": 1}, "10": {"stimulus": 63, "trial": 10, "rt": 1027, "correctcat": 1, "response": 1}, "13": {"stimulus": 14, "trial": 13, "rt": 1575, "correctcat": 0, "response": 0}, "12": {"stimulus": 27, "trial": 12, "rt": 1002, "correctcat": 1, "response": 1}, "15": {"stimulus": 0, "trial": 15, "rt": 1071, "correctcat": 1, "response": 1}, "14": {"stimulus": 32, "trial": 14, "rt": 823, "correctcat": 0, "response": 0}, "17": {"stimulus": 27, "trial": 17, "rt": 1024, "correctcat": 1, "response": 1}, "16": {"stimulus": 32, "trial": 16, "rt": 1126, "correctcat": 0, "response": 0}, "19": {"stimulus": 12, "trial": 19, "rt": 1125, "correctcat": 0, "response": 0}, "18": {"stimulus": 30, "trial": 18, "rt": 983, "correctcat": 0, "response": 0}, "31": {"stimulus": 14, "trial": 31, "rt": 926, "correctcat": 0, "response": 0}, "30": {"stimulus": 0, "trial": 30, "rt": 1217, "correctcat": 1, "response": 1}}, "experiment": {"Paradigm": "TACL", "Stimuli": "Size-Color Squares", "Experiment": "Assigning-Generated-Categories"}, "goodness": {"1": {"stimulus": 63, "trial": 1, "categoryRate": "NA", "rt": 2448, "rating": 7}, "0": {"stimulus": 9, "trial": 0, "categoryRate": "NA", "rt": 3823, "rating": 6}, "3": {"stimulus": 14, "trial": 3, "categoryRate": "NA", "rt": 2220, "rating": 7}, "2": {"stimulus": 30, "trial": 2, "categoryRate": "NA", "rt": 2104, "rating": 6}, "5": {"stimulus": 0, "trial": 5, "categoryRate": "NA", "rt": 1960, "rating": 6}, "4": {"stimulus": 32, "trial": 4, "categoryRate": "NA", "rt": 2890, "rating": 7}, "7": {"stimulus": 27, "trial": 7, "categoryRate": "NA", "rt": 2314, "rating": 6}, "6": {"stimulus": 12, "trial": 6, "categoryRate": "NA", "rt": 3126, "rating": 7}, "9": {"stimulus": -1, "trial": 9, "categoryRate": "Beta", "rt": 7529, "rating": 9}, "8": {"stimulus": -1, "trial": 8, "categoryRate": "Alpha", "rt": 18593, "rating": 7}}, "submit": {"timeTotal": 218930, "age": "56", "comments": "interesting", "sex": "male"}}