{"info": {"finish": 1521117843565, "participant": 166, "exposed": true, "stimuli": [30, 32, 48, 50, 74, 78, 16, 3], "lab": false, "pptmatch": 18, "start": 1521117688254, "catflip": true, "categories": [1, 1, 1, 1, 0, 0, 0, 0], "counterbalance": 2, "condition": "Middle", "browser": {"platform": "Win32", "userAgent": "Mozilla/5.0 (Windows NT 6.1; WOW64) AppleWebKit/537.36 (KHTML, like Gecko) Chrome/65.0.3325.162 Safari/537.36"}}, "assignment": {"24": {"stimulus": 74, "trial": 24, "rt": 774, "correctcat": 0, "response": 0}, "25": {"stimulus": 32, "trial": 25, "rt": 374, "correctcat": 1, "response": 1}, "26": {"stimulus": 30, "trial": 26, "rt": 340, "correctcat": 1, "response": 1}, "27": {"stimulus": 48, "trial": 27, "rt": 351, "correctcat": 1, "response": 1}, "20": {"stimulus": 78, "trial": 20, "rt": 324, "correctcat": 0, "response": 0}, "21": {"stimulus": 30, "trial": 21, "rt": 452, "correctcat": 1, "response": 1}, "22": {"stimulus": 50, "trial": 22, "rt": 7687, "correctcat": 1, "response": 0}, "23": {"stimulus": 16, "trial": 23, "rt": 517, "correctcat": 0, "response": 0}, "28": {"stimulus": 78, "trial": 28, "rt": 1116, "correctcat": 0, "response": 0}, "29": {"stimulus": 16, "trial": 29, "rt": 191, "correctcat": 0, "response": 0}, "1": {"stimulus": 50, "trial": 1, "rt": 1083, "correctcat": 1, "response": 1}, "0": {"stimulus": 78, "trial": 0, "rt": 1123, "correctcat": 0, "response": 0}, "3": {"stimulus": 32, "trial": 3, "rt": 2339, "correctcat": 1, "response": 0}, "2": {"stimulus": 30, "trial": 2, "rt": 3607, "correctcat": 1, "response": 1}, "5": {"stimulus": 3, "trial": 5, "rt": 941, "correctcat": 0, "response": 1}, "4": {"stimulus": 74, "trial": 4, "rt": 470, "correctcat": 0, "response": 0}, "7": {"stimulus": 16, "trial": 7, "rt": 2580, "correctcat": 0, "response": 1}, "6": {"stimulus": 48, "trial": 6, "rt": 1189, "correctcat": 1, "response": 1}, "9": {"stimulus": 30, "trial": 9, "rt": 702, "correctcat": 1, "response": 1}, "8": {"stimulus": 74, "trial": 8, "rt": 727, "correctcat": 0, "response": 0}, "11": {"stimulus": 48, "trial": 11, "rt": 310, "correctcat": 1, "response": 0}, "10": {"stimulus": 3, "trial": 10, "rt": 334, "correctcat": 0, "response": 0}, "13": {"stimulus": 16, "trial": 13, "rt": 1101, "correctcat": 0, "response": 1}, "12": {"stimulus": 32, "trial": 12, "rt": 550, "correctcat": 1, "response": 0}, "15": {"stimulus": 78, "trial": 15, "rt": 543, "correctcat": 0, "response": 0}, "14": {"stimulus": 50, "trial": 14, "rt": 588, "correctcat": 1, "response": 0}, "17": {"stimulus": 32, "trial": 17, "rt": 317, "correctcat": 1, "response": 0}, "16": {"stimulus": 3, "trial": 16, "rt": 693, "correctcat": 0, "response": 1}, "19": {"stimulus": 74, "trial": 19, "rt": 446, "correctcat": 0, "response": 0}, "18": {"stimulus": 48, "trial": 18, "rt": 500, "correctcat": 1, "response": 0}, "31": {"stimulus": 3, "trial": 31, "rt": 332, "correctcat": 0, "response": 0}, "30": {"stimulus": 50, "trial": 30, "rt": 246, "correctcat": 1, "response": 1}}, "experiment": {"Paradigm": "TACL", "Stimuli": "Size-Color Squares", "Experiment": "Assigning-Generated-Categories"}, "goodness": {"1": {"stimulus": 50, "trial": 1, "categoryRate": "NA", "rt": 2459, "rating": 3}, "0": {"stimulus": 78, "trial": 0, "categoryRate": "NA", "rt": 1674, "rating": 7}, "3": {"stimulus": 3, "trial": 3, "categoryRate": "NA", "rt": 1717, "rating": 4}, "2": {"stimulus": 48, "trial": 2, "categoryRate": "NA", "rt": 1266, "rating": 6}, "5": {"stimulus": 32, "trial": 5, "categoryRate": "NA", "rt": 1506, "rating": 4}, "4": {"stimulus": 74, "trial": 4, "categoryRate": "NA", "rt": 1669, "rating": 3}, "7": {"stimulus": 16, "trial": 7, "categoryRate": "NA", "rt": 797, "rating": 6}, "6": {"stimulus": 30, "trial": 6, "categoryRate": "NA", "rt": 828, "rating": 7}, "9": {"stimulus": -1, "trial": 9, "categoryRate": "Alpha", "rt": 1513, "rating": 6}, "8": {"stimulus": -1, "trial": 8, "categoryRate": "Beta", "rt": 2019, "rating": 4}}, "submit": {"timeTotal": 156642, "age": "30", "comments": "none", "sex": "male"}}