{"info": {"finish": 1521057891225, "participant": 17, "exposed": true, "stimuli": [12, 14, 30, 32, 74, 55, 36, 48], "lab": false, "pptmatch": 17, "start": 1521057584072, "catflip": true, "categories": [1, 1, 1, 1, 0, 0, 0, 0], "counterbalance": 6, "condition": "Bottom", "browser": {"platform": "Win32", "userAgent": "Mozilla/5.0 (Windows NT 10.0; Win64; x64) AppleWebKit/537.36 (KHTML, like Gecko) Chrome/64.0.3282.186 Safari/537.36"}}, "assignment": {"24": {"stimulus": 32, "trial": 24, "rt": 779, "correctcat": 1, "response": 1}, "25": {"stimulus": 74, "trial": 25, "rt": 676, "correctcat": 0, "response": 0}, "26": {"stimulus": 48, "trial": 26, "rt": 857, "correctcat": 0, "response": 0}, "27": {"stimulus": 14, "trial": 27, "rt": 2073, "correctcat": 1, "response": 1}, "20": {"stimulus": 14, "trial": 20, "rt": 973, "correctcat": 1, "response": 1}, "21": {"stimulus": 74, "trial": 21, "rt": 983, "correctcat": 0, "response": 0}, "22": {"stimulus": 12, "trial": 22, "rt": 856, "correctcat": 1, "response": 1}, "23": {"stimulus": 48, "trial": 23, "rt": 881, "correctcat": 0, "response": 0}, "28": {"stimulus": 30, "trial": 28, "rt": 1661, "correctcat": 1, "response": 1}, "29": {"stimulus": 12, "trial": 29, "rt": 761, "correctcat": 1, "response": 1}, "1": {"stimulus": 74, "trial": 1, "rt": 895, "correctcat": 0, "response": 1}, "0": {"stimulus": 14, "trial": 0, "rt": 2502, "correctcat": 1, "response": 0}, "3": {"stimulus": 32, "trial": 3, "rt": 831, "correctcat": 1, "response": 1}, "2": {"stimulus": 12, "trial": 2, "rt": 2015, "correctcat": 1, "response": 1}, "5": {"stimulus": 36, "trial": 5, "rt": 497, "correctcat": 0, "response": 0}, "4": {"stimulus": 48, "trial": 4, "rt": 704, "correctcat": 0, "response": 0}, "7": {"stimulus": 30, "trial": 7, "rt": 470, "correctcat": 1, "response": 0}, "6": {"stimulus": 55, "trial": 6, "rt": 575, "correctcat": 0, "response": 0}, "9": {"stimulus": 12, "trial": 9, "rt": 2586, "correctcat": 1, "response": 1}, "8": {"stimulus": 32, "trial": 8, "rt": 1005, "correctcat": 1, "response": 1}, "11": {"stimulus": 30, "trial": 11, "rt": 719, "correctcat": 1, "response": 1}, "10": {"stimulus": 74, "trial": 10, "rt": 1237, "correctcat": 0, "response": 0}, "13": {"stimulus": 48, "trial": 13, "rt": 710, "correctcat": 0, "response": 0}, "12": {"stimulus": 14, "trial": 12, "rt": 1243, "correctcat": 1, "response": 1}, "15": {"stimulus": 36, "trial": 15, "rt": 884, "correctcat": 0, "response": 1}, "14": {"stimulus": 55, "trial": 14, "rt": 831, "correctcat": 0, "response": 0}, "17": {"stimulus": 32, "trial": 17, "rt": 958, "correctcat": 1, "response": 0}, "16": {"stimulus": 55, "trial": 16, "rt": 878, "correctcat": 0, "response": 0}, "19": {"stimulus": 36, "trial": 19, "rt": 999, "correctcat": 0, "response": 1}, "18": {"stimulus": 30, "trial": 18, "rt": 1260, "correctcat": 1, "response": 1}, "31": {"stimulus": 55, "trial": 31, "rt": 674, "correctcat": 0, "response": 0}, "30": {"stimulus": 36, "trial": 30, "rt": 3859, "correctcat": 0, "response": 1}}, "experiment": {"Paradigm": "TACL", "Stimuli": "Size-Color Squares", "Experiment": "Assigning-Generated-Categories"}, "goodness": {"1": {"stimulus": 48, "trial": 1, "categoryRate": "NA", "rt": 2322, "rating": 6}, "0": {"stimulus": 30, "trial": 0, "categoryRate": "NA", "rt": 4463, "rating": 8}, "3": {"stimulus": 74, "trial": 3, "categoryRate": "NA", "rt": 4559, "rating": 2}, "2": {"stimulus": 14, "trial": 2, "categoryRate": "NA", "rt": 2688, "rating": 10}, "5": {"stimulus": 12, "trial": 5, "categoryRate": "NA", "rt": 2189, "rating": 9}, "4": {"stimulus": 55, "trial": 4, "categoryRate": "NA", "rt": 2806, "rating": 4}, "7": {"stimulus": 32, "trial": 7, "categoryRate": "NA", "rt": 1701, "rating": 8}, "6": {"stimulus": 36, "trial": 6, "categoryRate": "NA", "rt": 1937, "rating": 6}, "9": {"stimulus": -1, "trial": 9, "categoryRate": "Alpha", "rt": 2565, "rating": 2}, "8": {"stimulus": -1, "trial": 8, "categoryRate": "Beta", "rt": 5894, "rating": 9}}, "submit": {"timeTotal": 307518, "age": "29", "comments": "none", "sex": "female"}}