{"info": {"finish": 1521124327255, "participant": 179, "exposed": true, "stimuli": [12, 14, 30, 32, 75, 76, 74, 73], "lab": false, "pptmatch": 2, "start": 1521124052071, "catflip": false, "categories": [0, 0, 0, 0, 1, 1, 1, 1], "counterbalance": 5, "condition": "Bottom", "browser": {"platform": "Win32", "userAgent": "Mozilla/5.0 (Windows NT 10.0; Win64; x64) AppleWebKit/537.36 (KHTML, like Gecko) Chrome/65.0.3325.162 Safari/537.36"}}, "assignment": {"24": {"stimulus": 76, "trial": 24, "rt": 1190, "correctcat": 1, "response": 1}, "25": {"stimulus": 12, "trial": 25, "rt": 1291, "correctcat": 0, "response": 0}, "26": {"stimulus": 74, "trial": 26, "rt": 1629, "correctcat": 1, "response": 0}, "27": {"stimulus": 73, "trial": 27, "rt": 1498, "correctcat": 1, "response": 1}, "20": {"stimulus": 32, "trial": 20, "rt": 1002, "correctcat": 0, "response": 1}, "21": {"stimulus": 74, "trial": 21, "rt": 1183, "correctcat": 1, "response": 1}, "22": {"stimulus": 12, "trial": 22, "rt": 1467, "correctcat": 0, "response": 1}, "23": {"stimulus": 14, "trial": 23, "rt": 1545, "correctcat": 0, "response": 0}, "28": {"stimulus": 30, "trial": 28, "rt": 1351, "correctcat": 0, "response": 0}, "29": {"stimulus": 14, "trial": 29, "rt": 1315, "correctcat": 0, "response": 0}, "1": {"stimulus": 73, "trial": 1, "rt": 2835, "correctcat": 1, "response": 0}, "0": {"stimulus": 30, "trial": 0, "rt": 3826, "correctcat": 0, "response": 0}, "3": {"stimulus": 14, "trial": 3, "rt": 1818, "correctcat": 0, "response": 0}, "2": {"stimulus": 12, "trial": 2, "rt": 2726, "correctcat": 0, "response": 1}, "5": {"stimulus": 75, "trial": 5, "rt": 2349, "correctcat": 1, "response": 1}, "4": {"stimulus": 74, "trial": 4, "rt": 1406, "correctcat": 1, "response": 0}, "7": {"stimulus": 32, "trial": 7, "rt": 1400, "correctcat": 0, "response": 1}, "6": {"stimulus": 76, "trial": 6, "rt": 1998, "correctcat": 1, "response": 0}, "9": {"stimulus": 30, "trial": 9, "rt": 1420, "correctcat": 0, "response": 1}, "8": {"stimulus": 32, "trial": 8, "rt": 1571, "correctcat": 0, "response": 0}, "11": {"stimulus": 12, "trial": 11, "rt": 1441, "correctcat": 0, "response": 0}, "10": {"stimulus": 76, "trial": 10, "rt": 1162, "correctcat": 1, "response": 1}, "13": {"stimulus": 14, "trial": 13, "rt": 1373, "correctcat": 0, "response": 1}, "12": {"stimulus": 74, "trial": 12, "rt": 1373, "correctcat": 1, "response": 0}, "15": {"stimulus": 75, "trial": 15, "rt": 1305, "correctcat": 1, "response": 0}, "14": {"stimulus": 73, "trial": 14, "rt": 1268, "correctcat": 1, "response": 1}, "17": {"stimulus": 30, "trial": 17, "rt": 1571, "correctcat": 0, "response": 0}, "16": {"stimulus": 73, "trial": 16, "rt": 1635, "correctcat": 1, "response": 0}, "19": {"stimulus": 76, "trial": 19, "rt": 1603, "correctcat": 1, "response": 0}, "18": {"stimulus": 75, "trial": 18, "rt": 1280, "correctcat": 1, "response": 1}, "31": {"stimulus": 32, "trial": 31, "rt": 1204, "correctcat": 0, "response": 0}, "30": {"stimulus": 75, "trial": 30, "rt": 1436, "correctcat": 1, "response": 1}}, "experiment": {"Paradigm": "TACL", "Stimuli": "Size-Color Squares", "Experiment": "Assigning-Generated-Categories"}, "goodness": {"1": {"stimulus": 76, "trial": 1, "categoryRate": "NA", "rt": 5822, "rating": 8}, "0": {"stimulus": 30, "trial": 0, "categoryRate": "NA", "rt": 7264, "rating": 8}, "3": {"stimulus": 75, "trial": 3, "categoryRate": "NA", "rt": 3717, "rating": 7}, "2": {"stimulus": 14, "trial": 2, "categoryRate": "NA", "rt": 3692, "rating": 6}, "5": {"stimulus": 74, "trial": 5, "categoryRate": "NA", "rt": 5588, "rating": 8}, "4": {"stimulus": 73, "trial": 4, "categoryRate": "NA", "rt": 6009, "rating": 6}, "7": {"stimulus": 12, "trial": 7, "categoryRate": "NA", "rt": 4944, "rating": 5}, "6": {"stimulus": 32, "trial": 6, "categoryRate": "NA", "rt": 7015, "rating": 7}, "9": {"stimulus": -1, "trial": 9, "categoryRate": "Beta", "rt": 3809, "rating": 9}, "8": {"stimulus": -1, "trial": 8, "categoryRate": "Alpha", "rt": 12577, "rating": 7}}, "submit": {"timeTotal": 275454, "age": "46", "comments": "fun and enjoyable!", "sex": "female"}}