{"info": {"finish": 1521124932366, "participant": 187, "exposed": true, "stimuli": [30, 32, 48, 50, 62, 80, 8, 35], "lab": false, "pptmatch": 100, "start": 1521124662333, "catflip": true, "categories": [1, 1, 1, 1, 0, 0, 0, 0], "counterbalance": 2, "condition": "Middle", "browser": {"platform": "Win32", "userAgent": "Mozilla/5.0 (Windows NT 10.0; Win64; x64) AppleWebKit/537.36 (KHTML, like Gecko) Chrome/64.0.3282.186 Safari/537.36"}}, "assignment": {"24": {"stimulus": 30, "trial": 24, "rt": 1323, "correctcat": 1, "response": 1}, "25": {"stimulus": 8, "trial": 25, "rt": 1235, "correctcat": 0, "response": 0}, "26": {"stimulus": 35, "trial": 26, "rt": 1076, "correctcat": 0, "response": 0}, "27": {"stimulus": 32, "trial": 27, "rt": 938, "correctcat": 1, "response": 1}, "20": {"stimulus": 80, "trial": 20, "rt": 1375, "correctcat": 0, "response": 0}, "21": {"stimulus": 32, "trial": 21, "rt": 1034, "correctcat": 1, "response": 1}, "22": {"stimulus": 8, "trial": 22, "rt": 1276, "correctcat": 0, "response": 0}, "23": {"stimulus": 62, "trial": 23, "rt": 1817, "correctcat": 0, "response": 0}, "28": {"stimulus": 48, "trial": 28, "rt": 966, "correctcat": 1, "response": 1}, "29": {"stimulus": 80, "trial": 29, "rt": 1141, "correctcat": 0, "response": 0}, "1": {"stimulus": 48, "trial": 1, "rt": 3634, "correctcat": 1, "response": 0}, "0": {"stimulus": 30, "trial": 0, "rt": 4596, "correctcat": 1, "response": 0}, "3": {"stimulus": 32, "trial": 3, "rt": 1844, "correctcat": 1, "response": 0}, "2": {"stimulus": 50, "trial": 2, "rt": 1066, "correctcat": 1, "response": 1}, "5": {"stimulus": 35, "trial": 5, "rt": 1110, "correctcat": 0, "response": 1}, "4": {"stimulus": 8, "trial": 4, "rt": 1117, "correctcat": 0, "response": 0}, "7": {"stimulus": 80, "trial": 7, "rt": 1066, "correctcat": 0, "response": 0}, "6": {"stimulus": 62, "trial": 6, "rt": 1330, "correctcat": 0, "response": 1}, "9": {"stimulus": 30, "trial": 9, "rt": 1483, "correctcat": 1, "response": 0}, "8": {"stimulus": 62, "trial": 8, "rt": 2356, "correctcat": 0, "response": 1}, "11": {"stimulus": 32, "trial": 11, "rt": 2108, "correctcat": 1, "response": 0}, "10": {"stimulus": 8, "trial": 10, "rt": 1914, "correctcat": 0, "response": 0}, "13": {"stimulus": 80, "trial": 13, "rt": 1148, "correctcat": 0, "response": 1}, "12": {"stimulus": 48, "trial": 12, "rt": 2452, "correctcat": 1, "response": 1}, "15": {"stimulus": 50, "trial": 15, "rt": 1459, "correctcat": 1, "response": 1}, "14": {"stimulus": 35, "trial": 14, "rt": 2370, "correctcat": 0, "response": 1}, "17": {"stimulus": 35, "trial": 17, "rt": 1278, "correctcat": 0, "response": 0}, "16": {"stimulus": 30, "trial": 16, "rt": 1132, "correctcat": 1, "response": 0}, "19": {"stimulus": 48, "trial": 19, "rt": 1421, "correctcat": 1, "response": 1}, "18": {"stimulus": 50, "trial": 18, "rt": 2237, "correctcat": 1, "response": 1}, "31": {"stimulus": 62, "trial": 31, "rt": 1293, "correctcat": 0, "response": 0}, "30": {"stimulus": 50, "trial": 30, "rt": 900, "correctcat": 1, "response": 1}}, "experiment": {"Paradigm": "TACL", "Stimuli": "Size-Color Squares", "Experiment": "Assigning-Generated-Categories"}, "goodness": {"1": {"stimulus": 48, "trial": 1, "categoryRate": "NA", "rt": 3477, "rating": 6}, "0": {"stimulus": 50, "trial": 0, "categoryRate": "NA", "rt": 6658, "rating": 6}, "3": {"stimulus": 35, "trial": 3, "categoryRate": "NA", "rt": 5036, "rating": 3}, "2": {"stimulus": 30, "trial": 2, "categoryRate": "NA", "rt": 3106, "rating": 4}, "5": {"stimulus": 8, "trial": 5, "categoryRate": "NA", "rt": 2764, "rating": 3}, "4": {"stimulus": 32, "trial": 4, "categoryRate": "NA", "rt": 2829, "rating": 7}, "7": {"stimulus": 80, "trial": 7, "categoryRate": "NA", "rt": 2452, "rating": 3}, "6": {"stimulus": 62, "trial": 6, "categoryRate": "NA", "rt": 2802, "rating": 4}, "9": {"stimulus": -1, "trial": 9, "categoryRate": "Alpha", "rt": 10226, "rating": 9}, "8": {"stimulus": -1, "trial": 8, "categoryRate": "Beta", "rt": 18857, "rating": 4}}, "submit": {"timeTotal": 270375, "age": "45", "comments": "Interesting.", "sex": "Female"}}