{"info": {"finish": 1521127113738, "participant": 189, "exposed": true, "stimuli": [30, 32, 48, 50, 41, 32, 50, 40], "lab": false, "pptmatch": 44, "start": 1521126693106, "catflip": true, "categories": [1, 1, 1, 1, 0, 0, 0, 0], "counterbalance": 7, "condition": "Middle", "browser": {"platform": "Linux x86_64", "userAgent": "Mozilla/5.0 (X11; Ubuntu; Linux x86_64; rv:59.0) Gecko/20100101 Firefox/59.0"}}, "assignment": {"24": {"stimulus": 32, "trial": 24, "rt": 5844, "correctcat": 1, "response": 0}, "25": {"stimulus": 32, "trial": 25, "rt": 424, "correctcat": 0, "response": 1}, "26": {"stimulus": 50, "trial": 26, "rt": 394, "correctcat": 0, "response": 1}, "27": {"stimulus": 50, "trial": 27, "rt": 684, "correctcat": 1, "response": 0}, "20": {"stimulus": 50, "trial": 20, "rt": 664, "correctcat": 1, "response": 0}, "21": {"stimulus": 50, "trial": 21, "rt": 1510, "correctcat": 0, "response": 1}, "22": {"stimulus": 30, "trial": 22, "rt": 912, "correctcat": 1, "response": 1}, "23": {"stimulus": 41, "trial": 23, "rt": 960, "correctcat": 0, "response": 1}, "28": {"stimulus": 30, "trial": 28, "rt": 4482, "correctcat": 1, "response": 1}, "29": {"stimulus": 48, "trial": 29, "rt": 8110, "correctcat": 1, "response": 1}, "1": {"stimulus": 41, "trial": 1, "rt": 942, "correctcat": 0, "response": 1}, "0": {"stimulus": 32, "trial": 0, "rt": 2762, "correctcat": 1, "response": 0}, "3": {"stimulus": 32, "trial": 3, "rt": 842, "correctcat": 0, "response": 0}, "2": {"stimulus": 30, "trial": 2, "rt": 1012, "correctcat": 1, "response": 1}, "5": {"stimulus": 48, "trial": 5, "rt": 1342, "correctcat": 1, "response": 1}, "4": {"stimulus": 40, "trial": 4, "rt": 626, "correctcat": 0, "response": 1}, "7": {"stimulus": 50, "trial": 7, "rt": 834, "correctcat": 0, "response": 1}, "6": {"stimulus": 50, "trial": 6, "rt": 904, "correctcat": 1, "response": 0}, "9": {"stimulus": 32, "trial": 9, "rt": 832, "correctcat": 1, "response": 0}, "8": {"stimulus": 30, "trial": 8, "rt": 1122, "correctcat": 1, "response": 1}, "11": {"stimulus": 32, "trial": 11, "rt": 10832, "correctcat": 0, "response": 0}, "10": {"stimulus": 41, "trial": 10, "rt": 1360, "correctcat": 0, "response": 0}, "13": {"stimulus": 48, "trial": 13, "rt": 1550, "correctcat": 1, "response": 1}, "12": {"stimulus": 50, "trial": 12, "rt": 2124, "correctcat": 0, "response": 0}, "15": {"stimulus": 40, "trial": 15, "rt": 1848, "correctcat": 0, "response": 0}, "14": {"stimulus": 50, "trial": 14, "rt": 1590, "correctcat": 1, "response": 0}, "17": {"stimulus": 40, "trial": 17, "rt": 1550, "correctcat": 0, "response": 0}, "16": {"stimulus": 48, "trial": 16, "rt": 1690, "correctcat": 1, "response": 1}, "19": {"stimulus": 32, "trial": 19, "rt": 6480, "correctcat": 0, "response": 0}, "18": {"stimulus": 32, "trial": 18, "rt": 2088, "correctcat": 1, "response": 0}, "31": {"stimulus": 40, "trial": 31, "rt": 1382, "correctcat": 0, "response": 1}, "30": {"stimulus": 41, "trial": 30, "rt": 802, "correctcat": 0, "response": 0}}, "experiment": {"Paradigm": "TACL", "Stimuli": "Size-Color Squares", "Experiment": "Assigning-Generated-Categories"}, "goodness": {"1": {"stimulus": 32, "trial": 1, "categoryRate": "NA", "rt": 5238, "rating": 6}, "0": {"stimulus": 30, "trial": 0, "categoryRate": "NA", "rt": 8434, "rating": 7}, "3": {"stimulus": 48, "trial": 3, "categoryRate": "NA", "rt": 7698, "rating": 7}, "2": {"stimulus": 40, "trial": 2, "categoryRate": "NA", "rt": 2388, "rating": 6}, "5": {"stimulus": 50, "trial": 5, "categoryRate": "NA", "rt": 1296, "rating": 6}, "4": {"stimulus": 32, "trial": 4, "categoryRate": "NA", "rt": 1812, "rating": 4}, "7": {"stimulus": 41, "trial": 7, "categoryRate": "NA", "rt": 1654, "rating": 7}, "6": {"stimulus": 50, "trial": 6, "categoryRate": "NA", "rt": 1210, "rating": 6}, "9": {"stimulus": -1, "trial": 9, "categoryRate": "Alpha", "rt": 20516, "rating": 7}, "8": {"stimulus": -1, "trial": 8, "categoryRate": "Beta", "rt": 11522, "rating": 4}}, "submit": {}}