{"info": {"finish": 1521128892669, "participant": 190, "exposed": true, "stimuli": [12, 14, 30, 32, 64, 72, 36, 54], "lab": false, "pptmatch": 34, "start": 1521127943327, "catflip": true, "categories": [1, 1, 1, 1, 0, 0, 0, 0], "counterbalance": 6, "condition": "Bottom", "browser": {"platform": "Win32", "userAgent": "Mozilla/5.0 (Windows NT 10.0; Win64; x64) AppleWebKit/537.36 (KHTML, like Gecko) Chrome/64.0.3282.186 Safari/537.36"}}, "assignment": {"24": {"stimulus": 36, "trial": 24, "rt": 34633, "correctcat": 0, "response": 0}, "25": {"stimulus": 64, "trial": 25, "rt": 855, "correctcat": 0, "response": 0}, "26": {"stimulus": 30, "trial": 26, "rt": 1709, "correctcat": 1, "response": 1}, "27": {"stimulus": 32, "trial": 27, "rt": 935, "correctcat": 1, "response": 1}, "20": {"stimulus": 32, "trial": 20, "rt": 1107, "correctcat": 1, "response": 1}, "21": {"stimulus": 54, "trial": 21, "rt": 949, "correctcat": 0, "response": 0}, "22": {"stimulus": 12, "trial": 22, "rt": 1292, "correctcat": 1, "response": 1}, "23": {"stimulus": 14, "trial": 23, "rt": 822, "correctcat": 1, "response": 1}, "28": {"stimulus": 54, "trial": 28, "rt": 1546, "correctcat": 0, "response": 0}, "29": {"stimulus": 72, "trial": 29, "rt": 1251, "correctcat": 0, "response": 0}, "1": {"stimulus": 14, "trial": 1, "rt": 3279, "correctcat": 1, "response": 1}, "0": {"stimulus": 64, "trial": 0, "rt": 3568, "correctcat": 0, "response": 0}, "3": {"stimulus": 32, "trial": 3, "rt": 1041, "correctcat": 1, "response": 1}, "2": {"stimulus": 72, "trial": 2, "rt": 1343, "correctcat": 0, "response": 0}, "5": {"stimulus": 36, "trial": 5, "rt": 1394, "correctcat": 0, "response": 0}, "4": {"stimulus": 54, "trial": 4, "rt": 882, "correctcat": 0, "response": 0}, "7": {"stimulus": 30, "trial": 7, "rt": 1228, "correctcat": 1, "response": 1}, "6": {"stimulus": 12, "trial": 6, "rt": 1152, "correctcat": 1, "response": 1}, "9": {"stimulus": 30, "trial": 9, "rt": 1375, "correctcat": 1, "response": 1}, "8": {"stimulus": 36, "trial": 8, "rt": 1172, "correctcat": 0, "response": 0}, "11": {"stimulus": 72, "trial": 11, "rt": 1778, "correctcat": 0, "response": 0}, "10": {"stimulus": 12, "trial": 10, "rt": 1647, "correctcat": 1, "response": 1}, "13": {"stimulus": 14, "trial": 13, "rt": 1033, "correctcat": 1, "response": 1}, "12": {"stimulus": 64, "trial": 12, "rt": 1416, "correctcat": 0, "response": 0}, "15": {"stimulus": 32, "trial": 15, "rt": 1133, "correctcat": 1, "response": 1}, "14": {"stimulus": 54, "trial": 14, "rt": 1076, "correctcat": 0, "response": 0}, "17": {"stimulus": 30, "trial": 17, "rt": 1038, "correctcat": 1, "response": 1}, "16": {"stimulus": 72, "trial": 16, "rt": 1398, "correctcat": 0, "response": 0}, "19": {"stimulus": 64, "trial": 19, "rt": 1635, "correctcat": 0, "response": 0}, "18": {"stimulus": 36, "trial": 18, "rt": 1212, "correctcat": 0, "response": 0}, "31": {"stimulus": 12, "trial": 31, "rt": 762, "correctcat": 1, "response": 1}, "30": {"stimulus": 14, "trial": 30, "rt": 914, "correctcat": 1, "response": 1}}, "experiment": {"Paradigm": "TACL", "Stimuli": "Size-Color Squares", "Experiment": "Assigning-Generated-Categories"}, "goodness": {"1": {"stimulus": 72, "trial": 1, "categoryRate": "NA", "rt": 4678, "rating": 2}, "0": {"stimulus": 32, "trial": 0, "categoryRate": "NA", "rt": 11318, "rating": 8}, "3": {"stimulus": 14, "trial": 3, "categoryRate": "NA", "rt": 3773, "rating": 2}, "2": {"stimulus": 54, "trial": 2, "categoryRate": "NA", "rt": 4650, "rating": 7}, "5": {"stimulus": 64, "trial": 5, "categoryRate": "NA", "rt": 3984, "rating": 2}, "4": {"stimulus": 30, "trial": 4, "categoryRate": "NA", "rt": 6848, "rating": 4}, "7": {"stimulus": 36, "trial": 7, "categoryRate": "NA", "rt": 3726, "rating": 8}, "6": {"stimulus": 12, "trial": 6, "categoryRate": "NA", "rt": 4738, "rating": 1}, "9": {"stimulus": -1, "trial": 9, "categoryRate": "Beta", "rt": 3811, "rating": 7}, "8": {"stimulus": -1, "trial": 8, "categoryRate": "Alpha", "rt": 12783, "rating": 9}}, "submit": {"timeTotal": 949473, "age": "24", "comments": "This was fun ", "sex": "female"}}