{"info": {"finish": 1521130812943, "participant": 192, "exposed": true, "stimuli": [12, 14, 30, 32, 72, 80, 0, 8], "lab": false, "pptmatch": 50, "start": 1521130508246, "catflip": false, "categories": [0, 0, 0, 0, 1, 1, 1, 1], "counterbalance": 3, "condition": "Bottom", "browser": {"platform": "Win32", "userAgent": "Mozilla/5.0 (Windows NT 6.1; WOW64) AppleWebKit/537.36 (KHTML, like Gecko) Chrome/65.0.3325.162 Safari/537.36"}}, "assignment": {"24": {"stimulus": 30, "trial": 24, "rt": 1329, "correctcat": 0, "response": 0}, "25": {"stimulus": 72, "trial": 25, "rt": 1560, "correctcat": 1, "response": 1}, "26": {"stimulus": 14, "trial": 26, "rt": 1994, "correctcat": 0, "response": 1}, "27": {"stimulus": 32, "trial": 27, "rt": 1126, "correctcat": 0, "response": 0}, "20": {"stimulus": 72, "trial": 20, "rt": 1800, "correctcat": 1, "response": 1}, "21": {"stimulus": 0, "trial": 21, "rt": 1603, "correctcat": 1, "response": 1}, "22": {"stimulus": 30, "trial": 22, "rt": 1386, "correctcat": 0, "response": 0}, "23": {"stimulus": 14, "trial": 23, "rt": 1695, "correctcat": 0, "response": 0}, "28": {"stimulus": 80, "trial": 28, "rt": 1345, "correctcat": 1, "response": 1}, "29": {"stimulus": 8, "trial": 29, "rt": 3781, "correctcat": 1, "response": 1}, "1": {"stimulus": 32, "trial": 1, "rt": 3137, "correctcat": 0, "response": 0}, "0": {"stimulus": 30, "trial": 0, "rt": 3642, "correctcat": 0, "response": 0}, "3": {"stimulus": 8, "trial": 3, "rt": 2533, "correctcat": 1, "response": 0}, "2": {"stimulus": 12, "trial": 2, "rt": 2462, "correctcat": 0, "response": 1}, "5": {"stimulus": 14, "trial": 5, "rt": 1785, "correctcat": 0, "response": 0}, "4": {"stimulus": 72, "trial": 4, "rt": 3134, "correctcat": 1, "response": 1}, "7": {"stimulus": 0, "trial": 7, "rt": 1115, "correctcat": 1, "response": 0}, "6": {"stimulus": 80, "trial": 6, "rt": 6785, "correctcat": 1, "response": 1}, "9": {"stimulus": 72, "trial": 9, "rt": 1344, "correctcat": 1, "response": 1}, "8": {"stimulus": 32, "trial": 8, "rt": 1813, "correctcat": 0, "response": 0}, "11": {"stimulus": 14, "trial": 11, "rt": 2713, "correctcat": 0, "response": 0}, "10": {"stimulus": 30, "trial": 10, "rt": 2293, "correctcat": 0, "response": 0}, "13": {"stimulus": 0, "trial": 13, "rt": 3101, "correctcat": 1, "response": 1}, "12": {"stimulus": 80, "trial": 12, "rt": 2422, "correctcat": 1, "response": 1}, "15": {"stimulus": 8, "trial": 15, "rt": 2055, "correctcat": 1, "response": 1}, "14": {"stimulus": 12, "trial": 14, "rt": 1366, "correctcat": 0, "response": 0}, "17": {"stimulus": 12, "trial": 17, "rt": 3239, "correctcat": 0, "response": 0}, "16": {"stimulus": 32, "trial": 16, "rt": 1365, "correctcat": 0, "response": 0}, "19": {"stimulus": 80, "trial": 19, "rt": 3036, "correctcat": 1, "response": 1}, "18": {"stimulus": 8, "trial": 18, "rt": 1496, "correctcat": 1, "response": 1}, "31": {"stimulus": 0, "trial": 31, "rt": 2144, "correctcat": 1, "response": 0}, "30": {"stimulus": 12, "trial": 30, "rt": 1323, "correctcat": 0, "response": 0}}, "experiment": {"Paradigm": "TACL", "Stimuli": "Size-Color Squares", "Experiment": "Assigning-Generated-Categories"}, "goodness": {"1": {"stimulus": 32, "trial": 1, "categoryRate": "NA", "rt": 8605, "rating": 0}, "0": {"stimulus": 80, "trial": 0, "categoryRate": "NA", "rt": 19779, "rating": 10}, "3": {"stimulus": 0, "trial": 3, "categoryRate": "NA", "rt": 6286, "rating": 10}, "2": {"stimulus": 12, "trial": 2, "categoryRate": "NA", "rt": 3310, "rating": 10}, "5": {"stimulus": 14, "trial": 5, "categoryRate": "NA", "rt": 4890, "rating": 10}, "4": {"stimulus": 8, "trial": 4, "categoryRate": "NA", "rt": 3834, "rating": 0}, "7": {"stimulus": 72, "trial": 7, "categoryRate": "NA", "rt": 2544, "rating": 10}, "6": {"stimulus": 30, "trial": 6, "categoryRate": "NA", "rt": 2292, "rating": 10}, "9": {"stimulus": -1, "trial": 9, "categoryRate": "Beta", "rt": 9574, "rating": 8}, "8": {"stimulus": -1, "trial": 8, "categoryRate": "Alpha", "rt": 14997, "rating": 2}}, "submit": {"timeTotal": 305042, "age": "62", "comments": "Interesting study and I had no problems. I wish you success with your project on Amazon Mechanical Turk.", "sex": "Male"}}