{"info": {"finish": 1521131265093, "participant": 196, "exposed": true, "stimuli": [12, 14, 30, 32, 59, 73, 66, 72], "lab": false, "pptmatch": 1, "start": 1521131053369, "catflip": true, "categories": [1, 1, 1, 1, 0, 0, 0, 0], "counterbalance": 1, "condition": "Bottom", "browser": {"platform": "Win32", "userAgent": "Mozilla/5.0 (Windows NT 6.1; Win64; x64) AppleWebKit/537.36 (KHTML, like Gecko) Chrome/64.0.3282.186 Safari/537.36"}}, "assignment": {"24": {"stimulus": 59, "trial": 24, "rt": 1662, "correctcat": 0, "response": 0}, "25": {"stimulus": 72, "trial": 25, "rt": 1008, "correctcat": 0, "response": 0}, "26": {"stimulus": 30, "trial": 26, "rt": 1357, "correctcat": 1, "response": 1}, "27": {"stimulus": 66, "trial": 27, "rt": 1028, "correctcat": 0, "response": 0}, "20": {"stimulus": 66, "trial": 20, "rt": 646, "correctcat": 0, "response": 0}, "21": {"stimulus": 12, "trial": 21, "rt": 1037, "correctcat": 1, "response": 1}, "22": {"stimulus": 14, "trial": 22, "rt": 1521, "correctcat": 1, "response": 1}, "23": {"stimulus": 32, "trial": 23, "rt": 1811, "correctcat": 1, "response": 1}, "28": {"stimulus": 32, "trial": 28, "rt": 1537, "correctcat": 1, "response": 1}, "29": {"stimulus": 12, "trial": 29, "rt": 3843, "correctcat": 1, "response": 1}, "1": {"stimulus": 12, "trial": 1, "rt": 1780, "correctcat": 1, "response": 1}, "0": {"stimulus": 72, "trial": 0, "rt": 2886, "correctcat": 0, "response": 0}, "3": {"stimulus": 73, "trial": 3, "rt": 545, "correctcat": 0, "response": 0}, "2": {"stimulus": 14, "trial": 2, "rt": 1037, "correctcat": 1, "response": 1}, "5": {"stimulus": 59, "trial": 5, "rt": 662, "correctcat": 0, "response": 0}, "4": {"stimulus": 30, "trial": 4, "rt": 998, "correctcat": 1, "response": 1}, "7": {"stimulus": 32, "trial": 7, "rt": 1254, "correctcat": 1, "response": 1}, "6": {"stimulus": 66, "trial": 6, "rt": 812, "correctcat": 0, "response": 0}, "9": {"stimulus": 32, "trial": 9, "rt": 779, "correctcat": 1, "response": 1}, "8": {"stimulus": 12, "trial": 8, "rt": 553, "correctcat": 1, "response": 1}, "11": {"stimulus": 59, "trial": 11, "rt": 1107, "correctcat": 0, "response": 0}, "10": {"stimulus": 30, "trial": 10, "rt": 866, "correctcat": 1, "response": 1}, "13": {"stimulus": 72, "trial": 13, "rt": 1278, "correctcat": 0, "response": 0}, "12": {"stimulus": 73, "trial": 12, "rt": 998, "correctcat": 0, "response": 0}, "15": {"stimulus": 66, "trial": 15, "rt": 1408, "correctcat": 0, "response": 0}, "14": {"stimulus": 14, "trial": 14, "rt": 1452, "correctcat": 1, "response": 1}, "17": {"stimulus": 73, "trial": 17, "rt": 864, "correctcat": 0, "response": 0}, "16": {"stimulus": 72, "trial": 16, "rt": 956, "correctcat": 0, "response": 1}, "19": {"stimulus": 30, "trial": 19, "rt": 981, "correctcat": 1, "response": 1}, "18": {"stimulus": 59, "trial": 18, "rt": 961, "correctcat": 0, "response": 0}, "31": {"stimulus": 73, "trial": 31, "rt": 1031, "correctcat": 0, "response": 0}, "30": {"stimulus": 14, "trial": 30, "rt": 1312, "correctcat": 1, "response": 1}}, "experiment": {"Paradigm": "TACL", "Stimuli": "Size-Color Squares", "Experiment": "Assigning-Generated-Categories"}, "goodness": {"1": {"stimulus": 30, "trial": 1, "categoryRate": "NA", "rt": 2409, "rating": 8}, "0": {"stimulus": 32, "trial": 0, "categoryRate": "NA", "rt": 10653, "rating": 7}, "3": {"stimulus": 66, "trial": 3, "categoryRate": "NA", "rt": 3511, "rating": 6}, "2": {"stimulus": 59, "trial": 2, "categoryRate": "NA", "rt": 4505, "rating": 6}, "5": {"stimulus": 72, "trial": 5, "categoryRate": "NA", "rt": 1840, "rating": 10}, "4": {"stimulus": 73, "trial": 4, "categoryRate": "NA", "rt": 2284, "rating": 10}, "7": {"stimulus": 14, "trial": 7, "categoryRate": "NA", "rt": 2128, "rating": 6}, "6": {"stimulus": 12, "trial": 6, "categoryRate": "NA", "rt": 1954, "rating": 6}, "9": {"stimulus": -1, "trial": 9, "categoryRate": "Alpha", "rt": 3440, "rating": 10}, "8": {"stimulus": -1, "trial": 8, "categoryRate": "Beta", "rt": 6628, "rating": 7}}, "submit": {"timeTotal": 211824, "age": "33", "comments": "It was fun!", "sex": "Female"}}