{"info": {"finish": 1521058148894, "participant": 20, "exposed": true, "stimuli": [30, 32, 48, 50, 71, 80, 8, 61], "lab": false, "pptmatch": 20, "start": 1521057963780, "catflip": true, "categories": [1, 1, 1, 1, 0, 0, 0, 0], "counterbalance": 3, "condition": "Middle", "browser": {"platform": "Win32", "userAgent": "Mozilla/5.0 (Windows NT 10.0; Win64; x64) AppleWebKit/537.36 (KHTML, like Gecko) Chrome/64.0.3282.186 Safari/537.36"}}, "assignment": {"24": {"stimulus": 32, "trial": 24, "rt": 772, "correctcat": 1, "response": 1}, "25": {"stimulus": 71, "trial": 25, "rt": 606, "correctcat": 0, "response": 0}, "26": {"stimulus": 8, "trial": 26, "rt": 894, "correctcat": 0, "response": 0}, "27": {"stimulus": 50, "trial": 27, "rt": 1266, "correctcat": 1, "response": 1}, "20": {"stimulus": 32, "trial": 20, "rt": 748, "correctcat": 1, "response": 1}, "21": {"stimulus": 71, "trial": 21, "rt": 771, "correctcat": 0, "response": 0}, "22": {"stimulus": 8, "trial": 22, "rt": 1125, "correctcat": 0, "response": 0}, "23": {"stimulus": 61, "trial": 23, "rt": 975, "correctcat": 0, "response": 1}, "28": {"stimulus": 61, "trial": 28, "rt": 1764, "correctcat": 0, "response": 0}, "29": {"stimulus": 48, "trial": 29, "rt": 996, "correctcat": 1, "response": 1}, "1": {"stimulus": 30, "trial": 1, "rt": 813, "correctcat": 1, "response": 1}, "0": {"stimulus": 32, "trial": 0, "rt": 3218, "correctcat": 1, "response": 0}, "3": {"stimulus": 71, "trial": 3, "rt": 832, "correctcat": 0, "response": 0}, "2": {"stimulus": 48, "trial": 2, "rt": 475, "correctcat": 1, "response": 1}, "5": {"stimulus": 61, "trial": 5, "rt": 1030, "correctcat": 0, "response": 0}, "4": {"stimulus": 8, "trial": 4, "rt": 600, "correctcat": 0, "response": 1}, "7": {"stimulus": 50, "trial": 7, "rt": 731, "correctcat": 1, "response": 1}, "6": {"stimulus": 80, "trial": 6, "rt": 749, "correctcat": 0, "response": 0}, "9": {"stimulus": 8, "trial": 9, "rt": 854, "correctcat": 0, "response": 0}, "8": {"stimulus": 50, "trial": 8, "rt": 614, "correctcat": 1, "response": 1}, "11": {"stimulus": 48, "trial": 11, "rt": 997, "correctcat": 1, "response": 1}, "10": {"stimulus": 80, "trial": 10, "rt": 789, "correctcat": 0, "response": 0}, "13": {"stimulus": 61, "trial": 13, "rt": 2017, "correctcat": 0, "response": 1}, "12": {"stimulus": 32, "trial": 12, "rt": 2294, "correctcat": 1, "response": 1}, "15": {"stimulus": 71, "trial": 15, "rt": 1622, "correctcat": 0, "response": 0}, "14": {"stimulus": 30, "trial": 14, "rt": 2079, "correctcat": 1, "response": 1}, "17": {"stimulus": 48, "trial": 17, "rt": 1064, "correctcat": 1, "response": 1}, "16": {"stimulus": 50, "trial": 16, "rt": 812, "correctcat": 1, "response": 1}, "19": {"stimulus": 30, "trial": 19, "rt": 836, "correctcat": 1, "response": 1}, "18": {"stimulus": 80, "trial": 18, "rt": 657, "correctcat": 0, "response": 0}, "31": {"stimulus": 30, "trial": 31, "rt": 1069, "correctcat": 1, "response": 0}, "30": {"stimulus": 80, "trial": 30, "rt": 1778, "correctcat": 0, "response": 0}}, "experiment": {"Paradigm": "TACL", "Stimuli": "Size-Color Squares", "Experiment": "Assigning-Generated-Categories"}, "goodness": {"1": {"stimulus": 8, "trial": 1, "categoryRate": "NA", "rt": 2719, "rating": 2}, "0": {"stimulus": 71, "trial": 0, "categoryRate": "NA", "rt": 7032, "rating": 10}, "3": {"stimulus": 50, "trial": 3, "categoryRate": "NA", "rt": 1744, "rating": 9}, "2": {"stimulus": 30, "trial": 2, "categoryRate": "NA", "rt": 2471, "rating": 7}, "5": {"stimulus": 61, "trial": 5, "categoryRate": "NA", "rt": 1964, "rating": 9}, "4": {"stimulus": 32, "trial": 4, "categoryRate": "NA", "rt": 4299, "rating": 5}, "7": {"stimulus": 80, "trial": 7, "categoryRate": "NA", "rt": 1332, "rating": 10}, "6": {"stimulus": 48, "trial": 6, "categoryRate": "NA", "rt": 1539, "rating": 6}, "9": {"stimulus": -1, "trial": 9, "categoryRate": "Beta", "rt": 3891, "rating": 6}, "8": {"stimulus": -1, "trial": 8, "categoryRate": "Alpha", "rt": 4029, "rating": 8}}, "submit": {"timeTotal": 185542, "age": "26", "comments": "", "sex": "male"}}