{"info": {"finish": 1521135216440, "participant": 204, "exposed": true, "stimuli": [12, 14, 30, 32, 70, 80, 79, 72], "lab": false, "pptmatch": 23, "start": 1521134987011, "catflip": true, "categories": [1, 1, 1, 1, 0, 0, 0, 0], "counterbalance": 1, "condition": "Bottom", "browser": {"platform": "Win32", "userAgent": "Mozilla/5.0 (Windows NT 6.1; Win64; x64) AppleWebKit/537.36 (KHTML, like Gecko) Chrome/64.0.3282.186 Safari/537.36"}}, "assignment": {"24": {"stimulus": 72, "trial": 24, "rt": 712, "correctcat": 0, "response": 0}, "25": {"stimulus": 32, "trial": 25, "rt": 727, "correctcat": 1, "response": 1}, "26": {"stimulus": 70, "trial": 26, "rt": 636, "correctcat": 0, "response": 0}, "27": {"stimulus": 79, "trial": 27, "rt": 985, "correctcat": 0, "response": 0}, "20": {"stimulus": 30, "trial": 20, "rt": 717, "correctcat": 1, "response": 1}, "21": {"stimulus": 14, "trial": 21, "rt": 409, "correctcat": 1, "response": 0}, "22": {"stimulus": 72, "trial": 22, "rt": 1148, "correctcat": 0, "response": 0}, "23": {"stimulus": 80, "trial": 23, "rt": 895, "correctcat": 0, "response": 0}, "28": {"stimulus": 30, "trial": 28, "rt": 734, "correctcat": 1, "response": 1}, "29": {"stimulus": 14, "trial": 29, "rt": 982, "correctcat": 1, "response": 1}, "1": {"stimulus": 79, "trial": 1, "rt": 1065, "correctcat": 0, "response": 0}, "0": {"stimulus": 14, "trial": 0, "rt": 7628, "correctcat": 1, "response": 0}, "3": {"stimulus": 12, "trial": 3, "rt": 1017, "correctcat": 1, "response": 1}, "2": {"stimulus": 30, "trial": 2, "rt": 873, "correctcat": 1, "response": 1}, "5": {"stimulus": 70, "trial": 5, "rt": 1211, "correctcat": 0, "response": 0}, "4": {"stimulus": 80, "trial": 4, "rt": 1118, "correctcat": 0, "response": 0}, "7": {"stimulus": 72, "trial": 7, "rt": 1035, "correctcat": 0, "response": 0}, "6": {"stimulus": 32, "trial": 6, "rt": 738, "correctcat": 1, "response": 1}, "9": {"stimulus": 12, "trial": 9, "rt": 809, "correctcat": 1, "response": 1}, "8": {"stimulus": 79, "trial": 8, "rt": 875, "correctcat": 0, "response": 0}, "11": {"stimulus": 14, "trial": 11, "rt": 751, "correctcat": 1, "response": 1}, "10": {"stimulus": 72, "trial": 10, "rt": 774, "correctcat": 0, "response": 0}, "13": {"stimulus": 32, "trial": 13, "rt": 4269, "correctcat": 1, "response": 1}, "12": {"stimulus": 80, "trial": 12, "rt": 699, "correctcat": 0, "response": 0}, "15": {"stimulus": 70, "trial": 15, "rt": 820, "correctcat": 0, "response": 0}, "14": {"stimulus": 30, "trial": 14, "rt": 1017, "correctcat": 1, "response": 1}, "17": {"stimulus": 70, "trial": 17, "rt": 655, "correctcat": 0, "response": 0}, "16": {"stimulus": 32, "trial": 16, "rt": 869, "correctcat": 1, "response": 1}, "19": {"stimulus": 79, "trial": 19, "rt": 633, "correctcat": 0, "response": 0}, "18": {"stimulus": 12, "trial": 18, "rt": 819, "correctcat": 1, "response": 1}, "31": {"stimulus": 80, "trial": 31, "rt": 862, "correctcat": 0, "response": 0}, "30": {"stimulus": 12, "trial": 30, "rt": 922, "correctcat": 1, "response": 1}}, "experiment": {"Paradigm": "TACL", "Stimuli": "Size-Color Squares", "Experiment": "Assigning-Generated-Categories"}, "goodness": {"1": {"stimulus": 70, "trial": 1, "categoryRate": "NA", "rt": 3626, "rating": 8}, "0": {"stimulus": 80, "trial": 0, "categoryRate": "NA", "rt": 7752, "rating": 8}, "3": {"stimulus": 30, "trial": 3, "categoryRate": "NA", "rt": 3003, "rating": 6}, "2": {"stimulus": 14, "trial": 2, "categoryRate": "NA", "rt": 6722, "rating": 10}, "5": {"stimulus": 72, "trial": 5, "categoryRate": "NA", "rt": 5223, "rating": 3}, "4": {"stimulus": 32, "trial": 4, "categoryRate": "NA", "rt": 4051, "rating": 4}, "7": {"stimulus": 79, "trial": 7, "categoryRate": "NA", "rt": 2308, "rating": 10}, "6": {"stimulus": 12, "trial": 6, "categoryRate": "NA", "rt": 2603, "rating": 8}, "9": {"stimulus": -1, "trial": 9, "categoryRate": "Alpha", "rt": 5546, "rating": 8}, "8": {"stimulus": -1, "trial": 8, "categoryRate": "Beta", "rt": 6938, "rating": 8}}, "submit": {"timeTotal": 229832, "age": "42", "comments": "NA", "sex": "male"}}