{"info": {"finish": 1521136722848, "participant": 207, "exposed": true, "stimuli": [30, 32, 48, 50, 35, 43, 8, 71], "lab": false, "pptmatch": 109, "start": 1521136540671, "catflip": false, "categories": [0, 0, 0, 0, 1, 1, 1, 1], "counterbalance": 3, "condition": "Middle", "browser": {"platform": "Win32", "userAgent": "Mozilla/5.0 (Windows NT 10.0; Win64; x64) AppleWebKit/537.36 (KHTML, like Gecko) Chrome/64.0.3282.186 Safari/537.36"}}, "assignment": {"24": {"stimulus": 8, "trial": 24, "rt": 830, "correctcat": 1, "response": 1}, "25": {"stimulus": 32, "trial": 25, "rt": 1251, "correctcat": 0, "response": 0}, "26": {"stimulus": 71, "trial": 26, "rt": 1318, "correctcat": 1, "response": 1}, "27": {"stimulus": 48, "trial": 27, "rt": 789, "correctcat": 0, "response": 0}, "20": {"stimulus": 50, "trial": 20, "rt": 2133, "correctcat": 0, "response": 0}, "21": {"stimulus": 30, "trial": 21, "rt": 963, "correctcat": 0, "response": 0}, "22": {"stimulus": 71, "trial": 22, "rt": 1213, "correctcat": 1, "response": 1}, "23": {"stimulus": 35, "trial": 23, "rt": 748, "correctcat": 1, "response": 1}, "28": {"stimulus": 35, "trial": 28, "rt": 974, "correctcat": 1, "response": 1}, "29": {"stimulus": 30, "trial": 29, "rt": 803, "correctcat": 0, "response": 0}, "1": {"stimulus": 8, "trial": 1, "rt": 1451, "correctcat": 1, "response": 1}, "0": {"stimulus": 50, "trial": 0, "rt": 2324, "correctcat": 0, "response": 0}, "3": {"stimulus": 32, "trial": 3, "rt": 1044, "correctcat": 0, "response": 0}, "2": {"stimulus": 71, "trial": 2, "rt": 822, "correctcat": 1, "response": 0}, "5": {"stimulus": 30, "trial": 5, "rt": 1067, "correctcat": 0, "response": 0}, "4": {"stimulus": 43, "trial": 4, "rt": 1101, "correctcat": 1, "response": 0}, "7": {"stimulus": 48, "trial": 7, "rt": 927, "correctcat": 0, "response": 0}, "6": {"stimulus": 35, "trial": 6, "rt": 1733, "correctcat": 1, "response": 1}, "9": {"stimulus": 43, "trial": 9, "rt": 2290, "correctcat": 1, "response": 0}, "8": {"stimulus": 71, "trial": 8, "rt": 1125, "correctcat": 1, "response": 1}, "11": {"stimulus": 50, "trial": 11, "rt": 1637, "correctcat": 0, "response": 0}, "10": {"stimulus": 35, "trial": 10, "rt": 1286, "correctcat": 1, "response": 1}, "13": {"stimulus": 48, "trial": 13, "rt": 1101, "correctcat": 0, "response": 0}, "12": {"stimulus": 8, "trial": 12, "rt": 875, "correctcat": 1, "response": 1}, "15": {"stimulus": 30, "trial": 15, "rt": 1157, "correctcat": 0, "response": 0}, "14": {"stimulus": 32, "trial": 14, "rt": 828, "correctcat": 0, "response": 1}, "17": {"stimulus": 48, "trial": 17, "rt": 965, "correctcat": 0, "response": 0}, "16": {"stimulus": 32, "trial": 16, "rt": 1701, "correctcat": 0, "response": 0}, "19": {"stimulus": 43, "trial": 19, "rt": 997, "correctcat": 1, "response": 1}, "18": {"stimulus": 8, "trial": 18, "rt": 1087, "correctcat": 1, "response": 1}, "31": {"stimulus": 50, "trial": 31, "rt": 861, "correctcat": 0, "response": 0}, "30": {"stimulus": 43, "trial": 30, "rt": 2388, "correctcat": 1, "response": 1}}, "experiment": {"Paradigm": "TACL", "Stimuli": "Size-Color Squares", "Experiment": "Assigning-Generated-Categories"}, "goodness": {"1": {"stimulus": 32, "trial": 1, "categoryRate": "NA", "rt": 2410, "rating": 6}, "0": {"stimulus": 30, "trial": 0, "categoryRate": "NA", "rt": 3170, "rating": 9}, "3": {"stimulus": 71, "trial": 3, "categoryRate": "NA", "rt": 2020, "rating": 1}, "2": {"stimulus": 50, "trial": 2, "categoryRate": "NA", "rt": 1604, "rating": 3}, "5": {"stimulus": 35, "trial": 5, "categoryRate": "NA", "rt": 3101, "rating": 6}, "4": {"stimulus": 48, "trial": 4, "categoryRate": "NA", "rt": 2077, "rating": 3}, "7": {"stimulus": 8, "trial": 7, "categoryRate": "NA", "rt": 2100, "rating": 6}, "6": {"stimulus": 43, "trial": 6, "categoryRate": "NA", "rt": 1412, "rating": 6}, "9": {"stimulus": -1, "trial": 9, "categoryRate": "Beta", "rt": 5353, "rating": 3}, "8": {"stimulus": -1, "trial": 8, "categoryRate": "Alpha", "rt": 6554, "rating": 9}}, "submit": {"timeTotal": 182427, "age": "35", "comments": "This was fun", "sex": "female"}}