{"info": {"finish": 1521059680538, "participant": 21, "exposed": true, "stimuli": [30, 32, 48, 50, 7, 8, 16, 17], "lab": false, "pptmatch": 21, "start": 1521059491676, "catflip": false, "categories": [0, 0, 0, 0, 1, 1, 1, 1], "counterbalance": 6, "condition": "Middle", "browser": {"platform": "Win32", "userAgent": "Mozilla/5.0 (Windows NT 6.3; Win64; x64) AppleWebKit/537.36 (KHTML, like Gecko) Chrome/65.0.3325.125 Safari/537.36"}}, "assignment": {"24": {"stimulus": 50, "trial": 24, "rt": 1457, "correctcat": 0, "response": 0}, "25": {"stimulus": 16, "trial": 25, "rt": 1098, "correctcat": 1, "response": 1}, "26": {"stimulus": 30, "trial": 26, "rt": 1143, "correctcat": 0, "response": 0}, "27": {"stimulus": 48, "trial": 27, "rt": 771, "correctcat": 0, "response": 0}, "20": {"stimulus": 17, "trial": 20, "rt": 927, "correctcat": 1, "response": 1}, "21": {"stimulus": 7, "trial": 21, "rt": 721, "correctcat": 1, "response": 1}, "22": {"stimulus": 30, "trial": 22, "rt": 1004, "correctcat": 0, "response": 0}, "23": {"stimulus": 8, "trial": 23, "rt": 995, "correctcat": 1, "response": 1}, "28": {"stimulus": 17, "trial": 28, "rt": 1027, "correctcat": 1, "response": 1}, "29": {"stimulus": 8, "trial": 29, "rt": 715, "correctcat": 1, "response": 1}, "1": {"stimulus": 8, "trial": 1, "rt": 1367, "correctcat": 1, "response": 1}, "0": {"stimulus": 48, "trial": 0, "rt": 1748, "correctcat": 0, "response": 0}, "3": {"stimulus": 30, "trial": 3, "rt": 558, "correctcat": 0, "response": 0}, "2": {"stimulus": 50, "trial": 2, "rt": 888, "correctcat": 0, "response": 0}, "5": {"stimulus": 32, "trial": 5, "rt": 1112, "correctcat": 0, "response": 0}, "4": {"stimulus": 7, "trial": 4, "rt": 995, "correctcat": 1, "response": 1}, "7": {"stimulus": 17, "trial": 7, "rt": 948, "correctcat": 1, "response": 1}, "6": {"stimulus": 16, "trial": 6, "rt": 1289, "correctcat": 1, "response": 1}, "9": {"stimulus": 16, "trial": 9, "rt": 752, "correctcat": 1, "response": 1}, "8": {"stimulus": 7, "trial": 8, "rt": 1091, "correctcat": 1, "response": 1}, "11": {"stimulus": 48, "trial": 11, "rt": 1011, "correctcat": 0, "response": 0}, "10": {"stimulus": 17, "trial": 10, "rt": 668, "correctcat": 1, "response": 1}, "13": {"stimulus": 30, "trial": 13, "rt": 997, "correctcat": 0, "response": 0}, "12": {"stimulus": 8, "trial": 12, "rt": 931, "correctcat": 1, "response": 1}, "15": {"stimulus": 50, "trial": 15, "rt": 753, "correctcat": 0, "response": 0}, "14": {"stimulus": 32, "trial": 14, "rt": 1162, "correctcat": 0, "response": 0}, "17": {"stimulus": 16, "trial": 17, "rt": 1013, "correctcat": 1, "response": 1}, "16": {"stimulus": 32, "trial": 16, "rt": 918, "correctcat": 0, "response": 0}, "19": {"stimulus": 48, "trial": 19, "rt": 669, "correctcat": 0, "response": 0}, "18": {"stimulus": 50, "trial": 18, "rt": 1232, "correctcat": 0, "response": 0}, "31": {"stimulus": 7, "trial": 31, "rt": 1014, "correctcat": 1, "response": 1}, "30": {"stimulus": 32, "trial": 30, "rt": 1221, "correctcat": 0, "response": 0}}, "experiment": {"Paradigm": "TACL", "Stimuli": "Size-Color Squares", "Experiment": "Assigning-Generated-Categories"}, "goodness": {"1": {"stimulus": 16, "trial": 1, "categoryRate": "NA", "rt": 3005, "rating": 8}, "0": {"stimulus": 30, "trial": 0, "categoryRate": "NA", "rt": 5224, "rating": 8}, "3": {"stimulus": 8, "trial": 3, "categoryRate": "NA", "rt": 2254, "rating": 4}, "2": {"stimulus": 7, "trial": 2, "categoryRate": "NA", "rt": 2467, "rating": 7}, "5": {"stimulus": 50, "trial": 5, "categoryRate": "NA", "rt": 3008, "rating": 7}, "4": {"stimulus": 32, "trial": 4, "categoryRate": "NA", "rt": 2611, "rating": 6}, "7": {"stimulus": 17, "trial": 7, "categoryRate": "NA", "rt": 2665, "rating": 7}, "6": {"stimulus": 48, "trial": 6, "categoryRate": "NA", "rt": 2049, "rating": 7}, "9": {"stimulus": -1, "trial": 9, "categoryRate": "Alpha", "rt": 3630, "rating": 8}, "8": {"stimulus": -1, "trial": 8, "categoryRate": "Beta", "rt": 10503, "rating": 6}}, "submit": {"timeTotal": 189085, "age": "35", "comments": "", "sex": "male"}}