{"info": {"finish": 1521139918045, "participant": 217, "exposed": true, "stimuli": [12, 14, 30, 32, 70, 80, 79, 72], "lab": false, "pptmatch": 23, "start": 1521139725778, "catflip": true, "categories": [1, 1, 1, 1, 0, 0, 0, 0], "counterbalance": 1, "condition": "Bottom", "browser": {"platform": "Win32", "userAgent": "Mozilla/5.0 (Windows NT 10.0; Win64; x64) AppleWebKit/537.36 (KHTML, like Gecko) Chrome/65.0.3325.125 Safari/537.36"}}, "assignment": {"24": {"stimulus": 72, "trial": 24, "rt": 875, "correctcat": 0, "response": 0}, "25": {"stimulus": 30, "trial": 25, "rt": 1483, "correctcat": 1, "response": 1}, "26": {"stimulus": 79, "trial": 26, "rt": 1560, "correctcat": 0, "response": 0}, "27": {"stimulus": 32, "trial": 27, "rt": 1015, "correctcat": 1, "response": 1}, "20": {"stimulus": 70, "trial": 20, "rt": 782, "correctcat": 0, "response": 0}, "21": {"stimulus": 72, "trial": 21, "rt": 935, "correctcat": 0, "response": 0}, "22": {"stimulus": 14, "trial": 22, "rt": 1288, "correctcat": 1, "response": 1}, "23": {"stimulus": 12, "trial": 23, "rt": 1184, "correctcat": 1, "response": 1}, "28": {"stimulus": 12, "trial": 28, "rt": 2156, "correctcat": 1, "response": 1}, "29": {"stimulus": 80, "trial": 29, "rt": 1288, "correctcat": 0, "response": 0}, "1": {"stimulus": 32, "trial": 1, "rt": 1719, "correctcat": 1, "response": 0}, "0": {"stimulus": 14, "trial": 0, "rt": 2686, "correctcat": 1, "response": 0}, "3": {"stimulus": 12, "trial": 3, "rt": 631, "correctcat": 1, "response": 1}, "2": {"stimulus": 30, "trial": 2, "rt": 2384, "correctcat": 1, "response": 1}, "5": {"stimulus": 80, "trial": 5, "rt": 1202, "correctcat": 0, "response": 0}, "4": {"stimulus": 79, "trial": 4, "rt": 2639, "correctcat": 0, "response": 0}, "7": {"stimulus": 72, "trial": 7, "rt": 1163, "correctcat": 0, "response": 0}, "6": {"stimulus": 70, "trial": 6, "rt": 1710, "correctcat": 0, "response": 0}, "9": {"stimulus": 80, "trial": 9, "rt": 647, "correctcat": 0, "response": 0}, "8": {"stimulus": 72, "trial": 8, "rt": 597, "correctcat": 0, "response": 0}, "11": {"stimulus": 30, "trial": 11, "rt": 1824, "correctcat": 1, "response": 1}, "10": {"stimulus": 70, "trial": 10, "rt": 1007, "correctcat": 0, "response": 0}, "13": {"stimulus": 32, "trial": 13, "rt": 524, "correctcat": 1, "response": 1}, "12": {"stimulus": 12, "trial": 12, "rt": 1076, "correctcat": 1, "response": 1}, "15": {"stimulus": 79, "trial": 15, "rt": 1269, "correctcat": 0, "response": 0}, "14": {"stimulus": 14, "trial": 14, "rt": 751, "correctcat": 1, "response": 1}, "17": {"stimulus": 80, "trial": 17, "rt": 927, "correctcat": 0, "response": 0}, "16": {"stimulus": 32, "trial": 16, "rt": 1318, "correctcat": 1, "response": 1}, "19": {"stimulus": 79, "trial": 19, "rt": 1008, "correctcat": 0, "response": 0}, "18": {"stimulus": 30, "trial": 18, "rt": 932, "correctcat": 1, "response": 1}, "31": {"stimulus": 70, "trial": 31, "rt": 1508, "correctcat": 0, "response": 0}, "30": {"stimulus": 14, "trial": 30, "rt": 969, "correctcat": 1, "response": 1}}, "experiment": {"Paradigm": "TACL", "Stimuli": "Size-Color Squares", "Experiment": "Assigning-Generated-Categories"}, "goodness": {"1": {"stimulus": 32, "trial": 1, "categoryRate": "NA", "rt": 3168, "rating": 8}, "0": {"stimulus": 70, "trial": 0, "categoryRate": "NA", "rt": 3348, "rating": 8}, "3": {"stimulus": 14, "trial": 3, "categoryRate": "NA", "rt": 4425, "rating": 7}, "2": {"stimulus": 12, "trial": 2, "categoryRate": "NA", "rt": 4054, "rating": 6}, "5": {"stimulus": 72, "trial": 5, "categoryRate": "NA", "rt": 3448, "rating": 8}, "4": {"stimulus": 79, "trial": 4, "categoryRate": "NA", "rt": 3898, "rating": 10}, "7": {"stimulus": 80, "trial": 7, "categoryRate": "NA", "rt": 2623, "rating": 10}, "6": {"stimulus": 30, "trial": 6, "categoryRate": "NA", "rt": 4299, "rating": 7}, "9": {"stimulus": -1, "trial": 9, "categoryRate": "Alpha", "rt": 2947, "rating": 9}, "8": {"stimulus": -1, "trial": 8, "categoryRate": "Beta", "rt": 11079, "rating": 9}}, "submit": {"timeTotal": 192634, "age": "43", "comments": "interesting", "sex": "male"}}