{"info": {"finish": 1521060123413, "participant": 22, "exposed": true, "stimuli": [12, 14, 30, 32, 0, 72, 80, 79], "lab": false, "pptmatch": 22, "start": 1521059844057, "catflip": true, "categories": [1, 1, 1, 1, 0, 0, 0, 0], "counterbalance": 4, "condition": "Bottom", "browser": {"platform": "Win32", "userAgent": "Mozilla/5.0 (Windows NT 10.0; Win64; x64) AppleWebKit/537.36 (KHTML, like Gecko) Chrome/64.0.3282.186 Safari/537.36"}}, "assignment": {"24": {"stimulus": 72, "trial": 24, "rt": 709, "correctcat": 0, "response": 0}, "25": {"stimulus": 80, "trial": 25, "rt": 1033, "correctcat": 0, "response": 0}, "26": {"stimulus": 30, "trial": 26, "rt": 1422, "correctcat": 1, "response": 1}, "27": {"stimulus": 12, "trial": 27, "rt": 586, "correctcat": 1, "response": 1}, "20": {"stimulus": 72, "trial": 20, "rt": 930, "correctcat": 0, "response": 0}, "21": {"stimulus": 12, "trial": 21, "rt": 14205, "correctcat": 1, "response": 1}, "22": {"stimulus": 32, "trial": 22, "rt": 2756, "correctcat": 1, "response": 1}, "23": {"stimulus": 79, "trial": 23, "rt": 18733, "correctcat": 0, "response": 1}, "28": {"stimulus": 32, "trial": 28, "rt": 1183, "correctcat": 1, "response": 1}, "29": {"stimulus": 14, "trial": 29, "rt": 822, "correctcat": 1, "response": 1}, "1": {"stimulus": 12, "trial": 1, "rt": 1424, "correctcat": 1, "response": 1}, "0": {"stimulus": 72, "trial": 0, "rt": 1127, "correctcat": 0, "response": 0}, "3": {"stimulus": 80, "trial": 3, "rt": 1152, "correctcat": 0, "response": 1}, "2": {"stimulus": 30, "trial": 2, "rt": 1159, "correctcat": 1, "response": 1}, "5": {"stimulus": 32, "trial": 5, "rt": 1272, "correctcat": 1, "response": 1}, "4": {"stimulus": 0, "trial": 4, "rt": 1026, "correctcat": 0, "response": 0}, "7": {"stimulus": 79, "trial": 7, "rt": 2460, "correctcat": 0, "response": 1}, "6": {"stimulus": 14, "trial": 6, "rt": 902, "correctcat": 1, "response": 1}, "9": {"stimulus": 32, "trial": 9, "rt": 968, "correctcat": 1, "response": 1}, "8": {"stimulus": 72, "trial": 8, "rt": 1857, "correctcat": 0, "response": 0}, "11": {"stimulus": 30, "trial": 11, "rt": 1261, "correctcat": 1, "response": 0}, "10": {"stimulus": 80, "trial": 10, "rt": 905, "correctcat": 0, "response": 0}, "13": {"stimulus": 12, "trial": 13, "rt": 1235, "correctcat": 1, "response": 0}, "12": {"stimulus": 79, "trial": 12, "rt": 1818, "correctcat": 0, "response": 1}, "15": {"stimulus": 14, "trial": 15, "rt": 1244, "correctcat": 1, "response": 1}, "14": {"stimulus": 0, "trial": 14, "rt": 553, "correctcat": 0, "response": 0}, "17": {"stimulus": 14, "trial": 17, "rt": 970, "correctcat": 1, "response": 1}, "16": {"stimulus": 30, "trial": 16, "rt": 1057, "correctcat": 1, "response": 1}, "19": {"stimulus": 0, "trial": 19, "rt": 1094, "correctcat": 0, "response": 0}, "18": {"stimulus": 80, "trial": 18, "rt": 7889, "correctcat": 0, "response": 0}, "31": {"stimulus": 0, "trial": 31, "rt": 668, "correctcat": 0, "response": 0}, "30": {"stimulus": 79, "trial": 30, "rt": 1129, "correctcat": 0, "response": 0}}, "experiment": {"Paradigm": "TACL", "Stimuli": "Size-Color Squares", "Experiment": "Assigning-Generated-Categories"}, "goodness": {"1": {"stimulus": 30, "trial": 1, "categoryRate": "NA", "rt": 3056, "rating": 6}, "0": {"stimulus": 80, "trial": 0, "categoryRate": "NA", "rt": 4066, "rating": 8}, "3": {"stimulus": 0, "trial": 3, "categoryRate": "NA", "rt": 3283, "rating": 10}, "2": {"stimulus": 12, "trial": 2, "categoryRate": "NA", "rt": 2229, "rating": 5}, "5": {"stimulus": 14, "trial": 5, "categoryRate": "NA", "rt": 3093, "rating": 2}, "4": {"stimulus": 72, "trial": 4, "categoryRate": "NA", "rt": 1842, "rating": 10}, "7": {"stimulus": 79, "trial": 7, "categoryRate": "NA", "rt": 1789, "rating": 6}, "6": {"stimulus": 32, "trial": 6, "categoryRate": "NA", "rt": 1742, "rating": 3}, "9": {"stimulus": -1, "trial": 9, "categoryRate": "Beta", "rt": 2668, "rating": 10}, "8": {"stimulus": -1, "trial": 8, "categoryRate": "Alpha", "rt": 4529, "rating": 5}}, "submit": {"timeTotal": 279482, "age": "30", "comments": "thanks :)", "sex": "female"}}