{"info": {"finish": 1521141856709, "participant": 222, "exposed": true, "stimuli": [30, 32, 48, 50, 6, 48, 18, 15], "lab": false, "pptmatch": 88, "start": 1521141612557, "catflip": false, "categories": [0, 0, 0, 0, 1, 1, 1, 1], "counterbalance": 0, "condition": "Middle", "browser": {"platform": "Win32", "userAgent": "Mozilla/5.0 (Windows NT 10.0; WOW64) AppleWebKit/537.36 (KHTML, like Gecko) Chrome/64.0.3282.186 Safari/537.36"}}, "assignment": {"24": {"stimulus": 50, "trial": 24, "rt": 1527, "correctcat": 0, "response": 0}, "25": {"stimulus": 32, "trial": 25, "rt": 2427, "correctcat": 0, "response": 0}, "26": {"stimulus": 48, "trial": 26, "rt": 1017, "correctcat": 1, "response": 0}, "27": {"stimulus": 30, "trial": 27, "rt": 1930, "correctcat": 0, "response": 0}, "20": {"stimulus": 18, "trial": 20, "rt": 1655, "correctcat": 1, "response": 0}, "21": {"stimulus": 30, "trial": 21, "rt": 1077, "correctcat": 0, "response": 0}, "22": {"stimulus": 15, "trial": 22, "rt": 1184, "correctcat": 1, "response": 1}, "23": {"stimulus": 48, "trial": 23, "rt": 1371, "correctcat": 0, "response": 0}, "28": {"stimulus": 18, "trial": 28, "rt": 1882, "correctcat": 1, "response": 1}, "29": {"stimulus": 15, "trial": 29, "rt": 878, "correctcat": 1, "response": 1}, "1": {"stimulus": 48, "trial": 1, "rt": 4476, "correctcat": 1, "response": 0}, "0": {"stimulus": 15, "trial": 0, "rt": 3297, "correctcat": 1, "response": 0}, "3": {"stimulus": 50, "trial": 3, "rt": 2009, "correctcat": 0, "response": 1}, "2": {"stimulus": 6, "trial": 2, "rt": 3316, "correctcat": 1, "response": 1}, "5": {"stimulus": 30, "trial": 5, "rt": 3111, "correctcat": 0, "response": 0}, "4": {"stimulus": 18, "trial": 4, "rt": 1977, "correctcat": 1, "response": 1}, "7": {"stimulus": 48, "trial": 7, "rt": 1142, "correctcat": 0, "response": 0}, "6": {"stimulus": 32, "trial": 6, "rt": 1260, "correctcat": 0, "response": 0}, "9": {"stimulus": 48, "trial": 9, "rt": 1884, "correctcat": 0, "response": 0}, "8": {"stimulus": 48, "trial": 8, "rt": 1089, "correctcat": 1, "response": 0}, "11": {"stimulus": 15, "trial": 11, "rt": 1305, "correctcat": 1, "response": 1}, "10": {"stimulus": 50, "trial": 10, "rt": 2093, "correctcat": 0, "response": 0}, "13": {"stimulus": 30, "trial": 13, "rt": 1629, "correctcat": 0, "response": 1}, "12": {"stimulus": 18, "trial": 12, "rt": 1485, "correctcat": 1, "response": 1}, "15": {"stimulus": 6, "trial": 15, "rt": 1143, "correctcat": 1, "response": 1}, "14": {"stimulus": 32, "trial": 14, "rt": 1497, "correctcat": 0, "response": 0}, "17": {"stimulus": 32, "trial": 17, "rt": 1033, "correctcat": 0, "response": 0}, "16": {"stimulus": 50, "trial": 16, "rt": 1661, "correctcat": 0, "response": 0}, "19": {"stimulus": 48, "trial": 19, "rt": 1685, "correctcat": 1, "response": 0}, "18": {"stimulus": 6, "trial": 18, "rt": 1405, "correctcat": 1, "response": 1}, "31": {"stimulus": 48, "trial": 31, "rt": 1986, "correctcat": 0, "response": 0}, "30": {"stimulus": 6, "trial": 30, "rt": 952, "correctcat": 1, "response": 1}}, "experiment": {"Paradigm": "TACL", "Stimuli": "Size-Color Squares", "Experiment": "Assigning-Generated-Categories"}, "goodness": {"1": {"stimulus": 32, "trial": 1, "categoryRate": "NA", "rt": 5721, "rating": 6}, "0": {"stimulus": 50, "trial": 0, "categoryRate": "NA", "rt": 22747, "rating": 8}, "3": {"stimulus": 48, "trial": 3, "categoryRate": "NA", "rt": 4087, "rating": 8}, "2": {"stimulus": 6, "trial": 2, "categoryRate": "NA", "rt": 7347, "rating": 10}, "5": {"stimulus": 15, "trial": 5, "categoryRate": "NA", "rt": 4481, "rating": 9}, "4": {"stimulus": 18, "trial": 4, "categoryRate": "NA", "rt": 6651, "rating": 6}, "7": {"stimulus": 48, "trial": 7, "categoryRate": "NA", "rt": 3423, "rating": 8}, "6": {"stimulus": 30, "trial": 6, "categoryRate": "NA", "rt": 3793, "rating": 6}, "9": {"stimulus": -1, "trial": 9, "categoryRate": "Beta", "rt": 6930, "rating": 8}, "8": {"stimulus": -1, "trial": 8, "categoryRate": "Alpha", "rt": 9946, "rating": 7}}, "submit": {"timeTotal": 244518, "age": "46", "comments": "This was interesting. I felt like Beta was black or darker gray and Alpha was lighter to medium shades of gray.", "sex": "Female"}}