{"info": {"finish": 1521142581381, "participant": 223, "exposed": true, "stimuli": [12, 14, 30, 32, 70, 80, 79, 72], "lab": false, "pptmatch": 23, "start": 1521142320513, "catflip": true, "categories": [1, 1, 1, 1, 0, 0, 0, 0], "counterbalance": 1, "condition": "Bottom", "browser": {"platform": "Win32", "userAgent": "Mozilla/5.0 (Windows NT 10.0; Win64; x64) AppleWebKit/537.36 (KHTML, like Gecko) Chrome/65.0.3325.162 Safari/537.36"}}, "assignment": {"24": {"stimulus": 14, "trial": 24, "rt": 1525, "correctcat": 1, "response": 1}, "25": {"stimulus": 12, "trial": 25, "rt": 18841, "correctcat": 1, "response": 1}, "26": {"stimulus": 32, "trial": 26, "rt": 1158, "correctcat": 1, "response": 1}, "27": {"stimulus": 30, "trial": 27, "rt": 773, "correctcat": 1, "response": 1}, "20": {"stimulus": 70, "trial": 20, "rt": 1671, "correctcat": 0, "response": 0}, "21": {"stimulus": 72, "trial": 21, "rt": 1117, "correctcat": 0, "response": 0}, "22": {"stimulus": 32, "trial": 22, "rt": 2245, "correctcat": 1, "response": 1}, "23": {"stimulus": 79, "trial": 23, "rt": 1142, "correctcat": 0, "response": 0}, "28": {"stimulus": 72, "trial": 28, "rt": 975, "correctcat": 0, "response": 0}, "29": {"stimulus": 70, "trial": 29, "rt": 1068, "correctcat": 0, "response": 0}, "1": {"stimulus": 12, "trial": 1, "rt": 1141, "correctcat": 1, "response": 1}, "0": {"stimulus": 32, "trial": 0, "rt": 2969, "correctcat": 1, "response": 0}, "3": {"stimulus": 80, "trial": 3, "rt": 1022, "correctcat": 0, "response": 0}, "2": {"stimulus": 70, "trial": 2, "rt": 965, "correctcat": 0, "response": 0}, "5": {"stimulus": 79, "trial": 5, "rt": 709, "correctcat": 0, "response": 0}, "4": {"stimulus": 14, "trial": 4, "rt": 830, "correctcat": 1, "response": 1}, "7": {"stimulus": 30, "trial": 7, "rt": 919, "correctcat": 1, "response": 1}, "6": {"stimulus": 72, "trial": 6, "rt": 1214, "correctcat": 0, "response": 0}, "9": {"stimulus": 70, "trial": 9, "rt": 1222, "correctcat": 0, "response": 0}, "8": {"stimulus": 79, "trial": 8, "rt": 829, "correctcat": 0, "response": 0}, "11": {"stimulus": 12, "trial": 11, "rt": 1605, "correctcat": 1, "response": 1}, "10": {"stimulus": 32, "trial": 10, "rt": 1118, "correctcat": 1, "response": 1}, "13": {"stimulus": 80, "trial": 13, "rt": 1119, "correctcat": 0, "response": 0}, "12": {"stimulus": 30, "trial": 12, "rt": 1181, "correctcat": 1, "response": 1}, "15": {"stimulus": 14, "trial": 15, "rt": 958, "correctcat": 1, "response": 1}, "14": {"stimulus": 72, "trial": 14, "rt": 1293, "correctcat": 0, "response": 0}, "17": {"stimulus": 12, "trial": 17, "rt": 1206, "correctcat": 1, "response": 1}, "16": {"stimulus": 14, "trial": 16, "rt": 1054, "correctcat": 1, "response": 1}, "19": {"stimulus": 30, "trial": 19, "rt": 7041, "correctcat": 1, "response": 1}, "18": {"stimulus": 80, "trial": 18, "rt": 3230, "correctcat": 0, "response": 0}, "31": {"stimulus": 80, "trial": 31, "rt": 1005, "correctcat": 0, "response": 0}, "30": {"stimulus": 79, "trial": 30, "rt": 975, "correctcat": 0, "response": 0}}, "experiment": {"Paradigm": "TACL", "Stimuli": "Size-Color Squares", "Experiment": "Assigning-Generated-Categories"}, "goodness": {"1": {"stimulus": 70, "trial": 1, "categoryRate": "NA", "rt": 7235, "rating": 1}, "0": {"stimulus": 30, "trial": 0, "categoryRate": "NA", "rt": 8178, "rating": 5}, "3": {"stimulus": 79, "trial": 3, "categoryRate": "NA", "rt": 5612, "rating": 8}, "2": {"stimulus": 12, "trial": 2, "categoryRate": "NA", "rt": 3205, "rating": 8}, "5": {"stimulus": 32, "trial": 5, "categoryRate": "NA", "rt": 10717, "rating": 6}, "4": {"stimulus": 80, "trial": 4, "categoryRate": "NA", "rt": 3924, "rating": 9}, "7": {"stimulus": 72, "trial": 7, "categoryRate": "NA", "rt": 5108, "rating": 10}, "6": {"stimulus": 14, "trial": 6, "categoryRate": "NA", "rt": 3781, "rating": 9}, "9": {"stimulus": -1, "trial": 9, "categoryRate": "Alpha", "rt": 3747, "rating": 10}, "8": {"stimulus": -1, "trial": 8, "categoryRate": "Beta", "rt": 11428, "rating": 10}}, "submit": {"timeTotal": 261107, "age": "23", "comments": "", "sex": "Male"}}