{"info": {"finish": 1521143420246, "participant": 227, "exposed": true, "stimuli": [12, 14, 30, 32, 59, 73, 66, 72], "lab": false, "pptmatch": 1, "start": 1521143220224, "catflip": false, "categories": [0, 0, 0, 0, 1, 1, 1, 1], "counterbalance": 1, "condition": "Bottom", "browser": {"platform": "Win32", "userAgent": "Mozilla/5.0 (Windows NT 10.0; WOW64) AppleWebKit/537.36 (KHTML, like Gecko) Chrome/64.0.3282.186 Safari/537.36"}}, "assignment": {"24": {"stimulus": 14, "trial": 24, "rt": 1036, "correctcat": 0, "response": 0}, "25": {"stimulus": 73, "trial": 25, "rt": 1035, "correctcat": 1, "response": 1}, "26": {"stimulus": 66, "trial": 26, "rt": 676, "correctcat": 1, "response": 1}, "27": {"stimulus": 12, "trial": 27, "rt": 1161, "correctcat": 0, "response": 0}, "20": {"stimulus": 14, "trial": 20, "rt": 1246, "correctcat": 0, "response": 0}, "21": {"stimulus": 72, "trial": 21, "rt": 1031, "correctcat": 1, "response": 1}, "22": {"stimulus": 12, "trial": 22, "rt": 1094, "correctcat": 0, "response": 0}, "23": {"stimulus": 32, "trial": 23, "rt": 832, "correctcat": 0, "response": 0}, "28": {"stimulus": 32, "trial": 28, "rt": 971, "correctcat": 0, "response": 0}, "29": {"stimulus": 30, "trial": 29, "rt": 781, "correctcat": 0, "response": 0}, "1": {"stimulus": 12, "trial": 1, "rt": 1116, "correctcat": 0, "response": 0}, "0": {"stimulus": 14, "trial": 0, "rt": 4053, "correctcat": 0, "response": 0}, "3": {"stimulus": 72, "trial": 3, "rt": 1205, "correctcat": 1, "response": 1}, "2": {"stimulus": 30, "trial": 2, "rt": 951, "correctcat": 0, "response": 0}, "5": {"stimulus": 32, "trial": 5, "rt": 1405, "correctcat": 0, "response": 0}, "4": {"stimulus": 66, "trial": 4, "rt": 925, "correctcat": 1, "response": 1}, "7": {"stimulus": 59, "trial": 7, "rt": 989, "correctcat": 1, "response": 1}, "6": {"stimulus": 73, "trial": 6, "rt": 1061, "correctcat": 1, "response": 1}, "9": {"stimulus": 30, "trial": 9, "rt": 1910, "correctcat": 0, "response": 0}, "8": {"stimulus": 66, "trial": 8, "rt": 789, "correctcat": 1, "response": 1}, "11": {"stimulus": 14, "trial": 11, "rt": 989, "correctcat": 0, "response": 0}, "10": {"stimulus": 72, "trial": 10, "rt": 1122, "correctcat": 1, "response": 1}, "13": {"stimulus": 73, "trial": 13, "rt": 1143, "correctcat": 1, "response": 1}, "12": {"stimulus": 12, "trial": 12, "rt": 667, "correctcat": 0, "response": 0}, "15": {"stimulus": 59, "trial": 15, "rt": 1129, "correctcat": 1, "response": 1}, "14": {"stimulus": 32, "trial": 14, "rt": 1210, "correctcat": 0, "response": 0}, "17": {"stimulus": 59, "trial": 17, "rt": 927, "correctcat": 1, "response": 1}, "16": {"stimulus": 66, "trial": 16, "rt": 783, "correctcat": 1, "response": 1}, "19": {"stimulus": 73, "trial": 19, "rt": 1132, "correctcat": 1, "response": 1}, "18": {"stimulus": 30, "trial": 18, "rt": 1623, "correctcat": 0, "response": 0}, "31": {"stimulus": 72, "trial": 31, "rt": 895, "correctcat": 1, "response": 1}, "30": {"stimulus": 59, "trial": 30, "rt": 1302, "correctcat": 1, "response": 1}}, "experiment": {"Paradigm": "TACL", "Stimuli": "Size-Color Squares", "Experiment": "Assigning-Generated-Categories"}, "goodness": {"1": {"stimulus": 30, "trial": 1, "categoryRate": "NA", "rt": 2616, "rating": 6}, "0": {"stimulus": 32, "trial": 0, "categoryRate": "NA", "rt": 5678, "rating": 8}, "3": {"stimulus": 12, "trial": 3, "categoryRate": "NA", "rt": 2190, "rating": 8}, "2": {"stimulus": 59, "trial": 2, "categoryRate": "NA", "rt": 3411, "rating": 3}, "5": {"stimulus": 73, "trial": 5, "categoryRate": "NA", "rt": 3373, "rating": 9}, "4": {"stimulus": 14, "trial": 4, "categoryRate": "NA", "rt": 2386, "rating": 8}, "7": {"stimulus": 72, "trial": 7, "categoryRate": "NA", "rt": 2197, "rating": 8}, "6": {"stimulus": 66, "trial": 6, "categoryRate": "NA", "rt": 1963, "rating": 7}, "9": {"stimulus": -1, "trial": 9, "categoryRate": "Beta", "rt": 3220, "rating": 6}, "8": {"stimulus": -1, "trial": 8, "categoryRate": "Alpha", "rt": 6395, "rating": 9}}, "submit": {"timeTotal": 200465, "age": "54", "comments": "fun", "sex": "woman"}}