{"info": {"finish": 1521143617976, "participant": 229, "exposed": true, "stimuli": [12, 14, 30, 32, 72, 80, 78, 77], "lab": false, "pptmatch": 19, "start": 1521143405887, "catflip": false, "categories": [0, 0, 0, 0, 1, 1, 1, 1], "counterbalance": 2, "condition": "Bottom", "browser": {"platform": "Win32", "userAgent": "Mozilla/5.0 (Windows NT 10.0; Win64; x64) AppleWebKit/537.36 (KHTML, like Gecko) Chrome/65.0.3325.162 Safari/537.36"}}, "assignment": {"24": {"stimulus": 80, "trial": 24, "rt": 984, "correctcat": 1, "response": 1}, "25": {"stimulus": 30, "trial": 25, "rt": 1359, "correctcat": 0, "response": 0}, "26": {"stimulus": 32, "trial": 26, "rt": 766, "correctcat": 0, "response": 0}, "27": {"stimulus": 12, "trial": 27, "rt": 788, "correctcat": 0, "response": 0}, "20": {"stimulus": 72, "trial": 20, "rt": 1170, "correctcat": 1, "response": 1}, "21": {"stimulus": 14, "trial": 21, "rt": 1377, "correctcat": 0, "response": 0}, "22": {"stimulus": 12, "trial": 22, "rt": 1223, "correctcat": 0, "response": 0}, "23": {"stimulus": 78, "trial": 23, "rt": 1351, "correctcat": 1, "response": 1}, "28": {"stimulus": 78, "trial": 28, "rt": 2042, "correctcat": 1, "response": 1}, "29": {"stimulus": 77, "trial": 29, "rt": 969, "correctcat": 1, "response": 1}, "1": {"stimulus": 32, "trial": 1, "rt": 2195, "correctcat": 0, "response": 0}, "0": {"stimulus": 78, "trial": 0, "rt": 5484, "correctcat": 1, "response": 0}, "3": {"stimulus": 12, "trial": 3, "rt": 1296, "correctcat": 0, "response": 0}, "2": {"stimulus": 72, "trial": 2, "rt": 3056, "correctcat": 1, "response": 1}, "5": {"stimulus": 14, "trial": 5, "rt": 1242, "correctcat": 0, "response": 0}, "4": {"stimulus": 80, "trial": 4, "rt": 1610, "correctcat": 1, "response": 1}, "7": {"stimulus": 77, "trial": 7, "rt": 2211, "correctcat": 1, "response": 1}, "6": {"stimulus": 30, "trial": 6, "rt": 748, "correctcat": 0, "response": 0}, "9": {"stimulus": 32, "trial": 9, "rt": 2150, "correctcat": 0, "response": 0}, "8": {"stimulus": 77, "trial": 8, "rt": 663, "correctcat": 1, "response": 1}, "11": {"stimulus": 12, "trial": 11, "rt": 1409, "correctcat": 0, "response": 0}, "10": {"stimulus": 14, "trial": 10, "rt": 1364, "correctcat": 0, "response": 1}, "13": {"stimulus": 80, "trial": 13, "rt": 2202, "correctcat": 1, "response": 1}, "12": {"stimulus": 30, "trial": 12, "rt": 1043, "correctcat": 0, "response": 0}, "15": {"stimulus": 78, "trial": 15, "rt": 863, "correctcat": 1, "response": 1}, "14": {"stimulus": 72, "trial": 14, "rt": 870, "correctcat": 1, "response": 1}, "17": {"stimulus": 77, "trial": 17, "rt": 1923, "correctcat": 1, "response": 1}, "16": {"stimulus": 32, "trial": 16, "rt": 1685, "correctcat": 0, "response": 0}, "19": {"stimulus": 30, "trial": 19, "rt": 1295, "correctcat": 0, "response": 0}, "18": {"stimulus": 80, "trial": 18, "rt": 856, "correctcat": 1, "response": 1}, "31": {"stimulus": 72, "trial": 31, "rt": 2816, "correctcat": 1, "response": 1}, "30": {"stimulus": 14, "trial": 30, "rt": 1281, "correctcat": 0, "response": 0}}, "experiment": {"Paradigm": "TACL", "Stimuli": "Size-Color Squares", "Experiment": "Assigning-Generated-Categories"}, "goodness": {"1": {"stimulus": 77, "trial": 1, "categoryRate": "NA", "rt": 3026, "rating": 8}, "0": {"stimulus": 80, "trial": 0, "categoryRate": "NA", "rt": 10484, "rating": 7}, "3": {"stimulus": 32, "trial": 3, "categoryRate": "NA", "rt": 3977, "rating": 8}, "2": {"stimulus": 30, "trial": 2, "categoryRate": "NA", "rt": 3885, "rating": 4}, "5": {"stimulus": 14, "trial": 5, "categoryRate": "NA", "rt": 2371, "rating": 8}, "4": {"stimulus": 12, "trial": 4, "categoryRate": "NA", "rt": 4959, "rating": 9}, "7": {"stimulus": 72, "trial": 7, "categoryRate": "NA", "rt": 3400, "rating": 10}, "6": {"stimulus": 78, "trial": 6, "categoryRate": "NA", "rt": 3636, "rating": 9}, "9": {"stimulus": -1, "trial": 9, "categoryRate": "Beta", "rt": 2984, "rating": 8}, "8": {"stimulus": -1, "trial": 8, "categoryRate": "Alpha", "rt": 5925, "rating": 7}}, "submit": {"timeTotal": 212383, "age": "28", "comments": "", "sex": "female"}}