{"info": {"finish": 1521145957615, "participant": 233, "exposed": true, "stimuli": [12, 14, 30, 32, 59, 73, 66, 72], "lab": false, "pptmatch": 1, "start": 1521145785451, "catflip": false, "categories": [0, 0, 0, 0, 1, 1, 1, 1], "counterbalance": 1, "condition": "Bottom", "browser": {"platform": "Win32", "userAgent": "Mozilla/5.0 (Windows NT 10.0; Win64; x64) AppleWebKit/537.36 (KHTML, like Gecko) Chrome/65.0.3325.162 Safari/537.36"}}, "assignment": {"24": {"stimulus": 14, "trial": 24, "rt": 707, "correctcat": 0, "response": 0}, "25": {"stimulus": 59, "trial": 25, "rt": 849, "correctcat": 1, "response": 1}, "26": {"stimulus": 12, "trial": 26, "rt": 753, "correctcat": 0, "response": 0}, "27": {"stimulus": 30, "trial": 27, "rt": 476, "correctcat": 0, "response": 0}, "20": {"stimulus": 66, "trial": 20, "rt": 599, "correctcat": 1, "response": 1}, "21": {"stimulus": 32, "trial": 21, "rt": 762, "correctcat": 0, "response": 0}, "22": {"stimulus": 30, "trial": 22, "rt": 657, "correctcat": 0, "response": 0}, "23": {"stimulus": 72, "trial": 23, "rt": 794, "correctcat": 1, "response": 1}, "28": {"stimulus": 73, "trial": 28, "rt": 608, "correctcat": 1, "response": 1}, "29": {"stimulus": 72, "trial": 29, "rt": 451, "correctcat": 1, "response": 1}, "1": {"stimulus": 14, "trial": 1, "rt": 877, "correctcat": 0, "response": 0}, "0": {"stimulus": 32, "trial": 0, "rt": 1337, "correctcat": 0, "response": 0}, "3": {"stimulus": 30, "trial": 3, "rt": 1059, "correctcat": 0, "response": 0}, "2": {"stimulus": 59, "trial": 2, "rt": 1185, "correctcat": 1, "response": 1}, "5": {"stimulus": 12, "trial": 5, "rt": 849, "correctcat": 0, "response": 0}, "4": {"stimulus": 66, "trial": 4, "rt": 699, "correctcat": 1, "response": 1}, "7": {"stimulus": 72, "trial": 7, "rt": 414, "correctcat": 1, "response": 1}, "6": {"stimulus": 73, "trial": 6, "rt": 737, "correctcat": 1, "response": 1}, "9": {"stimulus": 30, "trial": 9, "rt": 632, "correctcat": 0, "response": 0}, "8": {"stimulus": 14, "trial": 8, "rt": 784, "correctcat": 0, "response": 0}, "11": {"stimulus": 72, "trial": 11, "rt": 678, "correctcat": 1, "response": 1}, "10": {"stimulus": 12, "trial": 10, "rt": 460, "correctcat": 0, "response": 0}, "13": {"stimulus": 73, "trial": 13, "rt": 640, "correctcat": 1, "response": 1}, "12": {"stimulus": 66, "trial": 12, "rt": 771, "correctcat": 1, "response": 1}, "15": {"stimulus": 32, "trial": 15, "rt": 716, "correctcat": 0, "response": 0}, "14": {"stimulus": 59, "trial": 14, "rt": 887, "correctcat": 1, "response": 0}, "17": {"stimulus": 73, "trial": 17, "rt": 684, "correctcat": 1, "response": 1}, "16": {"stimulus": 14, "trial": 16, "rt": 648, "correctcat": 0, "response": 0}, "19": {"stimulus": 59, "trial": 19, "rt": 873, "correctcat": 1, "response": 1}, "18": {"stimulus": 12, "trial": 18, "rt": 888, "correctcat": 0, "response": 0}, "31": {"stimulus": 66, "trial": 31, "rt": 848, "correctcat": 1, "response": 1}, "30": {"stimulus": 32, "trial": 30, "rt": 700, "correctcat": 0, "response": 0}}, "experiment": {"Paradigm": "TACL", "Stimuli": "Size-Color Squares", "Experiment": "Assigning-Generated-Categories"}, "goodness": {"1": {"stimulus": 30, "trial": 1, "categoryRate": "NA", "rt": 1867, "rating": 7}, "0": {"stimulus": 59, "trial": 0, "categoryRate": "NA", "rt": 6813, "rating": 4}, "3": {"stimulus": 14, "trial": 3, "categoryRate": "NA", "rt": 1731, "rating": 9}, "2": {"stimulus": 72, "trial": 2, "categoryRate": "NA", "rt": 2800, "rating": 10}, "5": {"stimulus": 66, "trial": 5, "categoryRate": "NA", "rt": 1878, "rating": 4}, "4": {"stimulus": 32, "trial": 4, "categoryRate": "NA", "rt": 2007, "rating": 7}, "7": {"stimulus": 12, "trial": 7, "categoryRate": "NA", "rt": 1590, "rating": 10}, "6": {"stimulus": 73, "trial": 6, "categoryRate": "NA", "rt": 1715, "rating": 10}, "9": {"stimulus": -1, "trial": 9, "categoryRate": "Beta", "rt": 2952, "rating": 10}, "8": {"stimulus": -1, "trial": 8, "categoryRate": "Alpha", "rt": 7003, "rating": 10}}, "submit": {"timeTotal": 172481, "age": "35", "comments": "", "sex": "male"}}