{"info": {"finish": 1521148041117, "participant": 234, "exposed": true, "stimuli": [30, 32, 48, 50, 35, 43, 8, 71], "lab": false, "pptmatch": 109, "start": 1521147761359, "catflip": true, "categories": [1, 1, 1, 1, 0, 0, 0, 0], "counterbalance": 3, "condition": "Middle", "browser": {"platform": "Win32", "userAgent": "Mozilla/5.0 (Windows NT 10.0; Win64; x64) AppleWebKit/537.36 (KHTML, like Gecko) Chrome/65.0.3325.162 Safari/537.36"}}, "assignment": {"24": {"stimulus": 8, "trial": 24, "rt": 1299, "correctcat": 0, "response": 0}, "25": {"stimulus": 50, "trial": 25, "rt": 1519, "correctcat": 1, "response": 1}, "26": {"stimulus": 48, "trial": 26, "rt": 1265, "correctcat": 1, "response": 1}, "27": {"stimulus": 32, "trial": 27, "rt": 1600, "correctcat": 1, "response": 1}, "20": {"stimulus": 32, "trial": 20, "rt": 1607, "correctcat": 1, "response": 1}, "21": {"stimulus": 30, "trial": 21, "rt": 1411, "correctcat": 1, "response": 1}, "22": {"stimulus": 43, "trial": 22, "rt": 1561, "correctcat": 0, "response": 0}, "23": {"stimulus": 50, "trial": 23, "rt": 1771, "correctcat": 1, "response": 1}, "28": {"stimulus": 71, "trial": 28, "rt": 1306, "correctcat": 0, "response": 0}, "29": {"stimulus": 43, "trial": 29, "rt": 1734, "correctcat": 0, "response": 0}, "1": {"stimulus": 30, "trial": 1, "rt": 1530, "correctcat": 1, "response": 1}, "0": {"stimulus": 71, "trial": 0, "rt": 5961, "correctcat": 0, "response": 0}, "3": {"stimulus": 48, "trial": 3, "rt": 1548, "correctcat": 1, "response": 1}, "2": {"stimulus": 32, "trial": 2, "rt": 1489, "correctcat": 1, "response": 1}, "5": {"stimulus": 43, "trial": 5, "rt": 1500, "correctcat": 0, "response": 0}, "4": {"stimulus": 35, "trial": 4, "rt": 1465, "correctcat": 0, "response": 0}, "7": {"stimulus": 8, "trial": 7, "rt": 1980, "correctcat": 0, "response": 1}, "6": {"stimulus": 50, "trial": 6, "rt": 1775, "correctcat": 1, "response": 0}, "9": {"stimulus": 30, "trial": 9, "rt": 1517, "correctcat": 1, "response": 1}, "8": {"stimulus": 48, "trial": 8, "rt": 1716, "correctcat": 1, "response": 1}, "11": {"stimulus": 71, "trial": 11, "rt": 3559, "correctcat": 0, "response": 1}, "10": {"stimulus": 32, "trial": 10, "rt": 1270, "correctcat": 1, "response": 1}, "13": {"stimulus": 50, "trial": 13, "rt": 2046, "correctcat": 1, "response": 1}, "12": {"stimulus": 35, "trial": 12, "rt": 1500, "correctcat": 0, "response": 0}, "15": {"stimulus": 8, "trial": 15, "rt": 1761, "correctcat": 0, "response": 0}, "14": {"stimulus": 43, "trial": 14, "rt": 3833, "correctcat": 0, "response": 0}, "17": {"stimulus": 71, "trial": 17, "rt": 2558, "correctcat": 0, "response": 0}, "16": {"stimulus": 48, "trial": 16, "rt": 2270, "correctcat": 1, "response": 1}, "19": {"stimulus": 35, "trial": 19, "rt": 1328, "correctcat": 0, "response": 0}, "18": {"stimulus": 8, "trial": 18, "rt": 1268, "correctcat": 0, "response": 0}, "31": {"stimulus": 35, "trial": 31, "rt": 1280, "correctcat": 0, "response": 0}, "30": {"stimulus": 30, "trial": 30, "rt": 1483, "correctcat": 1, "response": 1}}, "experiment": {"Paradigm": "TACL", "Stimuli": "Size-Color Squares", "Experiment": "Assigning-Generated-Categories"}, "goodness": {"1": {"stimulus": 30, "trial": 1, "categoryRate": "NA", "rt": 3230, "rating": 7}, "0": {"stimulus": 50, "trial": 0, "categoryRate": "NA", "rt": 6111, "rating": 9}, "3": {"stimulus": 71, "trial": 3, "categoryRate": "NA", "rt": 3098, "rating": 10}, "2": {"stimulus": 32, "trial": 2, "categoryRate": "NA", "rt": 2928, "rating": 7}, "5": {"stimulus": 48, "trial": 5, "categoryRate": "NA", "rt": 3199, "rating": 9}, "4": {"stimulus": 35, "trial": 4, "categoryRate": "NA", "rt": 2355, "rating": 8}, "7": {"stimulus": 8, "trial": 7, "categoryRate": "NA", "rt": 5324, "rating": 3}, "6": {"stimulus": 43, "trial": 6, "categoryRate": "NA", "rt": 2659, "rating": 8}, "9": {"stimulus": -1, "trial": 9, "categoryRate": "Alpha", "rt": 4919, "rating": 9}, "8": {"stimulus": -1, "trial": 8, "categoryRate": "Beta", "rt": 10285, "rating": 8}}, "submit": {"timeTotal": 279889, "age": "54", "comments": "No comments", "sex": "Male"}}