{"info": {"finish": 1521162174789, "participant": 239, "exposed": true, "stimuli": [12, 14, 30, 32, 13, 3, 31, 22], "lab": false, "pptmatch": 53, "start": 1521161766256, "catflip": false, "categories": [0, 0, 0, 0, 1, 1, 1, 1], "counterbalance": 2, "condition": "Bottom", "browser": {"platform": "Win32", "userAgent": "Mozilla/5.0 (Windows NT 10.0; Win64; x64) AppleWebKit/537.36 (KHTML, like Gecko) Chrome/64.0.3282.186 Safari/537.36"}}, "assignment": {"24": {"stimulus": 32, "trial": 24, "rt": 931, "correctcat": 0, "response": 1}, "25": {"stimulus": 14, "trial": 25, "rt": 1319, "correctcat": 0, "response": 1}, "26": {"stimulus": 22, "trial": 26, "rt": 883, "correctcat": 1, "response": 1}, "27": {"stimulus": 12, "trial": 27, "rt": 980, "correctcat": 0, "response": 0}, "20": {"stimulus": 32, "trial": 20, "rt": 1669, "correctcat": 0, "response": 1}, "21": {"stimulus": 12, "trial": 21, "rt": 15021, "correctcat": 0, "response": 0}, "22": {"stimulus": 30, "trial": 22, "rt": 2341, "correctcat": 0, "response": 1}, "23": {"stimulus": 13, "trial": 23, "rt": 2132, "correctcat": 1, "response": 0}, "28": {"stimulus": 30, "trial": 28, "rt": 993, "correctcat": 0, "response": 1}, "29": {"stimulus": 3, "trial": 29, "rt": 2919, "correctcat": 1, "response": 0}, "1": {"stimulus": 30, "trial": 1, "rt": 2037, "correctcat": 0, "response": 0}, "0": {"stimulus": 14, "trial": 0, "rt": 1539, "correctcat": 0, "response": 1}, "3": {"stimulus": 22, "trial": 3, "rt": 2217, "correctcat": 1, "response": 0}, "2": {"stimulus": 13, "trial": 2, "rt": 1875, "correctcat": 1, "response": 0}, "5": {"stimulus": 32, "trial": 5, "rt": 1092, "correctcat": 0, "response": 1}, "4": {"stimulus": 3, "trial": 4, "rt": 1341, "correctcat": 1, "response": 1}, "7": {"stimulus": 12, "trial": 7, "rt": 998, "correctcat": 0, "response": 1}, "6": {"stimulus": 31, "trial": 6, "rt": 1580, "correctcat": 1, "response": 1}, "9": {"stimulus": 3, "trial": 9, "rt": 4479, "correctcat": 1, "response": 0}, "8": {"stimulus": 14, "trial": 8, "rt": 3349, "correctcat": 0, "response": 0}, "11": {"stimulus": 30, "trial": 11, "rt": 1170, "correctcat": 0, "response": 1}, "10": {"stimulus": 22, "trial": 10, "rt": 1152, "correctcat": 1, "response": 1}, "13": {"stimulus": 31, "trial": 13, "rt": 934, "correctcat": 1, "response": 1}, "12": {"stimulus": 13, "trial": 12, "rt": 1563, "correctcat": 1, "response": 0}, "15": {"stimulus": 12, "trial": 15, "rt": 1633, "correctcat": 0, "response": 0}, "14": {"stimulus": 32, "trial": 14, "rt": 1238, "correctcat": 0, "response": 0}, "17": {"stimulus": 14, "trial": 17, "rt": 15945, "correctcat": 0, "response": 0}, "16": {"stimulus": 31, "trial": 16, "rt": 3409, "correctcat": 1, "response": 0}, "19": {"stimulus": 22, "trial": 19, "rt": 1197, "correctcat": 1, "response": 1}, "18": {"stimulus": 3, "trial": 18, "rt": 1217, "correctcat": 1, "response": 0}, "31": {"stimulus": 13, "trial": 31, "rt": 1349, "correctcat": 1, "response": 1}, "30": {"stimulus": 31, "trial": 30, "rt": 907, "correctcat": 1, "response": 1}}, "experiment": {"Paradigm": "TACL", "Stimuli": "Size-Color Squares", "Experiment": "Assigning-Generated-Categories"}, "goodness": {"1": {"stimulus": 13, "trial": 1, "categoryRate": "NA", "rt": 2282, "rating": 10}, "0": {"stimulus": 30, "trial": 0, "categoryRate": "NA", "rt": 7074, "rating": 8}, "3": {"stimulus": 32, "trial": 3, "categoryRate": "NA", "rt": 1224, "rating": 7}, "2": {"stimulus": 31, "trial": 2, "categoryRate": "NA", "rt": 1643, "rating": 7}, "5": {"stimulus": 3, "trial": 5, "categoryRate": "NA", "rt": 1692, "rating": 10}, "4": {"stimulus": 12, "trial": 4, "categoryRate": "NA", "rt": 2692, "rating": 9}, "7": {"stimulus": 22, "trial": 7, "categoryRate": "NA", "rt": 2154, "rating": 5}, "6": {"stimulus": 14, "trial": 6, "categoryRate": "NA", "rt": 1538, "rating": 8}, "9": {"stimulus": -1, "trial": 9, "categoryRate": "Alpha", "rt": 1925, "rating": 1}, "8": {"stimulus": -1, "trial": 8, "categoryRate": "Beta", "rt": 10446, "rating": 1}}, "submit": {"timeTotal": 408894, "age": "21", "comments": "thank you!", "sex": "Female"}}