{"info": {"finish": 1521061500336, "participant": 24, "exposed": true, "stimuli": [12, 14, 30, 32, 45, 54, 63, 72], "lab": false, "pptmatch": 24, "start": 1521061234277, "catflip": false, "categories": [0, 0, 0, 0, 1, 1, 1, 1], "counterbalance": 1, "condition": "Bottom", "browser": {"platform": "Win32", "userAgent": "Mozilla/5.0 (Windows NT 10.0; Win64; x64) AppleWebKit/537.36 (KHTML, like Gecko) Chrome/64.0.3282.186 Safari/537.36"}}, "assignment": {"24": {"stimulus": 30, "trial": 24, "rt": 1574, "correctcat": 0, "response": 0}, "25": {"stimulus": 72, "trial": 25, "rt": 1241, "correctcat": 1, "response": 1}, "26": {"stimulus": 32, "trial": 26, "rt": 1690, "correctcat": 0, "response": 0}, "27": {"stimulus": 63, "trial": 27, "rt": 1817, "correctcat": 1, "response": 1}, "20": {"stimulus": 63, "trial": 20, "rt": 1357, "correctcat": 1, "response": 1}, "21": {"stimulus": 54, "trial": 21, "rt": 1188, "correctcat": 1, "response": 1}, "22": {"stimulus": 45, "trial": 22, "rt": 1314, "correctcat": 1, "response": 1}, "23": {"stimulus": 12, "trial": 23, "rt": 1469, "correctcat": 0, "response": 0}, "28": {"stimulus": 54, "trial": 28, "rt": 1322, "correctcat": 1, "response": 1}, "29": {"stimulus": 45, "trial": 29, "rt": 1532, "correctcat": 1, "response": 1}, "1": {"stimulus": 30, "trial": 1, "rt": 1890, "correctcat": 0, "response": 1}, "0": {"stimulus": 72, "trial": 0, "rt": 3401, "correctcat": 1, "response": 0}, "3": {"stimulus": 54, "trial": 3, "rt": 4094, "correctcat": 1, "response": 1}, "2": {"stimulus": 45, "trial": 2, "rt": 1459, "correctcat": 1, "response": 1}, "5": {"stimulus": 63, "trial": 5, "rt": 713, "correctcat": 1, "response": 1}, "4": {"stimulus": 14, "trial": 4, "rt": 1120, "correctcat": 0, "response": 0}, "7": {"stimulus": 32, "trial": 7, "rt": 1064, "correctcat": 0, "response": 0}, "6": {"stimulus": 12, "trial": 6, "rt": 800, "correctcat": 0, "response": 0}, "9": {"stimulus": 32, "trial": 9, "rt": 938, "correctcat": 0, "response": 0}, "8": {"stimulus": 63, "trial": 8, "rt": 916, "correctcat": 1, "response": 1}, "11": {"stimulus": 30, "trial": 11, "rt": 887, "correctcat": 0, "response": 0}, "10": {"stimulus": 45, "trial": 10, "rt": 937, "correctcat": 1, "response": 1}, "13": {"stimulus": 54, "trial": 13, "rt": 1544, "correctcat": 1, "response": 1}, "12": {"stimulus": 72, "trial": 12, "rt": 959, "correctcat": 1, "response": 1}, "15": {"stimulus": 14, "trial": 15, "rt": 1473, "correctcat": 0, "response": 0}, "14": {"stimulus": 12, "trial": 14, "rt": 2266, "correctcat": 0, "response": 0}, "17": {"stimulus": 14, "trial": 17, "rt": 1366, "correctcat": 0, "response": 0}, "16": {"stimulus": 72, "trial": 16, "rt": 1511, "correctcat": 1, "response": 1}, "19": {"stimulus": 30, "trial": 19, "rt": 1434, "correctcat": 0, "response": 0}, "18": {"stimulus": 32, "trial": 18, "rt": 1578, "correctcat": 0, "response": 0}, "31": {"stimulus": 14, "trial": 31, "rt": 1351, "correctcat": 0, "response": 0}, "30": {"stimulus": 12, "trial": 30, "rt": 1316, "correctcat": 0, "response": 0}}, "experiment": {"Paradigm": "TACL", "Stimuli": "Size-Color Squares", "Experiment": "Assigning-Generated-Categories"}, "goodness": {"1": {"stimulus": 54, "trial": 1, "categoryRate": "NA", "rt": 3801, "rating": 7}, "0": {"stimulus": 14, "trial": 0, "categoryRate": "NA", "rt": 8754, "rating": 9}, "3": {"stimulus": 72, "trial": 3, "categoryRate": "NA", "rt": 4597, "rating": 7}, "2": {"stimulus": 45, "trial": 2, "categoryRate": "NA", "rt": 3367, "rating": 7}, "5": {"stimulus": 30, "trial": 5, "categoryRate": "NA", "rt": 4143, "rating": 9}, "4": {"stimulus": 12, "trial": 4, "categoryRate": "NA", "rt": 2907, "rating": 8}, "7": {"stimulus": 32, "trial": 7, "categoryRate": "NA", "rt": 2635, "rating": 9}, "6": {"stimulus": 63, "trial": 6, "categoryRate": "NA", "rt": 3561, "rating": 10}, "9": {"stimulus": -1, "trial": 9, "categoryRate": "Alpha", "rt": 3926, "rating": 8}, "8": {"stimulus": -1, "trial": 8, "categoryRate": "Beta", "rt": 7506, "rating": 7}}, "submit": {"timeTotal": 266280, "age": "42", "comments": "Thanks so much!", "sex": "female"}}