{"info": {"finish": 1521162190874, "participant": 241, "exposed": true, "stimuli": [30, 32, 48, 50, 69, 79, 80, 70], "lab": false, "pptmatch": 105, "start": 1521161772603, "catflip": false, "categories": [0, 0, 0, 0, 1, 1, 1, 1], "counterbalance": 0, "condition": "Middle", "browser": {"platform": "Win32", "userAgent": "Mozilla/5.0 (Windows NT 10.0; WOW64; rv:58.0) Gecko/20100101 Firefox/58.0"}}, "assignment": {"24": {"stimulus": 79, "trial": 24, "rt": 687, "correctcat": 1, "response": 1}, "25": {"stimulus": 50, "trial": 25, "rt": 1009, "correctcat": 0, "response": 0}, "26": {"stimulus": 69, "trial": 26, "rt": 779, "correctcat": 1, "response": 1}, "27": {"stimulus": 80, "trial": 27, "rt": 575, "correctcat": 1, "response": 1}, "20": {"stimulus": 32, "trial": 20, "rt": 881, "correctcat": 0, "response": 0}, "21": {"stimulus": 80, "trial": 21, "rt": 893, "correctcat": 1, "response": 1}, "22": {"stimulus": 30, "trial": 22, "rt": 892, "correctcat": 0, "response": 0}, "23": {"stimulus": 79, "trial": 23, "rt": 806, "correctcat": 1, "response": 1}, "28": {"stimulus": 48, "trial": 28, "rt": 912, "correctcat": 0, "response": 0}, "29": {"stimulus": 70, "trial": 29, "rt": 950, "correctcat": 1, "response": 1}, "1": {"stimulus": 80, "trial": 1, "rt": 1356, "correctcat": 1, "response": 0}, "0": {"stimulus": 50, "trial": 0, "rt": 2138, "correctcat": 0, "response": 0}, "3": {"stimulus": 48, "trial": 3, "rt": 1335, "correctcat": 0, "response": 1}, "2": {"stimulus": 32, "trial": 2, "rt": 1239, "correctcat": 0, "response": 0}, "5": {"stimulus": 30, "trial": 5, "rt": 1056, "correctcat": 0, "response": 0}, "4": {"stimulus": 69, "trial": 4, "rt": 2602, "correctcat": 1, "response": 1}, "7": {"stimulus": 79, "trial": 7, "rt": 800, "correctcat": 1, "response": 1}, "6": {"stimulus": 70, "trial": 6, "rt": 1190, "correctcat": 1, "response": 1}, "9": {"stimulus": 69, "trial": 9, "rt": 992, "correctcat": 1, "response": 1}, "8": {"stimulus": 48, "trial": 8, "rt": 979, "correctcat": 0, "response": 0}, "11": {"stimulus": 50, "trial": 11, "rt": 884, "correctcat": 0, "response": 0}, "10": {"stimulus": 30, "trial": 10, "rt": 1436, "correctcat": 0, "response": 0}, "13": {"stimulus": 70, "trial": 13, "rt": 966, "correctcat": 1, "response": 1}, "12": {"stimulus": 32, "trial": 12, "rt": 736, "correctcat": 0, "response": 0}, "15": {"stimulus": 79, "trial": 15, "rt": 681, "correctcat": 1, "response": 1}, "14": {"stimulus": 80, "trial": 14, "rt": 662, "correctcat": 1, "response": 1}, "17": {"stimulus": 50, "trial": 17, "rt": 702, "correctcat": 0, "response": 0}, "16": {"stimulus": 48, "trial": 16, "rt": 885, "correctcat": 0, "response": 0}, "19": {"stimulus": 70, "trial": 19, "rt": 695, "correctcat": 1, "response": 1}, "18": {"stimulus": 69, "trial": 18, "rt": 1023, "correctcat": 1, "response": 1}, "31": {"stimulus": 30, "trial": 31, "rt": 519, "correctcat": 0, "response": 0}, "30": {"stimulus": 32, "trial": 30, "rt": 757, "correctcat": 0, "response": 0}}, "experiment": {"Paradigm": "TACL", "Stimuli": "Size-Color Squares", "Experiment": "Assigning-Generated-Categories"}, "goodness": {"1": {"stimulus": 30, "trial": 1, "categoryRate": "NA", "rt": 2793, "rating": 10}, "0": {"stimulus": 79, "trial": 0, "categoryRate": "NA", "rt": 13215, "rating": 8}, "3": {"stimulus": 69, "trial": 3, "categoryRate": "NA", "rt": 3674, "rating": 7}, "2": {"stimulus": 32, "trial": 2, "categoryRate": "NA", "rt": 5431, "rating": 9}, "5": {"stimulus": 80, "trial": 5, "categoryRate": "NA", "rt": 9914, "rating": 4}, "4": {"stimulus": 48, "trial": 4, "categoryRate": "NA", "rt": 5237, "rating": 7}, "7": {"stimulus": 70, "trial": 7, "categoryRate": "NA", "rt": 3943, "rating": 2}, "6": {"stimulus": 50, "trial": 6, "categoryRate": "NA", "rt": 2193, "rating": 7}, "9": {"stimulus": -1, "trial": 9, "categoryRate": "Beta", "rt": 9726, "rating": 2}, "8": {"stimulus": -1, "trial": 8, "categoryRate": "Alpha", "rt": 14014, "rating": 9}}, "submit": {}}