{"info": {"finish": 1521162161239, "participant": 243, "exposed": true, "stimuli": [30, 32, 48, 50, 80, 72, 74, 61], "lab": false, "pptmatch": 26, "start": 1521161837904, "catflip": false, "categories": [0, 0, 0, 0, 1, 1, 1, 1], "counterbalance": 6, "condition": "Middle", "browser": {"platform": "Win32", "userAgent": "Mozilla/5.0 (Windows NT 10.0; Win64; x64) AppleWebKit/537.36 (KHTML, like Gecko) Chrome/65.0.3325.162 Safari/537.36"}}, "assignment": {"24": {"stimulus": 48, "trial": 24, "rt": 1532, "correctcat": 0, "response": 1}, "25": {"stimulus": 61, "trial": 25, "rt": 1263, "correctcat": 1, "response": 1}, "26": {"stimulus": 72, "trial": 26, "rt": 1631, "correctcat": 1, "response": 1}, "27": {"stimulus": 30, "trial": 27, "rt": 1236, "correctcat": 0, "response": 0}, "20": {"stimulus": 48, "trial": 20, "rt": 1514, "correctcat": 0, "response": 0}, "21": {"stimulus": 72, "trial": 21, "rt": 1374, "correctcat": 1, "response": 1}, "22": {"stimulus": 32, "trial": 22, "rt": 1344, "correctcat": 0, "response": 0}, "23": {"stimulus": 61, "trial": 23, "rt": 2209, "correctcat": 1, "response": 0}, "28": {"stimulus": 74, "trial": 28, "rt": 1278, "correctcat": 1, "response": 1}, "29": {"stimulus": 32, "trial": 29, "rt": 1100, "correctcat": 0, "response": 0}, "1": {"stimulus": 61, "trial": 1, "rt": 3309, "correctcat": 1, "response": 1}, "0": {"stimulus": 80, "trial": 0, "rt": 6532, "correctcat": 1, "response": 0}, "3": {"stimulus": 74, "trial": 3, "rt": 3463, "correctcat": 1, "response": 0}, "2": {"stimulus": 48, "trial": 2, "rt": 3371, "correctcat": 0, "response": 0}, "5": {"stimulus": 72, "trial": 5, "rt": 1878, "correctcat": 1, "response": 1}, "4": {"stimulus": 50, "trial": 4, "rt": 4095, "correctcat": 0, "response": 0}, "7": {"stimulus": 30, "trial": 7, "rt": 1376, "correctcat": 0, "response": 0}, "6": {"stimulus": 32, "trial": 6, "rt": 2595, "correctcat": 0, "response": 0}, "9": {"stimulus": 50, "trial": 9, "rt": 1146, "correctcat": 0, "response": 0}, "8": {"stimulus": 74, "trial": 8, "rt": 1547, "correctcat": 1, "response": 1}, "11": {"stimulus": 32, "trial": 11, "rt": 990, "correctcat": 0, "response": 0}, "10": {"stimulus": 80, "trial": 10, "rt": 1681, "correctcat": 1, "response": 1}, "13": {"stimulus": 30, "trial": 13, "rt": 1128, "correctcat": 0, "response": 0}, "12": {"stimulus": 48, "trial": 12, "rt": 1126, "correctcat": 0, "response": 0}, "15": {"stimulus": 72, "trial": 15, "rt": 1029, "correctcat": 1, "response": 1}, "14": {"stimulus": 61, "trial": 14, "rt": 1295, "correctcat": 1, "response": 1}, "17": {"stimulus": 80, "trial": 17, "rt": 1441, "correctcat": 1, "response": 1}, "16": {"stimulus": 50, "trial": 16, "rt": 1194, "correctcat": 0, "response": 0}, "19": {"stimulus": 30, "trial": 19, "rt": 1064, "correctcat": 0, "response": 0}, "18": {"stimulus": 74, "trial": 18, "rt": 918, "correctcat": 1, "response": 1}, "31": {"stimulus": 50, "trial": 31, "rt": 1331, "correctcat": 0, "response": 1}, "30": {"stimulus": 80, "trial": 30, "rt": 1188, "correctcat": 1, "response": 1}}, "experiment": {"Paradigm": "TACL", "Stimuli": "Size-Color Squares", "Experiment": "Assigning-Generated-Categories"}, "goodness": {"1": {"stimulus": 61, "trial": 1, "categoryRate": "NA", "rt": 3313, "rating": 9}, "0": {"stimulus": 30, "trial": 0, "categoryRate": "NA", "rt": 6982, "rating": 9}, "3": {"stimulus": 32, "trial": 3, "categoryRate": "NA", "rt": 8215, "rating": 8}, "2": {"stimulus": 48, "trial": 2, "categoryRate": "NA", "rt": 4702, "rating": 9}, "5": {"stimulus": 50, "trial": 5, "categoryRate": "NA", "rt": 2873, "rating": 8}, "4": {"stimulus": 74, "trial": 4, "categoryRate": "NA", "rt": 3489, "rating": 9}, "7": {"stimulus": 72, "trial": 7, "categoryRate": "NA", "rt": 3716, "rating": 8}, "6": {"stimulus": 80, "trial": 6, "categoryRate": "NA", "rt": 3892, "rating": 4}, "9": {"stimulus": -1, "trial": 9, "categoryRate": "Alpha", "rt": 14544, "rating": 8}, "8": {"stimulus": -1, "trial": 8, "categoryRate": "Beta", "rt": 35541, "rating": 8}}, "submit": {"timeTotal": 323594, "age": "48", "comments": "thank you", "sex": "male"}}