{"info": {"finish": 1521163532893, "participant": 245, "exposed": true, "stimuli": [30, 32, 48, 50, 71, 80, 53, 62], "lab": false, "pptmatch": 47, "start": 1521163271623, "catflip": true, "categories": [1, 1, 1, 1, 0, 0, 0, 0], "counterbalance": 5, "condition": "Middle", "browser": {"platform": "Win32", "userAgent": "Mozilla/5.0 (Windows NT 10.0; Win64; x64) AppleWebKit/537.36 (KHTML, like Gecko) Chrome/65.0.3325.162 Safari/537.36"}}, "assignment": {"24": {"stimulus": 80, "trial": 24, "rt": 1029, "correctcat": 0, "response": 0}, "25": {"stimulus": 62, "trial": 25, "rt": 999, "correctcat": 0, "response": 0}, "26": {"stimulus": 50, "trial": 26, "rt": 794, "correctcat": 1, "response": 1}, "27": {"stimulus": 30, "trial": 27, "rt": 1147, "correctcat": 1, "response": 1}, "20": {"stimulus": 48, "trial": 20, "rt": 1085, "correctcat": 1, "response": 1}, "21": {"stimulus": 30, "trial": 21, "rt": 1879, "correctcat": 1, "response": 1}, "22": {"stimulus": 32, "trial": 22, "rt": 1008, "correctcat": 1, "response": 1}, "23": {"stimulus": 50, "trial": 23, "rt": 3597, "correctcat": 1, "response": 1}, "28": {"stimulus": 48, "trial": 28, "rt": 1006, "correctcat": 1, "response": 1}, "29": {"stimulus": 53, "trial": 29, "rt": 2082, "correctcat": 0, "response": 0}, "1": {"stimulus": 30, "trial": 1, "rt": 2404, "correctcat": 1, "response": 1}, "0": {"stimulus": 53, "trial": 0, "rt": 23137, "correctcat": 0, "response": 0}, "3": {"stimulus": 62, "trial": 3, "rt": 2715, "correctcat": 0, "response": 0}, "2": {"stimulus": 50, "trial": 2, "rt": 1482, "correctcat": 1, "response": 1}, "5": {"stimulus": 71, "trial": 5, "rt": 1623, "correctcat": 0, "response": 0}, "4": {"stimulus": 80, "trial": 4, "rt": 2957, "correctcat": 0, "response": 0}, "7": {"stimulus": 32, "trial": 7, "rt": 3202, "correctcat": 1, "response": 0}, "6": {"stimulus": 48, "trial": 6, "rt": 1590, "correctcat": 1, "response": 1}, "9": {"stimulus": 50, "trial": 9, "rt": 1076, "correctcat": 1, "response": 1}, "8": {"stimulus": 32, "trial": 8, "rt": 793, "correctcat": 1, "response": 1}, "11": {"stimulus": 62, "trial": 11, "rt": 3483, "correctcat": 0, "response": 0}, "10": {"stimulus": 48, "trial": 10, "rt": 1504, "correctcat": 1, "response": 1}, "13": {"stimulus": 80, "trial": 13, "rt": 1170, "correctcat": 0, "response": 0}, "12": {"stimulus": 53, "trial": 12, "rt": 3339, "correctcat": 0, "response": 0}, "15": {"stimulus": 71, "trial": 15, "rt": 1020, "correctcat": 0, "response": 0}, "14": {"stimulus": 30, "trial": 14, "rt": 4411, "correctcat": 1, "response": 1}, "17": {"stimulus": 53, "trial": 17, "rt": 1121, "correctcat": 0, "response": 0}, "16": {"stimulus": 62, "trial": 16, "rt": 4091, "correctcat": 0, "response": 0}, "19": {"stimulus": 71, "trial": 19, "rt": 1201, "correctcat": 0, "response": 0}, "18": {"stimulus": 80, "trial": 18, "rt": 1490, "correctcat": 0, "response": 0}, "31": {"stimulus": 32, "trial": 31, "rt": 2539, "correctcat": 1, "response": 1}, "30": {"stimulus": 71, "trial": 30, "rt": 1834, "correctcat": 0, "response": 0}}, "experiment": {"Paradigm": "TACL", "Stimuli": "Size-Color Squares", "Experiment": "Assigning-Generated-Categories"}, "goodness": {"1": {"stimulus": 80, "trial": 1, "categoryRate": "NA", "rt": 12416, "rating": 10}, "0": {"stimulus": 32, "trial": 0, "categoryRate": "NA", "rt": 12939, "rating": 9}, "3": {"stimulus": 50, "trial": 3, "categoryRate": "NA", "rt": 4815, "rating": 7}, "2": {"stimulus": 62, "trial": 2, "categoryRate": "NA", "rt": 4901, "rating": 10}, "5": {"stimulus": 53, "trial": 5, "categoryRate": "NA", "rt": 1927, "rating": 10}, "4": {"stimulus": 71, "trial": 4, "categoryRate": "NA", "rt": 1933, "rating": 10}, "7": {"stimulus": 48, "trial": 7, "categoryRate": "NA", "rt": 2057, "rating": 7}, "6": {"stimulus": 30, "trial": 6, "categoryRate": "NA", "rt": 4199, "rating": 7}, "9": {"stimulus": -1, "trial": 9, "categoryRate": "Beta", "rt": 3252, "rating": 10}, "8": {"stimulus": -1, "trial": 8, "categoryRate": "Alpha", "rt": 10352, "rating": 10}}, "submit": {"timeTotal": 261715, "age": "31", "comments": "I'm not exactly sure what the purpose was, but I do think of black being more alpha for some reason and a grey/ dark grey being more beta.", "sex": "Male"}}