{"info": {"finish": 1521066268796, "participant": 33, "exposed": true, "stimuli": [30, 32, 48, 50, 80, 72, 8, 0], "lab": false, "pptmatch": 33, "start": 1521065838661, "catflip": false, "categories": [0, 0, 0, 0, 1, 1, 1, 1], "counterbalance": 7, "condition": "Middle", "browser": {"platform": "Win32", "userAgent": "Mozilla/5.0 (Windows NT 10.0; Win64; x64) AppleWebKit/537.36 (KHTML, like Gecko) Chrome/64.0.3282.186 Safari/537.36"}}, "assignment": {"24": {"stimulus": 48, "trial": 24, "rt": 1567, "correctcat": 0, "response": 1}, "25": {"stimulus": 30, "trial": 25, "rt": 444, "correctcat": 0, "response": 0}, "26": {"stimulus": 32, "trial": 26, "rt": 2309, "correctcat": 0, "response": 0}, "27": {"stimulus": 0, "trial": 27, "rt": 605, "correctcat": 1, "response": 0}, "20": {"stimulus": 8, "trial": 20, "rt": 1644, "correctcat": 1, "response": 1}, "21": {"stimulus": 50, "trial": 21, "rt": 926, "correctcat": 0, "response": 1}, "22": {"stimulus": 48, "trial": 22, "rt": 1606, "correctcat": 0, "response": 0}, "23": {"stimulus": 80, "trial": 23, "rt": 2570, "correctcat": 1, "response": 1}, "28": {"stimulus": 8, "trial": 28, "rt": 405, "correctcat": 1, "response": 0}, "29": {"stimulus": 72, "trial": 29, "rt": 766, "correctcat": 1, "response": 1}, "1": {"stimulus": 50, "trial": 1, "rt": 1367, "correctcat": 0, "response": 1}, "0": {"stimulus": 48, "trial": 0, "rt": 3946, "correctcat": 0, "response": 0}, "3": {"stimulus": 8, "trial": 3, "rt": 746, "correctcat": 1, "response": 0}, "2": {"stimulus": 30, "trial": 2, "rt": 2088, "correctcat": 0, "response": 0}, "5": {"stimulus": 72, "trial": 5, "rt": 1189, "correctcat": 1, "response": 1}, "4": {"stimulus": 80, "trial": 4, "rt": 1387, "correctcat": 1, "response": 1}, "7": {"stimulus": 32, "trial": 7, "rt": 1248, "correctcat": 0, "response": 1}, "6": {"stimulus": 0, "trial": 6, "rt": 1267, "correctcat": 1, "response": 0}, "9": {"stimulus": 32, "trial": 9, "rt": 806, "correctcat": 0, "response": 0}, "8": {"stimulus": 48, "trial": 8, "rt": 2488, "correctcat": 0, "response": 0}, "11": {"stimulus": 80, "trial": 11, "rt": 608, "correctcat": 1, "response": 0}, "10": {"stimulus": 50, "trial": 10, "rt": 625, "correctcat": 0, "response": 0}, "13": {"stimulus": 8, "trial": 13, "rt": 725, "correctcat": 1, "response": 1}, "12": {"stimulus": 0, "trial": 12, "rt": 443, "correctcat": 1, "response": 1}, "15": {"stimulus": 30, "trial": 15, "rt": 925, "correctcat": 0, "response": 1}, "14": {"stimulus": 72, "trial": 14, "rt": 1044, "correctcat": 1, "response": 0}, "17": {"stimulus": 30, "trial": 17, "rt": 664, "correctcat": 0, "response": 1}, "16": {"stimulus": 72, "trial": 16, "rt": 1326, "correctcat": 1, "response": 0}, "19": {"stimulus": 32, "trial": 19, "rt": 1407, "correctcat": 0, "response": 1}, "18": {"stimulus": 0, "trial": 18, "rt": 1506, "correctcat": 1, "response": 0}, "31": {"stimulus": 50, "trial": 31, "rt": 1607, "correctcat": 0, "response": 1}, "30": {"stimulus": 80, "trial": 30, "rt": 1063, "correctcat": 1, "response": 1}}, "experiment": {"Paradigm": "TACL", "Stimuli": "Size-Color Squares", "Experiment": "Assigning-Generated-Categories"}, "goodness": {"1": {"stimulus": 8, "trial": 1, "categoryRate": "NA", "rt": 2614, "rating": 9}, "0": {"stimulus": 0, "trial": 0, "categoryRate": "NA", "rt": 10809, "rating": 8}, "3": {"stimulus": 50, "trial": 3, "categoryRate": "NA", "rt": 1652, "rating": 2}, "2": {"stimulus": 72, "trial": 2, "categoryRate": "NA", "rt": 1792, "rating": 3}, "5": {"stimulus": 48, "trial": 5, "categoryRate": "NA", "rt": 3216, "rating": 2}, "4": {"stimulus": 30, "trial": 4, "categoryRate": "NA", "rt": 1932, "rating": 7}, "7": {"stimulus": 32, "trial": 7, "categoryRate": "NA", "rt": 1570, "rating": 3}, "6": {"stimulus": 80, "trial": 6, "categoryRate": "NA", "rt": 1912, "rating": 9}, "9": {"stimulus": -1, "trial": 9, "categoryRate": "Alpha", "rt": 2873, "rating": 3}, "8": {"stimulus": -1, "trial": 8, "categoryRate": "Beta", "rt": 6900, "rating": 7}}, "submit": {"timeTotal": 430248, "age": "24", "comments": "very interesting survey and a well constructed HIT", "sex": "male"}}