{"info": {"finish": 1521066935611, "participant": 36, "exposed": true, "stimuli": [30, 32, 48, 50, 80, 8, 71, 17], "lab": false, "pptmatch": 36, "start": 1521066689441, "catflip": true, "categories": [1, 1, 1, 1, 0, 0, 0, 0], "counterbalance": 4, "condition": "Middle", "browser": {"platform": "Win32", "userAgent": "Mozilla/5.0 (Windows NT 6.3; Win64; x64) AppleWebKit/537.36 (KHTML, like Gecko) Chrome/64.0.3282.186 Safari/537.36"}}, "assignment": {"24": {"stimulus": 48, "trial": 24, "rt": 2250, "correctcat": 1, "response": 1}, "25": {"stimulus": 30, "trial": 25, "rt": 2890, "correctcat": 1, "response": 1}, "26": {"stimulus": 32, "trial": 26, "rt": 1815, "correctcat": 1, "response": 1}, "27": {"stimulus": 17, "trial": 27, "rt": 3565, "correctcat": 0, "response": 0}, "20": {"stimulus": 48, "trial": 20, "rt": 1434, "correctcat": 1, "response": 1}, "21": {"stimulus": 50, "trial": 21, "rt": 1156, "correctcat": 1, "response": 1}, "22": {"stimulus": 17, "trial": 22, "rt": 1525, "correctcat": 0, "response": 0}, "23": {"stimulus": 32, "trial": 23, "rt": 1315, "correctcat": 1, "response": 1}, "28": {"stimulus": 71, "trial": 28, "rt": 2588, "correctcat": 0, "response": 0}, "29": {"stimulus": 50, "trial": 29, "rt": 1422, "correctcat": 1, "response": 1}, "1": {"stimulus": 80, "trial": 1, "rt": 1443, "correctcat": 0, "response": 1}, "0": {"stimulus": 50, "trial": 0, "rt": 2793, "correctcat": 1, "response": 1}, "3": {"stimulus": 32, "trial": 3, "rt": 1117, "correctcat": 1, "response": 1}, "2": {"stimulus": 30, "trial": 2, "rt": 1300, "correctcat": 1, "response": 1}, "5": {"stimulus": 17, "trial": 5, "rt": 1164, "correctcat": 0, "response": 0}, "4": {"stimulus": 71, "trial": 4, "rt": 1180, "correctcat": 0, "response": 0}, "7": {"stimulus": 48, "trial": 7, "rt": 1011, "correctcat": 1, "response": 1}, "6": {"stimulus": 8, "trial": 6, "rt": 1618, "correctcat": 0, "response": 1}, "9": {"stimulus": 48, "trial": 9, "rt": 1029, "correctcat": 1, "response": 1}, "8": {"stimulus": 8, "trial": 8, "rt": 1120, "correctcat": 0, "response": 0}, "11": {"stimulus": 50, "trial": 11, "rt": 1096, "correctcat": 1, "response": 1}, "10": {"stimulus": 80, "trial": 10, "rt": 1211, "correctcat": 0, "response": 0}, "13": {"stimulus": 17, "trial": 13, "rt": 1154, "correctcat": 0, "response": 0}, "12": {"stimulus": 32, "trial": 12, "rt": 1007, "correctcat": 1, "response": 1}, "15": {"stimulus": 71, "trial": 15, "rt": 1075, "correctcat": 0, "response": 0}, "14": {"stimulus": 30, "trial": 14, "rt": 1598, "correctcat": 1, "response": 1}, "17": {"stimulus": 30, "trial": 17, "rt": 1186, "correctcat": 1, "response": 1}, "16": {"stimulus": 71, "trial": 16, "rt": 1923, "correctcat": 0, "response": 0}, "19": {"stimulus": 8, "trial": 19, "rt": 1244, "correctcat": 0, "response": 0}, "18": {"stimulus": 80, "trial": 18, "rt": 1260, "correctcat": 0, "response": 0}, "31": {"stimulus": 80, "trial": 31, "rt": 1360, "correctcat": 0, "response": 0}, "30": {"stimulus": 8, "trial": 30, "rt": 5014, "correctcat": 0, "response": 0}}, "experiment": {"Paradigm": "TACL", "Stimuli": "Size-Color Squares", "Experiment": "Assigning-Generated-Categories"}, "goodness": {"1": {"stimulus": 48, "trial": 1, "categoryRate": "NA", "rt": 7158, "rating": 9}, "0": {"stimulus": 80, "trial": 0, "categoryRate": "NA", "rt": 8115, "rating": 7}, "3": {"stimulus": 30, "trial": 3, "categoryRate": "NA", "rt": 2039, "rating": 7}, "2": {"stimulus": 32, "trial": 2, "categoryRate": "NA", "rt": 5504, "rating": 4}, "5": {"stimulus": 71, "trial": 5, "categoryRate": "NA", "rt": 3236, "rating": 7}, "4": {"stimulus": 17, "trial": 4, "categoryRate": "NA", "rt": 2860, "rating": 7}, "7": {"stimulus": 50, "trial": 7, "categoryRate": "NA", "rt": 5007, "rating": 9}, "6": {"stimulus": 8, "trial": 6, "categoryRate": "NA", "rt": 2091, "rating": 6}, "9": {"stimulus": -1, "trial": 9, "categoryRate": "Alpha", "rt": 2947, "rating": 9}, "8": {"stimulus": -1, "trial": 8, "categoryRate": "Beta", "rt": 8770, "rating": 8}}, "submit": {"timeTotal": 246438, "age": "30", "comments": "", "sex": "male"}}