{"info": {"finish": 1521067792959, "participant": 38, "exposed": true, "stimuli": [12, 14, 30, 32, 72, 0, 8, 62], "lab": false, "pptmatch": 38, "start": 1521066870760, "catflip": true, "categories": [1, 1, 1, 1, 0, 0, 0, 0], "counterbalance": 5, "condition": "Bottom", "browser": {"platform": "Win32", "userAgent": "Mozilla/5.0 (Windows NT 10.0; Win64; x64) AppleWebKit/537.36 (KHTML, like Gecko) Chrome/64.0.3282.186 Safari/537.36"}}, "assignment": {"24": {"stimulus": 72, "trial": 24, "rt": 29838, "correctcat": 0, "response": 1}, "25": {"stimulus": 8, "trial": 25, "rt": 19903, "correctcat": 0, "response": 0}, "26": {"stimulus": 62, "trial": 26, "rt": 7328, "correctcat": 0, "response": 0}, "27": {"stimulus": 14, "trial": 27, "rt": 14068, "correctcat": 1, "response": 1}, "20": {"stimulus": 12, "trial": 20, "rt": 1303, "correctcat": 1, "response": 0}, "21": {"stimulus": 8, "trial": 21, "rt": 47910, "correctcat": 0, "response": 1}, "22": {"stimulus": 0, "trial": 22, "rt": 24510, "correctcat": 0, "response": 1}, "23": {"stimulus": 62, "trial": 23, "rt": 32216, "correctcat": 0, "response": 0}, "28": {"stimulus": 32, "trial": 28, "rt": 7792, "correctcat": 1, "response": 1}, "29": {"stimulus": 0, "trial": 29, "rt": 10487, "correctcat": 0, "response": 1}, "1": {"stimulus": 32, "trial": 1, "rt": 1008, "correctcat": 1, "response": 1}, "0": {"stimulus": 12, "trial": 0, "rt": 2209, "correctcat": 1, "response": 0}, "3": {"stimulus": 0, "trial": 3, "rt": 3093, "correctcat": 0, "response": 1}, "2": {"stimulus": 8, "trial": 2, "rt": 1351, "correctcat": 0, "response": 0}, "5": {"stimulus": 62, "trial": 5, "rt": 5223, "correctcat": 0, "response": 0}, "4": {"stimulus": 14, "trial": 4, "rt": 2286, "correctcat": 1, "response": 0}, "7": {"stimulus": 72, "trial": 7, "rt": 1175, "correctcat": 0, "response": 1}, "6": {"stimulus": 30, "trial": 6, "rt": 3481, "correctcat": 1, "response": 1}, "9": {"stimulus": 0, "trial": 9, "rt": 5224, "correctcat": 0, "response": 1}, "8": {"stimulus": 32, "trial": 8, "rt": 4606, "correctcat": 1, "response": 0}, "11": {"stimulus": 12, "trial": 11, "rt": 7158, "correctcat": 1, "response": 1}, "10": {"stimulus": 8, "trial": 10, "rt": 10702, "correctcat": 0, "response": 1}, "13": {"stimulus": 14, "trial": 13, "rt": 11075, "correctcat": 1, "response": 1}, "12": {"stimulus": 72, "trial": 12, "rt": 26999, "correctcat": 0, "response": 1}, "15": {"stimulus": 62, "trial": 15, "rt": 9255, "correctcat": 0, "response": 0}, "14": {"stimulus": 30, "trial": 14, "rt": 22710, "correctcat": 1, "response": 1}, "17": {"stimulus": 32, "trial": 17, "rt": 17673, "correctcat": 1, "response": 1}, "16": {"stimulus": 72, "trial": 16, "rt": 12200, "correctcat": 0, "response": 1}, "19": {"stimulus": 14, "trial": 19, "rt": 9672, "correctcat": 1, "response": 1}, "18": {"stimulus": 30, "trial": 18, "rt": 66180, "correctcat": 1, "response": 0}, "31": {"stimulus": 30, "trial": 31, "rt": 3478, "correctcat": 1, "response": 1}, "30": {"stimulus": 12, "trial": 30, "rt": 22560, "correctcat": 1, "response": 1}}, "experiment": {"Paradigm": "TACL", "Stimuli": "Size-Color Squares", "Experiment": "Assigning-Generated-Categories"}, "goodness": {"1": {"stimulus": 62, "trial": 1, "categoryRate": "NA", "rt": 1877, "rating": 3}, "0": {"stimulus": 8, "trial": 0, "categoryRate": "NA", "rt": 3724, "rating": 4}, "3": {"stimulus": 30, "trial": 3, "categoryRate": "NA", "rt": 1237, "rating": 2}, "2": {"stimulus": 0, "trial": 2, "categoryRate": "NA", "rt": 1558, "rating": 2}, "5": {"stimulus": 32, "trial": 5, "categoryRate": "NA", "rt": 1120, "rating": 2}, "4": {"stimulus": 72, "trial": 4, "categoryRate": "NA", "rt": 1263, "rating": 2}, "7": {"stimulus": 12, "trial": 7, "categoryRate": "NA", "rt": 1581, "rating": 2}, "6": {"stimulus": 14, "trial": 6, "categoryRate": "NA", "rt": 1366, "rating": 1}, "9": {"stimulus": -1, "trial": 9, "categoryRate": "Alpha", "rt": 1244, "rating": 3}, "8": {"stimulus": -1, "trial": 8, "categoryRate": "Beta", "rt": 2886, "rating": 3}}, "submit": {"timeTotal": 922583, "age": "27", "comments": "", "sex": "male"}}