{"info": {"finish": 1521070077154, "participant": 42, "exposed": true, "stimuli": [30, 32, 48, 50, 73, 72, 64, 63], "lab": false, "pptmatch": 42, "start": 1521069891537, "catflip": false, "categories": [0, 0, 0, 0, 1, 1, 1, 1], "counterbalance": 7, "condition": "Middle", "browser": {"platform": "Win32", "userAgent": "Mozilla/5.0 (Windows NT 10.0; Win64; x64) AppleWebKit/537.36 (KHTML, like Gecko) Chrome/65.0.3325.162 Safari/537.36"}}, "assignment": {"24": {"stimulus": 48, "trial": 24, "rt": 973, "correctcat": 0, "response": 0}, "25": {"stimulus": 32, "trial": 25, "rt": 923, "correctcat": 0, "response": 0}, "26": {"stimulus": 30, "trial": 26, "rt": 840, "correctcat": 0, "response": 0}, "27": {"stimulus": 50, "trial": 27, "rt": 686, "correctcat": 0, "response": 0}, "20": {"stimulus": 32, "trial": 20, "rt": 1036, "correctcat": 0, "response": 0}, "21": {"stimulus": 64, "trial": 21, "rt": 1119, "correctcat": 1, "response": 0}, "22": {"stimulus": 72, "trial": 22, "rt": 1141, "correctcat": 1, "response": 1}, "23": {"stimulus": 50, "trial": 23, "rt": 953, "correctcat": 0, "response": 0}, "28": {"stimulus": 72, "trial": 28, "rt": 1211, "correctcat": 1, "response": 1}, "29": {"stimulus": 63, "trial": 29, "rt": 1482, "correctcat": 1, "response": 1}, "1": {"stimulus": 72, "trial": 1, "rt": 1261, "correctcat": 1, "response": 1}, "0": {"stimulus": 50, "trial": 0, "rt": 3259, "correctcat": 0, "response": 1}, "3": {"stimulus": 30, "trial": 3, "rt": 1273, "correctcat": 0, "response": 0}, "2": {"stimulus": 63, "trial": 2, "rt": 1356, "correctcat": 1, "response": 0}, "5": {"stimulus": 48, "trial": 5, "rt": 1291, "correctcat": 0, "response": 0}, "4": {"stimulus": 73, "trial": 4, "rt": 1108, "correctcat": 1, "response": 1}, "7": {"stimulus": 32, "trial": 7, "rt": 1065, "correctcat": 0, "response": 0}, "6": {"stimulus": 64, "trial": 6, "rt": 1131, "correctcat": 1, "response": 1}, "9": {"stimulus": 72, "trial": 9, "rt": 1085, "correctcat": 1, "response": 1}, "8": {"stimulus": 50, "trial": 8, "rt": 967, "correctcat": 0, "response": 0}, "11": {"stimulus": 63, "trial": 11, "rt": 1069, "correctcat": 1, "response": 1}, "10": {"stimulus": 48, "trial": 10, "rt": 933, "correctcat": 0, "response": 0}, "13": {"stimulus": 73, "trial": 13, "rt": 1038, "correctcat": 1, "response": 1}, "12": {"stimulus": 64, "trial": 12, "rt": 1066, "correctcat": 1, "response": 1}, "15": {"stimulus": 30, "trial": 15, "rt": 994, "correctcat": 0, "response": 0}, "14": {"stimulus": 32, "trial": 14, "rt": 1036, "correctcat": 0, "response": 0}, "17": {"stimulus": 63, "trial": 17, "rt": 1038, "correctcat": 1, "response": 1}, "16": {"stimulus": 30, "trial": 16, "rt": 985, "correctcat": 0, "response": 0}, "19": {"stimulus": 73, "trial": 19, "rt": 1233, "correctcat": 1, "response": 1}, "18": {"stimulus": 48, "trial": 18, "rt": 1087, "correctcat": 0, "response": 0}, "31": {"stimulus": 64, "trial": 31, "rt": 645, "correctcat": 1, "response": 1}, "30": {"stimulus": 73, "trial": 30, "rt": 642, "correctcat": 1, "response": 1}}, "experiment": {"Paradigm": "TACL", "Stimuli": "Size-Color Squares", "Experiment": "Assigning-Generated-Categories"}, "goodness": {"1": {"stimulus": 50, "trial": 1, "categoryRate": "NA", "rt": 2517, "rating": 8}, "0": {"stimulus": 64, "trial": 0, "categoryRate": "NA", "rt": 6713, "rating": 7}, "3": {"stimulus": 48, "trial": 3, "categoryRate": "NA", "rt": 2354, "rating": 9}, "2": {"stimulus": 63, "trial": 2, "categoryRate": "NA", "rt": 2023, "rating": 9}, "5": {"stimulus": 72, "trial": 5, "categoryRate": "NA", "rt": 1933, "rating": 9}, "4": {"stimulus": 30, "trial": 4, "categoryRate": "NA", "rt": 2022, "rating": 9}, "7": {"stimulus": 32, "trial": 7, "categoryRate": "NA", "rt": 1922, "rating": 9}, "6": {"stimulus": 73, "trial": 6, "categoryRate": "NA", "rt": 1881, "rating": 9}, "9": {"stimulus": -1, "trial": 9, "categoryRate": "Beta", "rt": 4311, "rating": 9}, "8": {"stimulus": -1, "trial": 8, "categoryRate": "Alpha", "rt": 9405, "rating": 9}}, "submit": {"timeTotal": 187908, "age": "32", "comments": "It was kind of fun. I'd do it again. Thanks for paying well.", "sex": "nb"}}