{"info": {"finish": 1521071160084, "participant": 49, "exposed": true, "stimuli": [12, 14, 30, 32, 71, 80, 63, 72], "lab": false, "pptmatch": 49, "start": 1521070729286, "catflip": true, "categories": [1, 1, 1, 1, 0, 0, 0, 0], "counterbalance": 6, "condition": "Bottom", "browser": {"platform": "Win32", "userAgent": "Mozilla/5.0 (Windows NT 10.0; Win64; x64) AppleWebKit/537.36 (KHTML, like Gecko) Chrome/65.0.3325.162 Safari/537.36"}}, "assignment": {"24": {"stimulus": 63, "trial": 24, "rt": 966, "correctcat": 0, "response": 0}, "25": {"stimulus": 72, "trial": 25, "rt": 993, "correctcat": 0, "response": 0}, "26": {"stimulus": 80, "trial": 26, "rt": 1196, "correctcat": 0, "response": 0}, "27": {"stimulus": 71, "trial": 27, "rt": 2486, "correctcat": 0, "response": 0}, "20": {"stimulus": 80, "trial": 20, "rt": 1596, "correctcat": 0, "response": 0}, "21": {"stimulus": 14, "trial": 21, "rt": 1100, "correctcat": 1, "response": 1}, "22": {"stimulus": 71, "trial": 22, "rt": 1326, "correctcat": 0, "response": 0}, "23": {"stimulus": 12, "trial": 23, "rt": 1013, "correctcat": 1, "response": 1}, "28": {"stimulus": 30, "trial": 28, "rt": 1084, "correctcat": 1, "response": 1}, "29": {"stimulus": 32, "trial": 29, "rt": 1267, "correctcat": 1, "response": 1}, "1": {"stimulus": 72, "trial": 1, "rt": 2195, "correctcat": 0, "response": 1}, "0": {"stimulus": 12, "trial": 0, "rt": 3614, "correctcat": 1, "response": 0}, "3": {"stimulus": 30, "trial": 3, "rt": 1132, "correctcat": 1, "response": 1}, "2": {"stimulus": 32, "trial": 2, "rt": 1171, "correctcat": 1, "response": 1}, "5": {"stimulus": 80, "trial": 5, "rt": 1888, "correctcat": 0, "response": 0}, "4": {"stimulus": 63, "trial": 4, "rt": 4203, "correctcat": 0, "response": 0}, "7": {"stimulus": 71, "trial": 7, "rt": 1241, "correctcat": 0, "response": 0}, "6": {"stimulus": 14, "trial": 6, "rt": 1253, "correctcat": 1, "response": 1}, "9": {"stimulus": 14, "trial": 9, "rt": 1029, "correctcat": 1, "response": 1}, "8": {"stimulus": 32, "trial": 8, "rt": 1091, "correctcat": 1, "response": 1}, "11": {"stimulus": 63, "trial": 11, "rt": 1189, "correctcat": 0, "response": 0}, "10": {"stimulus": 71, "trial": 10, "rt": 1181, "correctcat": 0, "response": 0}, "13": {"stimulus": 80, "trial": 13, "rt": 2005, "correctcat": 0, "response": 0}, "12": {"stimulus": 12, "trial": 12, "rt": 1403, "correctcat": 1, "response": 1}, "15": {"stimulus": 30, "trial": 15, "rt": 1181, "correctcat": 1, "response": 1}, "14": {"stimulus": 72, "trial": 14, "rt": 1467, "correctcat": 0, "response": 0}, "17": {"stimulus": 63, "trial": 17, "rt": 1236, "correctcat": 0, "response": 0}, "16": {"stimulus": 30, "trial": 16, "rt": 1203, "correctcat": 1, "response": 1}, "19": {"stimulus": 72, "trial": 19, "rt": 1028, "correctcat": 0, "response": 0}, "18": {"stimulus": 32, "trial": 18, "rt": 1246, "correctcat": 1, "response": 1}, "31": {"stimulus": 12, "trial": 31, "rt": 996, "correctcat": 1, "response": 1}, "30": {"stimulus": 14, "trial": 30, "rt": 990, "correctcat": 1, "response": 1}}, "experiment": {"Paradigm": "TACL", "Stimuli": "Size-Color Squares", "Experiment": "Assigning-Generated-Categories"}, "goodness": {"1": {"stimulus": 30, "trial": 1, "categoryRate": "NA", "rt": 7074, "rating": 7}, "0": {"stimulus": 32, "trial": 0, "categoryRate": "NA", "rt": 11023, "rating": 8}, "3": {"stimulus": 14, "trial": 3, "categoryRate": "NA", "rt": 5083, "rating": 6}, "2": {"stimulus": 72, "trial": 2, "categoryRate": "NA", "rt": 6004, "rating": 10}, "5": {"stimulus": 12, "trial": 5, "categoryRate": "NA", "rt": 2213, "rating": 8}, "4": {"stimulus": 63, "trial": 4, "categoryRate": "NA", "rt": 2427, "rating": 10}, "7": {"stimulus": 80, "trial": 7, "categoryRate": "NA", "rt": 2418, "rating": 4}, "6": {"stimulus": 71, "trial": 6, "categoryRate": "NA", "rt": 2731, "rating": 4}, "9": {"stimulus": -1, "trial": 9, "categoryRate": "Alpha", "rt": 6113, "rating": 7}, "8": {"stimulus": -1, "trial": 8, "categoryRate": "Beta", "rt": 6970, "rating": 9}}, "submit": {"timeTotal": 431051, "age": "38", "comments": "This was a fun experiment!", "sex": "female"}}