{"info": {"finish": 1520921841005, "participant": 5, "exposed": true, "stimuli": [12, 14, 30, 32, 80, 0, 72, 16], "lab": false, "pptmatch": 5, "start": 1520921505100, "catflip": false, "categories": [0, 0, 0, 0, 1, 1, 1, 1], "counterbalance": 4, "condition": "Bottom", "browser": {"platform": "Win32", "userAgent": "Mozilla/5.0 (Windows NT 10.0; Win64; x64) AppleWebKit/537.36 (KHTML, like Gecko) Chrome/64.0.3282.186 Safari/537.36"}}, "assignment": {"24": {"stimulus": 72, "trial": 24, "rt": 1310, "correctcat": 1, "response": 1}, "25": {"stimulus": 16, "trial": 25, "rt": 4127, "correctcat": 1, "response": 0}, "26": {"stimulus": 0, "trial": 26, "rt": 2718, "correctcat": 1, "response": 1}, "27": {"stimulus": 80, "trial": 27, "rt": 2728, "correctcat": 1, "response": 1}, "20": {"stimulus": 16, "trial": 20, "rt": 1305, "correctcat": 1, "response": 0}, "21": {"stimulus": 32, "trial": 21, "rt": 2374, "correctcat": 0, "response": 0}, "22": {"stimulus": 0, "trial": 22, "rt": 5952, "correctcat": 1, "response": 1}, "23": {"stimulus": 12, "trial": 23, "rt": 6947, "correctcat": 0, "response": 0}, "28": {"stimulus": 12, "trial": 28, "rt": 3428, "correctcat": 0, "response": 0}, "29": {"stimulus": 30, "trial": 29, "rt": 2038, "correctcat": 0, "response": 1}, "1": {"stimulus": 14, "trial": 1, "rt": 2468, "correctcat": 0, "response": 1}, "0": {"stimulus": 0, "trial": 0, "rt": 6120, "correctcat": 1, "response": 0}, "3": {"stimulus": 16, "trial": 3, "rt": 2757, "correctcat": 1, "response": 0}, "2": {"stimulus": 32, "trial": 2, "rt": 4867, "correctcat": 0, "response": 1}, "5": {"stimulus": 72, "trial": 5, "rt": 1601, "correctcat": 1, "response": 0}, "4": {"stimulus": 30, "trial": 4, "rt": 2695, "correctcat": 0, "response": 1}, "7": {"stimulus": 80, "trial": 7, "rt": 1006, "correctcat": 1, "response": 1}, "6": {"stimulus": 12, "trial": 6, "rt": 2411, "correctcat": 0, "response": 0}, "9": {"stimulus": 80, "trial": 9, "rt": 2428, "correctcat": 1, "response": 1}, "8": {"stimulus": 0, "trial": 8, "rt": 2185, "correctcat": 1, "response": 0}, "11": {"stimulus": 14, "trial": 11, "rt": 5264, "correctcat": 0, "response": 0}, "10": {"stimulus": 16, "trial": 10, "rt": 2462, "correctcat": 1, "response": 0}, "13": {"stimulus": 30, "trial": 13, "rt": 2084, "correctcat": 0, "response": 1}, "12": {"stimulus": 32, "trial": 12, "rt": 4441, "correctcat": 0, "response": 1}, "15": {"stimulus": 72, "trial": 15, "rt": 3021, "correctcat": 1, "response": 1}, "14": {"stimulus": 12, "trial": 14, "rt": 1433, "correctcat": 0, "response": 0}, "17": {"stimulus": 30, "trial": 17, "rt": 1729, "correctcat": 0, "response": 0}, "16": {"stimulus": 80, "trial": 16, "rt": 1253, "correctcat": 1, "response": 0}, "19": {"stimulus": 14, "trial": 19, "rt": 3780, "correctcat": 0, "response": 1}, "18": {"stimulus": 72, "trial": 18, "rt": 1284, "correctcat": 1, "response": 1}, "31": {"stimulus": 14, "trial": 31, "rt": 2811, "correctcat": 0, "response": 0}, "30": {"stimulus": 32, "trial": 30, "rt": 1115, "correctcat": 0, "response": 1}}, "experiment": {"Paradigm": "TACL", "Stimuli": "Size-Color Squares", "Experiment": "Assigning-Generated-Categories"}, "goodness": {"1": {"stimulus": 30, "trial": 1, "categoryRate": "NA", "rt": 7433, "rating": 3}, "0": {"stimulus": 14, "trial": 0, "categoryRate": "NA", "rt": 23686, "rating": 2}, "3": {"stimulus": 32, "trial": 3, "categoryRate": "NA", "rt": 3038, "rating": 3}, "2": {"stimulus": 12, "trial": 2, "categoryRate": "NA", "rt": 3412, "rating": 3}, "5": {"stimulus": 0, "trial": 5, "categoryRate": "NA", "rt": 2318, "rating": 10}, "4": {"stimulus": 16, "trial": 4, "categoryRate": "NA", "rt": 3757, "rating": 2}, "7": {"stimulus": 80, "trial": 7, "categoryRate": "NA", "rt": 3468, "rating": 10}, "6": {"stimulus": 72, "trial": 6, "categoryRate": "NA", "rt": 2252, "rating": 10}, "9": {"stimulus": -1, "trial": 9, "categoryRate": "Beta", "rt": 5620, "rating": 8}, "8": {"stimulus": -1, "trial": 8, "categoryRate": "Alpha", "rt": 13270, "rating": 2}}, "submit": {}}