{"info": {"finish": 1521077969097, "participant": 57, "exposed": true, "stimuli": [12, 14, 30, 32, 45, 19, 0, 10], "lab": false, "pptmatch": 57, "start": 1521077719934, "catflip": false, "categories": [0, 0, 0, 0, 1, 1, 1, 1], "counterbalance": 4, "condition": "Bottom", "browser": {"platform": "MacIntel", "userAgent": "Mozilla/5.0 (Macintosh; Intel Mac OS X 10_11_6) AppleWebKit/537.36 (KHTML, like Gecko) Chrome/64.0.3282.186 Safari/537.36"}}, "assignment": {"24": {"stimulus": 12, "trial": 24, "rt": 850, "correctcat": 0, "response": 0}, "25": {"stimulus": 19, "trial": 25, "rt": 1660, "correctcat": 1, "response": 1}, "26": {"stimulus": 32, "trial": 26, "rt": 914, "correctcat": 0, "response": 0}, "27": {"stimulus": 45, "trial": 27, "rt": 979, "correctcat": 1, "response": 1}, "20": {"stimulus": 14, "trial": 20, "rt": 999, "correctcat": 0, "response": 0}, "21": {"stimulus": 32, "trial": 21, "rt": 962, "correctcat": 0, "response": 0}, "22": {"stimulus": 0, "trial": 22, "rt": 2324, "correctcat": 1, "response": 1}, "23": {"stimulus": 12, "trial": 23, "rt": 834, "correctcat": 0, "response": 0}, "28": {"stimulus": 0, "trial": 28, "rt": 753, "correctcat": 1, "response": 1}, "29": {"stimulus": 30, "trial": 29, "rt": 1044, "correctcat": 0, "response": 0}, "1": {"stimulus": 45, "trial": 1, "rt": 3090, "correctcat": 1, "response": 1}, "0": {"stimulus": 0, "trial": 0, "rt": 3245, "correctcat": 1, "response": 0}, "3": {"stimulus": 32, "trial": 3, "rt": 1562, "correctcat": 0, "response": 0}, "2": {"stimulus": 10, "trial": 2, "rt": 1276, "correctcat": 1, "response": 1}, "5": {"stimulus": 19, "trial": 5, "rt": 1046, "correctcat": 1, "response": 1}, "4": {"stimulus": 30, "trial": 4, "rt": 1569, "correctcat": 0, "response": 1}, "7": {"stimulus": 14, "trial": 7, "rt": 922, "correctcat": 0, "response": 0}, "6": {"stimulus": 12, "trial": 6, "rt": 918, "correctcat": 0, "response": 0}, "9": {"stimulus": 30, "trial": 9, "rt": 960, "correctcat": 0, "response": 0}, "8": {"stimulus": 12, "trial": 8, "rt": 1039, "correctcat": 0, "response": 0}, "11": {"stimulus": 19, "trial": 11, "rt": 3286, "correctcat": 1, "response": 1}, "10": {"stimulus": 14, "trial": 10, "rt": 1000, "correctcat": 0, "response": 0}, "13": {"stimulus": 32, "trial": 13, "rt": 875, "correctcat": 0, "response": 0}, "12": {"stimulus": 45, "trial": 12, "rt": 1019, "correctcat": 1, "response": 1}, "15": {"stimulus": 0, "trial": 15, "rt": 852, "correctcat": 1, "response": 1}, "14": {"stimulus": 10, "trial": 14, "rt": 877, "correctcat": 1, "response": 1}, "17": {"stimulus": 10, "trial": 17, "rt": 899, "correctcat": 1, "response": 1}, "16": {"stimulus": 45, "trial": 16, "rt": 1254, "correctcat": 1, "response": 1}, "19": {"stimulus": 30, "trial": 19, "rt": 1484, "correctcat": 0, "response": 0}, "18": {"stimulus": 19, "trial": 18, "rt": 847, "correctcat": 1, "response": 1}, "31": {"stimulus": 14, "trial": 31, "rt": 960, "correctcat": 0, "response": 0}, "30": {"stimulus": 10, "trial": 30, "rt": 791, "correctcat": 1, "response": 1}}, "experiment": {"Paradigm": "TACL", "Stimuli": "Size-Color Squares", "Experiment": "Assigning-Generated-Categories"}, "goodness": {"1": {"stimulus": 45, "trial": 1, "categoryRate": "NA", "rt": 7802, "rating": 6}, "0": {"stimulus": 14, "trial": 0, "categoryRate": "NA", "rt": 13208, "rating": 10}, "3": {"stimulus": 32, "trial": 3, "categoryRate": "NA", "rt": 6291, "rating": 10}, "2": {"stimulus": 12, "trial": 2, "categoryRate": "NA", "rt": 8427, "rating": 8}, "5": {"stimulus": 0, "trial": 5, "categoryRate": "NA", "rt": 2351, "rating": 10}, "4": {"stimulus": 19, "trial": 4, "categoryRate": "NA", "rt": 1993, "rating": 10}, "7": {"stimulus": 30, "trial": 7, "categoryRate": "NA", "rt": 2648, "rating": 7}, "6": {"stimulus": 10, "trial": 6, "categoryRate": "NA", "rt": 6025, "rating": 4}, "9": {"stimulus": -1, "trial": 9, "categoryRate": "Alpha", "rt": 16325, "rating": 4}, "8": {"stimulus": -1, "trial": 8, "categoryRate": "Beta", "rt": 18318, "rating": 8}}, "submit": {"timeTotal": 249412, "age": "23", "comments": "The last part was a bit confusing, I apologize if I didn't do it right", "sex": "Male"}}