{"info": {"finish": 1521078026578, "participant": 59, "exposed": true, "stimuli": [30, 32, 48, 50, 8, 0, 9, 17], "lab": false, "pptmatch": 59, "start": 1521077740935, "catflip": false, "categories": [0, 0, 0, 0, 1, 1, 1, 1], "counterbalance": 7, "condition": "Middle", "browser": {"platform": "Win32", "userAgent": "Mozilla/5.0 (Windows NT 6.3; Win64; x64) AppleWebKit/537.36 (KHTML, like Gecko) Chrome/64.0.3282.186 Safari/537.36"}}, "assignment": {"24": {"stimulus": 48, "trial": 24, "rt": 1102, "correctcat": 0, "response": 0}, "25": {"stimulus": 50, "trial": 25, "rt": 861, "correctcat": 0, "response": 0}, "26": {"stimulus": 17, "trial": 26, "rt": 1122, "correctcat": 1, "response": 1}, "27": {"stimulus": 8, "trial": 27, "rt": 737, "correctcat": 1, "response": 1}, "20": {"stimulus": 0, "trial": 20, "rt": 822, "correctcat": 1, "response": 1}, "21": {"stimulus": 30, "trial": 21, "rt": 1223, "correctcat": 0, "response": 0}, "22": {"stimulus": 48, "trial": 22, "rt": 906, "correctcat": 0, "response": 0}, "23": {"stimulus": 8, "trial": 23, "rt": 1181, "correctcat": 1, "response": 1}, "28": {"stimulus": 32, "trial": 28, "rt": 1232, "correctcat": 0, "response": 0}, "29": {"stimulus": 0, "trial": 29, "rt": 1224, "correctcat": 1, "response": 1}, "1": {"stimulus": 48, "trial": 1, "rt": 2216, "correctcat": 0, "response": 0}, "0": {"stimulus": 30, "trial": 0, "rt": 5062, "correctcat": 0, "response": 0}, "3": {"stimulus": 0, "trial": 3, "rt": 1180, "correctcat": 1, "response": 1}, "2": {"stimulus": 32, "trial": 2, "rt": 4040, "correctcat": 0, "response": 0}, "5": {"stimulus": 50, "trial": 5, "rt": 1001, "correctcat": 0, "response": 0}, "4": {"stimulus": 17, "trial": 4, "rt": 1063, "correctcat": 1, "response": 0}, "7": {"stimulus": 8, "trial": 7, "rt": 1325, "correctcat": 1, "response": 1}, "6": {"stimulus": 9, "trial": 6, "rt": 3112, "correctcat": 1, "response": 1}, "9": {"stimulus": 30, "trial": 9, "rt": 61477, "correctcat": 0, "response": 0}, "8": {"stimulus": 8, "trial": 8, "rt": 3629, "correctcat": 1, "response": 1}, "11": {"stimulus": 9, "trial": 11, "rt": 1708, "correctcat": 1, "response": 1}, "10": {"stimulus": 48, "trial": 10, "rt": 1274, "correctcat": 0, "response": 0}, "13": {"stimulus": 50, "trial": 13, "rt": 1296, "correctcat": 0, "response": 0}, "12": {"stimulus": 0, "trial": 12, "rt": 29892, "correctcat": 1, "response": 1}, "15": {"stimulus": 32, "trial": 15, "rt": 1295, "correctcat": 0, "response": 0}, "14": {"stimulus": 17, "trial": 14, "rt": 1506, "correctcat": 1, "response": 1}, "17": {"stimulus": 17, "trial": 17, "rt": 1453, "correctcat": 1, "response": 1}, "16": {"stimulus": 50, "trial": 16, "rt": 904, "correctcat": 0, "response": 0}, "19": {"stimulus": 9, "trial": 19, "rt": 1381, "correctcat": 1, "response": 1}, "18": {"stimulus": 32, "trial": 18, "rt": 1945, "correctcat": 0, "response": 0}, "31": {"stimulus": 9, "trial": 31, "rt": 1226, "correctcat": 1, "response": 1}, "30": {"stimulus": 30, "trial": 30, "rt": 1407, "correctcat": 0, "response": 0}}, "experiment": {"Paradigm": "TACL", "Stimuli": "Size-Color Squares", "Experiment": "Assigning-Generated-Categories"}, "goodness": {"1": {"stimulus": 0, "trial": 1, "categoryRate": "NA", "rt": 2057, "rating": 4}, "0": {"stimulus": 48, "trial": 0, "categoryRate": "NA", "rt": 6460, "rating": 6}, "3": {"stimulus": 8, "trial": 3, "categoryRate": "NA", "rt": 3223, "rating": 9}, "2": {"stimulus": 9, "trial": 2, "categoryRate": "NA", "rt": 6499, "rating": 6}, "5": {"stimulus": 30, "trial": 5, "categoryRate": "NA", "rt": 1766, "rating": 3}, "4": {"stimulus": 17, "trial": 4, "categoryRate": "NA", "rt": 1909, "rating": 7}, "7": {"stimulus": 32, "trial": 7, "categoryRate": "NA", "rt": 1450, "rating": 3}, "6": {"stimulus": 50, "trial": 6, "categoryRate": "NA", "rt": 2153, "rating": 7}, "9": {"stimulus": -1, "trial": 9, "categoryRate": "Alpha", "rt": 1581, "rating": 4}, "8": {"stimulus": -1, "trial": 8, "categoryRate": "Beta", "rt": 3490, "rating": 8}}, "submit": {"timeTotal": 285853, "age": "30", "comments": "", "sex": "male"}}