{"info": {"finish": 1520922694397, "participant": 6, "exposed": true, "stimuli": [30, 32, 48, 50, 80, 54, 25, 0], "lab": false, "pptmatch": 6, "start": 1520921507252, "catflip": true, "categories": [1, 1, 1, 1, 0, 0, 0, 0], "counterbalance": 7, "condition": "Middle", "browser": {"platform": "Win64", "userAgent": "Mozilla/5.0 (Windows NT 10.0; Win64; x64; rv:58.0) Gecko/20100101 Firefox/58.0"}}, "assignment": {"24": {"stimulus": 0, "trial": 24, "rt": 863, "correctcat": 0, "response": 0}, "25": {"stimulus": 30, "trial": 25, "rt": 966, "correctcat": 1, "response": 1}, "26": {"stimulus": 25, "trial": 26, "rt": 925, "correctcat": 0, "response": 0}, "27": {"stimulus": 80, "trial": 27, "rt": 1526, "correctcat": 0, "response": 0}, "20": {"stimulus": 25, "trial": 20, "rt": 12654, "correctcat": 0, "response": 0}, "21": {"stimulus": 32, "trial": 21, "rt": 1349, "correctcat": 1, "response": 1}, "22": {"stimulus": 80, "trial": 22, "rt": 1640, "correctcat": 0, "response": 0}, "23": {"stimulus": 48, "trial": 23, "rt": 1387, "correctcat": 1, "response": 1}, "28": {"stimulus": 32, "trial": 28, "rt": 7214, "correctcat": 1, "response": 0}, "29": {"stimulus": 54, "trial": 29, "rt": 935, "correctcat": 0, "response": 0}, "1": {"stimulus": 0, "trial": 1, "rt": 2110, "correctcat": 0, "response": 1}, "0": {"stimulus": 30, "trial": 0, "rt": 1783, "correctcat": 1, "response": 0}, "3": {"stimulus": 80, "trial": 3, "rt": 3564, "correctcat": 0, "response": 0}, "2": {"stimulus": 25, "trial": 2, "rt": 1472, "correctcat": 0, "response": 0}, "5": {"stimulus": 32, "trial": 5, "rt": 758, "correctcat": 1, "response": 0}, "4": {"stimulus": 54, "trial": 4, "rt": 578, "correctcat": 0, "response": 1}, "7": {"stimulus": 48, "trial": 7, "rt": 824, "correctcat": 1, "response": 0}, "6": {"stimulus": 50, "trial": 6, "rt": 1059, "correctcat": 1, "response": 0}, "9": {"stimulus": 80, "trial": 9, "rt": 5662, "correctcat": 0, "response": 0}, "8": {"stimulus": 50, "trial": 8, "rt": 1022, "correctcat": 1, "response": 0}, "11": {"stimulus": 0, "trial": 11, "rt": 1503, "correctcat": 0, "response": 0}, "10": {"stimulus": 30, "trial": 10, "rt": 854, "correctcat": 1, "response": 1}, "13": {"stimulus": 48, "trial": 13, "rt": 1855, "correctcat": 1, "response": 1}, "12": {"stimulus": 54, "trial": 12, "rt": 6046, "correctcat": 0, "response": 0}, "15": {"stimulus": 25, "trial": 15, "rt": 9766, "correctcat": 0, "response": 0}, "14": {"stimulus": 32, "trial": 14, "rt": 3517, "correctcat": 1, "response": 1}, "17": {"stimulus": 0, "trial": 17, "rt": 1910, "correctcat": 0, "response": 0}, "16": {"stimulus": 50, "trial": 16, "rt": 2191, "correctcat": 1, "response": 1}, "19": {"stimulus": 54, "trial": 19, "rt": 1285, "correctcat": 0, "response": 0}, "18": {"stimulus": 30, "trial": 18, "rt": 3143, "correctcat": 1, "response": 1}, "31": {"stimulus": 50, "trial": 31, "rt": 765, "correctcat": 1, "response": 0}, "30": {"stimulus": 48, "trial": 30, "rt": 2782, "correctcat": 1, "response": 1}}, "experiment": {"Paradigm": "TACL", "Stimuli": "Size-Color Squares", "Experiment": "Assigning-Generated-Categories"}, "goodness": {"1": {"stimulus": 50, "trial": 1, "categoryRate": "NA", "rt": 1636, "rating": 6}, "0": {"stimulus": 32, "trial": 0, "categoryRate": "NA", "rt": 3497, "rating": 7}, "3": {"stimulus": 48, "trial": 3, "categoryRate": "NA", "rt": 4182, "rating": 7}, "2": {"stimulus": 25, "trial": 2, "categoryRate": "NA", "rt": 1517, "rating": 9}, "5": {"stimulus": 80, "trial": 5, "categoryRate": "NA", "rt": 1318, "rating": 9}, "4": {"stimulus": 54, "trial": 4, "categoryRate": "NA", "rt": 3141, "rating": 3}, "7": {"stimulus": 30, "trial": 7, "categoryRate": "NA", "rt": 1334, "rating": 8}, "6": {"stimulus": 0, "trial": 6, "categoryRate": "NA", "rt": 1667, "rating": 7}, "9": {"stimulus": -1, "trial": 9, "categoryRate": "Beta", "rt": 2204, "rating": 10}, "8": {"stimulus": -1, "trial": 8, "categoryRate": "Alpha", "rt": 6625, "rating": 10}}, "submit": {}}