{"info": {"finish": 1521078154242, "participant": 62, "exposed": true, "stimuli": [12, 14, 30, 32, 72, 0, 74, 80], "lab": false, "pptmatch": 62, "start": 1521077867002, "catflip": false, "categories": [0, 0, 0, 0, 1, 1, 1, 1], "counterbalance": 3, "condition": "Bottom", "browser": {"platform": "Win32", "userAgent": "Mozilla/5.0 (Windows NT 6.1; Win64; x64) AppleWebKit/537.36 (KHTML, like Gecko) Chrome/65.0.3325.162 Safari/537.36"}}, "assignment": {"24": {"stimulus": 30, "trial": 24, "rt": 1340, "correctcat": 0, "response": 0}, "25": {"stimulus": 0, "trial": 25, "rt": 1532, "correctcat": 1, "response": 1}, "26": {"stimulus": 72, "trial": 26, "rt": 1249, "correctcat": 1, "response": 1}, "27": {"stimulus": 32, "trial": 27, "rt": 1636, "correctcat": 0, "response": 0}, "20": {"stimulus": 0, "trial": 20, "rt": 1835, "correctcat": 1, "response": 1}, "21": {"stimulus": 12, "trial": 21, "rt": 1524, "correctcat": 0, "response": 0}, "22": {"stimulus": 32, "trial": 22, "rt": 5226, "correctcat": 0, "response": 1}, "23": {"stimulus": 30, "trial": 23, "rt": 1148, "correctcat": 0, "response": 0}, "28": {"stimulus": 12, "trial": 28, "rt": 4361, "correctcat": 0, "response": 0}, "29": {"stimulus": 74, "trial": 29, "rt": 1108, "correctcat": 1, "response": 1}, "1": {"stimulus": 72, "trial": 1, "rt": 1306, "correctcat": 1, "response": 0}, "0": {"stimulus": 12, "trial": 0, "rt": 2144, "correctcat": 0, "response": 1}, "3": {"stimulus": 0, "trial": 3, "rt": 1387, "correctcat": 1, "response": 0}, "2": {"stimulus": 14, "trial": 2, "rt": 1628, "correctcat": 0, "response": 0}, "5": {"stimulus": 74, "trial": 5, "rt": 1517, "correctcat": 1, "response": 1}, "4": {"stimulus": 32, "trial": 4, "rt": 1763, "correctcat": 0, "response": 0}, "7": {"stimulus": 80, "trial": 7, "rt": 1692, "correctcat": 1, "response": 1}, "6": {"stimulus": 30, "trial": 6, "rt": 3876, "correctcat": 0, "response": 1}, "9": {"stimulus": 32, "trial": 9, "rt": 1636, "correctcat": 0, "response": 0}, "8": {"stimulus": 12, "trial": 8, "rt": 2282, "correctcat": 0, "response": 0}, "11": {"stimulus": 74, "trial": 11, "rt": 1378, "correctcat": 1, "response": 1}, "10": {"stimulus": 0, "trial": 10, "rt": 1613, "correctcat": 1, "response": 1}, "13": {"stimulus": 72, "trial": 13, "rt": 1039, "correctcat": 1, "response": 1}, "12": {"stimulus": 80, "trial": 12, "rt": 1646, "correctcat": 1, "response": 1}, "15": {"stimulus": 14, "trial": 15, "rt": 3236, "correctcat": 0, "response": 0}, "14": {"stimulus": 30, "trial": 14, "rt": 2004, "correctcat": 0, "response": 0}, "17": {"stimulus": 74, "trial": 17, "rt": 1414, "correctcat": 1, "response": 1}, "16": {"stimulus": 14, "trial": 16, "rt": 1925, "correctcat": 0, "response": 0}, "19": {"stimulus": 72, "trial": 19, "rt": 1601, "correctcat": 1, "response": 1}, "18": {"stimulus": 80, "trial": 18, "rt": 1214, "correctcat": 1, "response": 1}, "31": {"stimulus": 80, "trial": 31, "rt": 1277, "correctcat": 1, "response": 1}, "30": {"stimulus": 14, "trial": 30, "rt": 1410, "correctcat": 0, "response": 0}}, "experiment": {"Paradigm": "TACL", "Stimuli": "Size-Color Squares", "Experiment": "Assigning-Generated-Categories"}, "goodness": {"1": {"stimulus": 0, "trial": 1, "categoryRate": "NA", "rt": 6114, "rating": 0}, "0": {"stimulus": 12, "trial": 0, "categoryRate": "NA", "rt": 16859, "rating": 10}, "3": {"stimulus": 72, "trial": 3, "categoryRate": "NA", "rt": 3203, "rating": 10}, "2": {"stimulus": 30, "trial": 2, "categoryRate": "NA", "rt": 2820, "rating": 10}, "5": {"stimulus": 80, "trial": 5, "categoryRate": "NA", "rt": 2865, "rating": 10}, "4": {"stimulus": 14, "trial": 4, "categoryRate": "NA", "rt": 8476, "rating": 10}, "7": {"stimulus": 74, "trial": 7, "categoryRate": "NA", "rt": 2517, "rating": 10}, "6": {"stimulus": 32, "trial": 6, "categoryRate": "NA", "rt": 2686, "rating": 10}, "9": {"stimulus": -1, "trial": 9, "categoryRate": "Beta", "rt": 5005, "rating": 6}, "8": {"stimulus": -1, "trial": 8, "categoryRate": "Alpha", "rt": 13113, "rating": 8}}, "submit": {"timeTotal": 287530, "age": "48", "comments": "This was fun, I wish I knew what you learned", "sex": "female"}}