{"info": {"finish": 1521080131354, "participant": 65, "exposed": true, "stimuli": [12, 14, 30, 32, 80, 71, 79, 70], "lab": false, "pptmatch": 65, "start": 1521079116001, "catflip": false, "categories": [0, 0, 0, 0, 1, 1, 1, 1], "counterbalance": 6, "condition": "Bottom", "browser": {"platform": "Win32", "userAgent": "Mozilla/5.0 (Windows NT 6.1) AppleWebKit/537.36 (KHTML, like Gecko) Chrome/65.0.3325.162 Safari/537.36"}}, "assignment": {"24": {"stimulus": 32, "trial": 24, "rt": 600, "correctcat": 0, "response": 0}, "25": {"stimulus": 70, "trial": 25, "rt": 915, "correctcat": 1, "response": 1}, "26": {"stimulus": 71, "trial": 26, "rt": 864, "correctcat": 1, "response": 1}, "27": {"stimulus": 80, "trial": 27, "rt": 1001, "correctcat": 1, "response": 1}, "20": {"stimulus": 32, "trial": 20, "rt": 1101, "correctcat": 0, "response": 0}, "21": {"stimulus": 30, "trial": 21, "rt": 1084, "correctcat": 0, "response": 0}, "22": {"stimulus": 71, "trial": 22, "rt": 2593, "correctcat": 1, "response": 1}, "23": {"stimulus": 12, "trial": 23, "rt": 935, "correctcat": 0, "response": 0}, "28": {"stimulus": 12, "trial": 28, "rt": 954, "correctcat": 0, "response": 0}, "29": {"stimulus": 30, "trial": 29, "rt": 851, "correctcat": 0, "response": 0}, "1": {"stimulus": 79, "trial": 1, "rt": 3430, "correctcat": 1, "response": 0}, "0": {"stimulus": 32, "trial": 0, "rt": 3624, "correctcat": 0, "response": 0}, "3": {"stimulus": 14, "trial": 3, "rt": 3294, "correctcat": 0, "response": 0}, "2": {"stimulus": 70, "trial": 2, "rt": 1765, "correctcat": 1, "response": 0}, "5": {"stimulus": 12, "trial": 5, "rt": 1946, "correctcat": 0, "response": 0}, "4": {"stimulus": 71, "trial": 4, "rt": 1200, "correctcat": 1, "response": 1}, "7": {"stimulus": 30, "trial": 7, "rt": 1107, "correctcat": 0, "response": 0}, "6": {"stimulus": 80, "trial": 6, "rt": 848, "correctcat": 1, "response": 1}, "9": {"stimulus": 14, "trial": 9, "rt": 1179, "correctcat": 0, "response": 0}, "8": {"stimulus": 32, "trial": 8, "rt": 1136, "correctcat": 0, "response": 0}, "11": {"stimulus": 70, "trial": 11, "rt": 881, "correctcat": 1, "response": 1}, "10": {"stimulus": 79, "trial": 10, "rt": 950, "correctcat": 1, "response": 1}, "13": {"stimulus": 80, "trial": 13, "rt": 1364, "correctcat": 1, "response": 1}, "12": {"stimulus": 12, "trial": 12, "rt": 1122, "correctcat": 0, "response": 0}, "15": {"stimulus": 71, "trial": 15, "rt": 1004, "correctcat": 1, "response": 1}, "14": {"stimulus": 30, "trial": 14, "rt": 914, "correctcat": 0, "response": 0}, "17": {"stimulus": 70, "trial": 17, "rt": 1252, "correctcat": 1, "response": 1}, "16": {"stimulus": 14, "trial": 16, "rt": 1053, "correctcat": 0, "response": 0}, "19": {"stimulus": 80, "trial": 19, "rt": 673, "correctcat": 1, "response": 1}, "18": {"stimulus": 79, "trial": 18, "rt": 1071, "correctcat": 1, "response": 1}, "31": {"stimulus": 14, "trial": 31, "rt": 1149, "correctcat": 0, "response": 0}, "30": {"stimulus": 79, "trial": 30, "rt": 1178, "correctcat": 1, "response": 1}}, "experiment": {"Paradigm": "TACL", "Stimuli": "Size-Color Squares", "Experiment": "Assigning-Generated-Categories"}, "goodness": {"1": {"stimulus": 14, "trial": 1, "categoryRate": "NA", "rt": 3759, "rating": 10}, "0": {"stimulus": 71, "trial": 0, "categoryRate": "NA", "rt": 8158, "rating": 10}, "3": {"stimulus": 12, "trial": 3, "categoryRate": "NA", "rt": 9935, "rating": 10}, "2": {"stimulus": 80, "trial": 2, "categoryRate": "NA", "rt": 3083, "rating": 10}, "5": {"stimulus": 70, "trial": 5, "categoryRate": "NA", "rt": 6386, "rating": 10}, "4": {"stimulus": 32, "trial": 4, "categoryRate": "NA", "rt": 10601, "rating": 10}, "7": {"stimulus": 79, "trial": 7, "categoryRate": "NA", "rt": 3162, "rating": 10}, "6": {"stimulus": 30, "trial": 6, "categoryRate": "NA", "rt": 3211, "rating": 10}, "9": {"stimulus": -1, "trial": 9, "categoryRate": "Beta", "rt": 9921, "rating": 10}, "8": {"stimulus": -1, "trial": 8, "categoryRate": "Alpha", "rt": 13957, "rating": 10}}, "submit": {"timeTotal": 1015969, "age": "41", "comments": "That was a fun HIT :) Thanks for letting me be a part of your study!", "sex": "female"}}