{"info": {"finish": 1521079598194, "participant": 66, "exposed": true, "stimuli": [30, 32, 48, 50, 66, 39, 44, 4], "lab": false, "pptmatch": 66, "start": 1521079324169, "catflip": true, "categories": [1, 1, 1, 1, 0, 0, 0, 0], "counterbalance": 4, "condition": "Middle", "browser": {"platform": "Win32", "userAgent": "Mozilla/5.0 (Windows NT 10.0; Win64; x64) AppleWebKit/537.36 (KHTML, like Gecko) Chrome/64.0.3282.186 Safari/537.36"}}, "assignment": {"24": {"stimulus": 4, "trial": 24, "rt": 1032, "correctcat": 0, "response": 0}, "25": {"stimulus": 32, "trial": 25, "rt": 974, "correctcat": 1, "response": 1}, "26": {"stimulus": 44, "trial": 26, "rt": 942, "correctcat": 0, "response": 0}, "27": {"stimulus": 39, "trial": 27, "rt": 1074, "correctcat": 0, "response": 0}, "20": {"stimulus": 48, "trial": 20, "rt": 808, "correctcat": 1, "response": 0}, "21": {"stimulus": 66, "trial": 21, "rt": 1033, "correctcat": 0, "response": 0}, "22": {"stimulus": 39, "trial": 22, "rt": 669, "correctcat": 0, "response": 1}, "23": {"stimulus": 44, "trial": 23, "rt": 827, "correctcat": 0, "response": 0}, "28": {"stimulus": 30, "trial": 28, "rt": 1119, "correctcat": 1, "response": 0}, "29": {"stimulus": 50, "trial": 29, "rt": 1170, "correctcat": 1, "response": 0}, "1": {"stimulus": 50, "trial": 1, "rt": 1163, "correctcat": 1, "response": 0}, "0": {"stimulus": 4, "trial": 0, "rt": 4358, "correctcat": 0, "response": 1}, "3": {"stimulus": 32, "trial": 3, "rt": 864, "correctcat": 1, "response": 1}, "2": {"stimulus": 48, "trial": 2, "rt": 2306, "correctcat": 1, "response": 1}, "5": {"stimulus": 66, "trial": 5, "rt": 807, "correctcat": 0, "response": 1}, "4": {"stimulus": 30, "trial": 4, "rt": 780, "correctcat": 1, "response": 1}, "7": {"stimulus": 44, "trial": 7, "rt": 1320, "correctcat": 0, "response": 0}, "6": {"stimulus": 39, "trial": 6, "rt": 1044, "correctcat": 0, "response": 1}, "9": {"stimulus": 30, "trial": 9, "rt": 667, "correctcat": 1, "response": 0}, "8": {"stimulus": 39, "trial": 8, "rt": 692, "correctcat": 0, "response": 0}, "11": {"stimulus": 4, "trial": 11, "rt": 1943, "correctcat": 0, "response": 0}, "10": {"stimulus": 66, "trial": 10, "rt": 2022, "correctcat": 0, "response": 0}, "13": {"stimulus": 32, "trial": 13, "rt": 1102, "correctcat": 1, "response": 0}, "12": {"stimulus": 44, "trial": 12, "rt": 3190, "correctcat": 0, "response": 0}, "15": {"stimulus": 48, "trial": 15, "rt": 817, "correctcat": 1, "response": 1}, "14": {"stimulus": 50, "trial": 14, "rt": 2005, "correctcat": 1, "response": 0}, "17": {"stimulus": 30, "trial": 17, "rt": 1613, "correctcat": 1, "response": 0}, "16": {"stimulus": 4, "trial": 16, "rt": 1355, "correctcat": 0, "response": 0}, "19": {"stimulus": 32, "trial": 19, "rt": 744, "correctcat": 1, "response": 1}, "18": {"stimulus": 50, "trial": 18, "rt": 1433, "correctcat": 1, "response": 0}, "31": {"stimulus": 48, "trial": 31, "rt": 814, "correctcat": 1, "response": 0}, "30": {"stimulus": 66, "trial": 30, "rt": 1002, "correctcat": 0, "response": 1}}, "experiment": {"Paradigm": "TACL", "Stimuli": "Size-Color Squares", "Experiment": "Assigning-Generated-Categories"}, "goodness": {"1": {"stimulus": 30, "trial": 1, "categoryRate": "NA", "rt": 3153, "rating": 6}, "0": {"stimulus": 48, "trial": 0, "categoryRate": "NA", "rt": 6514, "rating": 6}, "3": {"stimulus": 50, "trial": 3, "categoryRate": "NA", "rt": 1605, "rating": 7}, "2": {"stimulus": 66, "trial": 2, "categoryRate": "NA", "rt": 6694, "rating": 9}, "5": {"stimulus": 44, "trial": 5, "categoryRate": "NA", "rt": 1675, "rating": 8}, "4": {"stimulus": 39, "trial": 4, "categoryRate": "NA", "rt": 1299, "rating": 7}, "7": {"stimulus": 32, "trial": 7, "categoryRate": "NA", "rt": 1271, "rating": 8}, "6": {"stimulus": 4, "trial": 6, "categoryRate": "NA", "rt": 1788, "rating": 7}, "9": {"stimulus": -1, "trial": 9, "categoryRate": "Alpha", "rt": 6005, "rating": 5}, "8": {"stimulus": -1, "trial": 8, "categoryRate": "Beta", "rt": 11803, "rating": 7}}, "submit": {"timeTotal": 274425, "age": "49", "comments": "", "sex": "female"}}