{"info": {"finish": 1521082378918, "participant": 68, "exposed": true, "stimuli": [12, 14, 30, 32, 72, 73, 64, 75], "lab": false, "pptmatch": 68, "start": 1521082078346, "catflip": false, "categories": [0, 0, 0, 0, 1, 1, 1, 1], "counterbalance": 7, "condition": "Bottom", "browser": {"platform": "Win32", "userAgent": "Mozilla/5.0 (Windows NT 6.1; Win64; x64) AppleWebKit/537.36 (KHTML, like Gecko) Chrome/64.0.3282.186 Safari/537.36"}}, "assignment": {"24": {"stimulus": 75, "trial": 24, "rt": 8664, "correctcat": 1, "response": 1}, "25": {"stimulus": 64, "trial": 25, "rt": 3131, "correctcat": 1, "response": 1}, "26": {"stimulus": 14, "trial": 26, "rt": 1566, "correctcat": 0, "response": 0}, "27": {"stimulus": 12, "trial": 27, "rt": 5851, "correctcat": 0, "response": 1}, "20": {"stimulus": 14, "trial": 20, "rt": 1724, "correctcat": 0, "response": 0}, "21": {"stimulus": 73, "trial": 21, "rt": 1627, "correctcat": 1, "response": 1}, "22": {"stimulus": 64, "trial": 22, "rt": 1829, "correctcat": 1, "response": 1}, "23": {"stimulus": 72, "trial": 23, "rt": 68077, "correctcat": 1, "response": 1}, "28": {"stimulus": 73, "trial": 28, "rt": 11563, "correctcat": 1, "response": 1}, "29": {"stimulus": 30, "trial": 29, "rt": 1550, "correctcat": 0, "response": 0}, "1": {"stimulus": 12, "trial": 1, "rt": 1657, "correctcat": 0, "response": 1}, "0": {"stimulus": 32, "trial": 0, "rt": 3135, "correctcat": 0, "response": 0}, "3": {"stimulus": 73, "trial": 3, "rt": 1670, "correctcat": 1, "response": 0}, "2": {"stimulus": 30, "trial": 2, "rt": 994, "correctcat": 0, "response": 0}, "5": {"stimulus": 64, "trial": 5, "rt": 1558, "correctcat": 1, "response": 1}, "4": {"stimulus": 14, "trial": 4, "rt": 1594, "correctcat": 0, "response": 0}, "7": {"stimulus": 72, "trial": 7, "rt": 3108, "correctcat": 1, "response": 1}, "6": {"stimulus": 75, "trial": 6, "rt": 1301, "correctcat": 1, "response": 0}, "9": {"stimulus": 73, "trial": 9, "rt": 1830, "correctcat": 1, "response": 1}, "8": {"stimulus": 12, "trial": 8, "rt": 1584, "correctcat": 0, "response": 1}, "11": {"stimulus": 75, "trial": 11, "rt": 1731, "correctcat": 1, "response": 1}, "10": {"stimulus": 32, "trial": 10, "rt": 1398, "correctcat": 0, "response": 0}, "13": {"stimulus": 14, "trial": 13, "rt": 1269, "correctcat": 0, "response": 0}, "12": {"stimulus": 30, "trial": 12, "rt": 1359, "correctcat": 0, "response": 1}, "15": {"stimulus": 72, "trial": 15, "rt": 1580, "correctcat": 1, "response": 1}, "14": {"stimulus": 64, "trial": 14, "rt": 1659, "correctcat": 1, "response": 1}, "17": {"stimulus": 32, "trial": 17, "rt": 1602, "correctcat": 0, "response": 0}, "16": {"stimulus": 75, "trial": 16, "rt": 1856, "correctcat": 1, "response": 1}, "19": {"stimulus": 30, "trial": 19, "rt": 1260, "correctcat": 0, "response": 1}, "18": {"stimulus": 12, "trial": 18, "rt": 2465, "correctcat": 0, "response": 1}, "31": {"stimulus": 72, "trial": 31, "rt": 1491, "correctcat": 1, "response": 1}, "30": {"stimulus": 32, "trial": 30, "rt": 3989, "correctcat": 0, "response": 0}}, "experiment": {"Paradigm": "TACL", "Stimuli": "Size-Color Squares", "Experiment": "Assigning-Generated-Categories"}, "goodness": {"1": {"stimulus": 14, "trial": 1, "categoryRate": "NA", "rt": 6172, "rating": 0}, "0": {"stimulus": 72, "trial": 0, "categoryRate": "NA", "rt": 6937, "rating": 8}, "3": {"stimulus": 30, "trial": 3, "categoryRate": "NA", "rt": 2731, "rating": 3}, "2": {"stimulus": 12, "trial": 2, "categoryRate": "NA", "rt": 3275, "rating": 1}, "5": {"stimulus": 73, "trial": 5, "categoryRate": "NA", "rt": 2869, "rating": 9}, "4": {"stimulus": 75, "trial": 4, "categoryRate": "NA", "rt": 3647, "rating": 7}, "7": {"stimulus": 64, "trial": 7, "categoryRate": "NA", "rt": 4218, "rating": 9}, "6": {"stimulus": 32, "trial": 6, "categoryRate": "NA", "rt": 2636, "rating": 1}, "9": {"stimulus": -1, "trial": 9, "categoryRate": "Beta", "rt": 6020, "rating": 6}, "8": {"stimulus": -1, "trial": 8, "categoryRate": "Alpha", "rt": 4491, "rating": 8}}, "submit": {"timeTotal": 300821, "age": "35", "comments": "", "sex": "MALE"}}