{"info": {"finish": 1521083383535, "participant": 69, "exposed": true, "stimuli": [12, 14, 30, 32, 73, 72, 64, 63], "lab": false, "pptmatch": 69, "start": 1521083066971, "catflip": true, "categories": [1, 1, 1, 1, 0, 0, 0, 0], "counterbalance": 7, "condition": "Bottom", "browser": {"platform": "Linux armv8l", "userAgent": "Mozilla/5.0 (Linux; Android 7.0; SM-G950U Build/NRD90M) AppleWebKit/537.36 (KHTML, like Gecko) Chrome/65.0.3325.109 Mobile Safari/537.36"}}, "assignment": {"24": {"stimulus": 14, "trial": 24, "rt": 1137, "correctcat": 1, "response": 1}, "25": {"stimulus": 30, "trial": 25, "rt": 993, "correctcat": 1, "response": 1}, "26": {"stimulus": 64, "trial": 26, "rt": 1728, "correctcat": 0, "response": 0}, "27": {"stimulus": 73, "trial": 27, "rt": 899, "correctcat": 0, "response": 1}, "20": {"stimulus": 64, "trial": 20, "rt": 1173, "correctcat": 0, "response": 0}, "21": {"stimulus": 63, "trial": 21, "rt": 1378, "correctcat": 0, "response": 1}, "22": {"stimulus": 73, "trial": 22, "rt": 1388, "correctcat": 0, "response": 0}, "23": {"stimulus": 72, "trial": 23, "rt": 3026, "correctcat": 0, "response": 1}, "28": {"stimulus": 63, "trial": 28, "rt": 1010, "correctcat": 0, "response": 0}, "29": {"stimulus": 32, "trial": 29, "rt": 2419, "correctcat": 1, "response": 0}, "1": {"stimulus": 12, "trial": 1, "rt": 2677, "correctcat": 1, "response": 0}, "0": {"stimulus": 14, "trial": 0, "rt": 5182, "correctcat": 1, "response": 0}, "3": {"stimulus": 30, "trial": 3, "rt": 1609, "correctcat": 1, "response": 0}, "2": {"stimulus": 73, "trial": 2, "rt": 5178, "correctcat": 0, "response": 1}, "5": {"stimulus": 32, "trial": 5, "rt": 3109, "correctcat": 1, "response": 1}, "4": {"stimulus": 63, "trial": 4, "rt": 1449, "correctcat": 0, "response": 1}, "7": {"stimulus": 64, "trial": 7, "rt": 1865, "correctcat": 0, "response": 1}, "6": {"stimulus": 72, "trial": 6, "rt": 1366, "correctcat": 0, "response": 0}, "9": {"stimulus": 30, "trial": 9, "rt": 1298, "correctcat": 1, "response": 0}, "8": {"stimulus": 73, "trial": 8, "rt": 1487, "correctcat": 0, "response": 0}, "11": {"stimulus": 64, "trial": 11, "rt": 891, "correctcat": 0, "response": 1}, "10": {"stimulus": 63, "trial": 10, "rt": 6037, "correctcat": 0, "response": 0}, "13": {"stimulus": 72, "trial": 13, "rt": 1303, "correctcat": 0, "response": 0}, "12": {"stimulus": 14, "trial": 12, "rt": 1007, "correctcat": 1, "response": 1}, "15": {"stimulus": 32, "trial": 15, "rt": 1755, "correctcat": 1, "response": 1}, "14": {"stimulus": 12, "trial": 14, "rt": 17684, "correctcat": 1, "response": 1}, "17": {"stimulus": 12, "trial": 17, "rt": 2490, "correctcat": 1, "response": 1}, "16": {"stimulus": 32, "trial": 16, "rt": 959, "correctcat": 1, "response": 1}, "19": {"stimulus": 30, "trial": 19, "rt": 10217, "correctcat": 1, "response": 1}, "18": {"stimulus": 14, "trial": 18, "rt": 992, "correctcat": 1, "response": 1}, "31": {"stimulus": 12, "trial": 31, "rt": 2825, "correctcat": 1, "response": 1}, "30": {"stimulus": 72, "trial": 30, "rt": 1123, "correctcat": 0, "response": 1}}, "experiment": {"Paradigm": "TACL", "Stimuli": "Size-Color Squares", "Experiment": "Assigning-Generated-Categories"}, "goodness": {"1": {"stimulus": 73, "trial": 1, "categoryRate": "NA", "rt": 7593, "rating": 7}, "0": {"stimulus": 63, "trial": 0, "categoryRate": "NA", "rt": 9265, "rating": 6}, "3": {"stimulus": 32, "trial": 3, "categoryRate": "NA", "rt": 2450, "rating": 3}, "2": {"stimulus": 72, "trial": 2, "categoryRate": "NA", "rt": 2935, "rating": 7}, "5": {"stimulus": 64, "trial": 5, "categoryRate": "NA", "rt": 2217, "rating": 7}, "4": {"stimulus": 30, "trial": 4, "categoryRate": "NA", "rt": 2640, "rating": 7}, "7": {"stimulus": 14, "trial": 7, "categoryRate": "NA", "rt": 2030, "rating": 8}, "6": {"stimulus": 12, "trial": 6, "categoryRate": "NA", "rt": 11026, "rating": 7}, "9": {"stimulus": -1, "trial": 9, "categoryRate": "Alpha", "rt": 3302, "rating": 2}, "8": {"stimulus": -1, "trial": 8, "categoryRate": "Beta", "rt": 4786, "rating": 6}}, "submit": {"timeTotal": 317139, "age": "35", "comments": "The experiment was quite interesting and kept  my attention. I was not sure which group the blocks belonged to even after practice.", "sex": "Male"}}