{"info": {"finish": 1520921868069, "participant": 7, "exposed": true, "stimuli": [30, 32, 48, 50, 7, 8, 2, 5], "lab": false, "pptmatch": 7, "start": 1520921671996, "catflip": false, "categories": [0, 0, 0, 0, 1, 1, 1, 1], "counterbalance": 0, "condition": "Middle", "browser": {"platform": "Win32", "userAgent": "Mozilla/5.0 (Windows NT 6.1; Win64; x64) AppleWebKit/537.36 (KHTML, like Gecko) Chrome/65.0.3325.146 Safari/537.36"}}, "assignment": {"24": {"stimulus": 2, "trial": 24, "rt": 6147, "correctcat": 1, "response": 1}, "25": {"stimulus": 48, "trial": 25, "rt": 1310, "correctcat": 0, "response": 0}, "26": {"stimulus": 5, "trial": 26, "rt": 430, "correctcat": 1, "response": 1}, "27": {"stimulus": 50, "trial": 27, "rt": 469, "correctcat": 0, "response": 0}, "20": {"stimulus": 2, "trial": 20, "rt": 1246, "correctcat": 1, "response": 1}, "21": {"stimulus": 8, "trial": 21, "rt": 422, "correctcat": 1, "response": 1}, "22": {"stimulus": 30, "trial": 22, "rt": 1334, "correctcat": 0, "response": 0}, "23": {"stimulus": 50, "trial": 23, "rt": 12782, "correctcat": 0, "response": 0}, "28": {"stimulus": 32, "trial": 28, "rt": 468, "correctcat": 0, "response": 0}, "29": {"stimulus": 7, "trial": 29, "rt": 410, "correctcat": 1, "response": 1}, "1": {"stimulus": 48, "trial": 1, "rt": 1502, "correctcat": 0, "response": 0}, "0": {"stimulus": 7, "trial": 0, "rt": 866, "correctcat": 1, "response": 0}, "3": {"stimulus": 2, "trial": 3, "rt": 518, "correctcat": 1, "response": 1}, "2": {"stimulus": 50, "trial": 2, "rt": 821, "correctcat": 0, "response": 0}, "5": {"stimulus": 32, "trial": 5, "rt": 606, "correctcat": 0, "response": 0}, "4": {"stimulus": 30, "trial": 4, "rt": 1014, "correctcat": 0, "response": 0}, "7": {"stimulus": 8, "trial": 7, "rt": 580, "correctcat": 1, "response": 1}, "6": {"stimulus": 5, "trial": 6, "rt": 1158, "correctcat": 1, "response": 1}, "9": {"stimulus": 50, "trial": 9, "rt": 647, "correctcat": 0, "response": 0}, "8": {"stimulus": 32, "trial": 8, "rt": 839, "correctcat": 0, "response": 0}, "11": {"stimulus": 2, "trial": 11, "rt": 878, "correctcat": 1, "response": 1}, "10": {"stimulus": 8, "trial": 10, "rt": 549, "correctcat": 1, "response": 1}, "13": {"stimulus": 5, "trial": 13, "rt": 734, "correctcat": 1, "response": 1}, "12": {"stimulus": 7, "trial": 12, "rt": 2070, "correctcat": 1, "response": 1}, "15": {"stimulus": 48, "trial": 15, "rt": 606, "correctcat": 0, "response": 0}, "14": {"stimulus": 30, "trial": 14, "rt": 829, "correctcat": 0, "response": 0}, "17": {"stimulus": 32, "trial": 17, "rt": 750, "correctcat": 0, "response": 0}, "16": {"stimulus": 7, "trial": 16, "rt": 4438, "correctcat": 1, "response": 1}, "19": {"stimulus": 48, "trial": 19, "rt": 2349, "correctcat": 0, "response": 0}, "18": {"stimulus": 5, "trial": 18, "rt": 1358, "correctcat": 1, "response": 1}, "31": {"stimulus": 30, "trial": 31, "rt": 851, "correctcat": 0, "response": 0}, "30": {"stimulus": 8, "trial": 30, "rt": 438, "correctcat": 1, "response": 1}}, "experiment": {"Paradigm": "TACL", "Stimuli": "Size-Color Squares", "Experiment": "Assigning-Generated-Categories"}, "goodness": {"1": {"stimulus": 48, "trial": 1, "categoryRate": "NA", "rt": 2780, "rating": 10}, "0": {"stimulus": 5, "trial": 0, "categoryRate": "NA", "rt": 10621, "rating": 10}, "3": {"stimulus": 32, "trial": 3, "categoryRate": "NA", "rt": 1661, "rating": 10}, "2": {"stimulus": 30, "trial": 2, "categoryRate": "NA", "rt": 1804, "rating": 10}, "5": {"stimulus": 50, "trial": 5, "categoryRate": "NA", "rt": 1397, "rating": 10}, "4": {"stimulus": 7, "trial": 4, "categoryRate": "NA", "rt": 2796, "rating": 10}, "7": {"stimulus": 8, "trial": 7, "categoryRate": "NA", "rt": 2565, "rating": 10}, "6": {"stimulus": 2, "trial": 6, "categoryRate": "NA", "rt": 5254, "rating": 10}, "9": {"stimulus": -1, "trial": 9, "categoryRate": "Alpha", "rt": 3100, "rating": 10}, "8": {"stimulus": -1, "trial": 8, "categoryRate": "Beta", "rt": 5572, "rating": 10}}, "submit": {"timeTotal": 219157, "age": "24", "comments": "That was interesting! Were you testing racism or something?", "sex": "Male"}}