{"info": {"finish": 1521083351431, "participant": 72, "exposed": true, "stimuli": [30, 32, 48, 50, 15, 61, 71, 10], "lab": false, "pptmatch": 72, "start": 1521083116465, "catflip": false, "categories": [0, 0, 0, 0, 1, 1, 1, 1], "counterbalance": 7, "condition": "Middle", "browser": {"platform": "Win32", "userAgent": "Mozilla/5.0 (Windows NT 6.1) AppleWebKit/537.36 (KHTML, like Gecko) Chrome/65.0.3325.146 Safari/537.36"}}, "assignment": {"24": {"stimulus": 71, "trial": 24, "rt": 1128, "correctcat": 1, "response": 1}, "25": {"stimulus": 61, "trial": 25, "rt": 1556, "correctcat": 1, "response": 1}, "26": {"stimulus": 32, "trial": 26, "rt": 1775, "correctcat": 0, "response": 0}, "27": {"stimulus": 30, "trial": 27, "rt": 1961, "correctcat": 0, "response": 0}, "20": {"stimulus": 48, "trial": 20, "rt": 1279, "correctcat": 0, "response": 0}, "21": {"stimulus": 10, "trial": 21, "rt": 1683, "correctcat": 1, "response": 1}, "22": {"stimulus": 50, "trial": 22, "rt": 1656, "correctcat": 0, "response": 1}, "23": {"stimulus": 61, "trial": 23, "rt": 1825, "correctcat": 1, "response": 1}, "28": {"stimulus": 15, "trial": 28, "rt": 1374, "correctcat": 1, "response": 1}, "29": {"stimulus": 50, "trial": 29, "rt": 1731, "correctcat": 0, "response": 1}, "1": {"stimulus": 15, "trial": 1, "rt": 2287, "correctcat": 1, "response": 1}, "0": {"stimulus": 30, "trial": 0, "rt": 3493, "correctcat": 0, "response": 0}, "3": {"stimulus": 50, "trial": 3, "rt": 6454, "correctcat": 0, "response": 0}, "2": {"stimulus": 10, "trial": 2, "rt": 1180, "correctcat": 1, "response": 0}, "5": {"stimulus": 61, "trial": 5, "rt": 18608, "correctcat": 1, "response": 1}, "4": {"stimulus": 71, "trial": 4, "rt": 3042, "correctcat": 1, "response": 1}, "7": {"stimulus": 32, "trial": 7, "rt": 1926, "correctcat": 0, "response": 1}, "6": {"stimulus": 48, "trial": 6, "rt": 1029, "correctcat": 0, "response": 0}, "9": {"stimulus": 50, "trial": 9, "rt": 941, "correctcat": 0, "response": 1}, "8": {"stimulus": 48, "trial": 8, "rt": 2189, "correctcat": 0, "response": 0}, "11": {"stimulus": 61, "trial": 11, "rt": 2092, "correctcat": 1, "response": 1}, "10": {"stimulus": 30, "trial": 10, "rt": 1614, "correctcat": 0, "response": 0}, "13": {"stimulus": 10, "trial": 13, "rt": 1031, "correctcat": 1, "response": 0}, "12": {"stimulus": 32, "trial": 12, "rt": 1213, "correctcat": 0, "response": 1}, "15": {"stimulus": 15, "trial": 15, "rt": 4653, "correctcat": 1, "response": 0}, "14": {"stimulus": 71, "trial": 14, "rt": 7630, "correctcat": 1, "response": 1}, "17": {"stimulus": 71, "trial": 17, "rt": 1579, "correctcat": 1, "response": 1}, "16": {"stimulus": 15, "trial": 16, "rt": 2143, "correctcat": 1, "response": 1}, "19": {"stimulus": 30, "trial": 19, "rt": 1190, "correctcat": 0, "response": 0}, "18": {"stimulus": 32, "trial": 18, "rt": 1052, "correctcat": 0, "response": 1}, "31": {"stimulus": 10, "trial": 31, "rt": 1376, "correctcat": 1, "response": 1}, "30": {"stimulus": 48, "trial": 30, "rt": 748, "correctcat": 0, "response": 0}}, "experiment": {"Paradigm": "TACL", "Stimuli": "Size-Color Squares", "Experiment": "Assigning-Generated-Categories"}, "goodness": {"1": {"stimulus": 10, "trial": 1, "categoryRate": "NA", "rt": 1649, "rating": 7}, "0": {"stimulus": 61, "trial": 0, "categoryRate": "NA", "rt": 4386, "rating": 7}, "3": {"stimulus": 71, "trial": 3, "categoryRate": "NA", "rt": 1254, "rating": 6}, "2": {"stimulus": 32, "trial": 2, "categoryRate": "NA", "rt": 1548, "rating": 6}, "5": {"stimulus": 48, "trial": 5, "categoryRate": "NA", "rt": 1693, "rating": 7}, "4": {"stimulus": 30, "trial": 4, "categoryRate": "NA", "rt": 3456, "rating": 6}, "7": {"stimulus": 50, "trial": 7, "categoryRate": "NA", "rt": 2499, "rating": 9}, "6": {"stimulus": 15, "trial": 6, "categoryRate": "NA", "rt": 1748, "rating": 8}, "9": {"stimulus": -1, "trial": 9, "categoryRate": "Alpha", "rt": 4479, "rating": 8}, "8": {"stimulus": -1, "trial": 8, "categoryRate": "Beta", "rt": 7208, "rating": 7}}, "submit": {"timeTotal": 235830, "age": "28", "comments": "Nice survey much interesting ", "sex": "male"}}