{"info": {"finish": 1521083443402, "participant": 74, "exposed": true, "stimuli": [30, 32, 48, 50, 72, 0, 80, 8], "lab": false, "pptmatch": 74, "start": 1521083249584, "catflip": false, "categories": [0, 0, 0, 0, 1, 1, 1, 1], "counterbalance": 0, "condition": "Middle", "browser": {"platform": "Win32", "userAgent": "Mozilla/5.0 (Windows NT 6.1; Win64; x64) AppleWebKit/537.36 (KHTML, like Gecko) Chrome/64.0.3282.186 Safari/537.36"}}, "assignment": {"24": {"stimulus": 8, "trial": 24, "rt": 917, "correctcat": 1, "response": 1}, "25": {"stimulus": 0, "trial": 25, "rt": 1825, "correctcat": 1, "response": 0}, "26": {"stimulus": 32, "trial": 26, "rt": 1542, "correctcat": 0, "response": 0}, "27": {"stimulus": 80, "trial": 27, "rt": 1210, "correctcat": 1, "response": 1}, "20": {"stimulus": 72, "trial": 20, "rt": 1757, "correctcat": 1, "response": 0}, "21": {"stimulus": 32, "trial": 21, "rt": 1391, "correctcat": 0, "response": 0}, "22": {"stimulus": 50, "trial": 22, "rt": 6580, "correctcat": 0, "response": 0}, "23": {"stimulus": 8, "trial": 23, "rt": 1198, "correctcat": 1, "response": 1}, "28": {"stimulus": 30, "trial": 28, "rt": 1508, "correctcat": 0, "response": 0}, "29": {"stimulus": 72, "trial": 29, "rt": 1393, "correctcat": 1, "response": 0}, "1": {"stimulus": 0, "trial": 1, "rt": 1644, "correctcat": 1, "response": 1}, "0": {"stimulus": 32, "trial": 0, "rt": 4649, "correctcat": 0, "response": 0}, "3": {"stimulus": 80, "trial": 3, "rt": 2313, "correctcat": 1, "response": 0}, "2": {"stimulus": 48, "trial": 2, "rt": 1532, "correctcat": 0, "response": 0}, "5": {"stimulus": 72, "trial": 5, "rt": 1381, "correctcat": 1, "response": 0}, "4": {"stimulus": 8, "trial": 4, "rt": 1794, "correctcat": 1, "response": 1}, "7": {"stimulus": 50, "trial": 7, "rt": 1421, "correctcat": 0, "response": 0}, "6": {"stimulus": 30, "trial": 6, "rt": 1528, "correctcat": 0, "response": 0}, "9": {"stimulus": 48, "trial": 9, "rt": 1731, "correctcat": 0, "response": 0}, "8": {"stimulus": 8, "trial": 8, "rt": 1117, "correctcat": 1, "response": 1}, "11": {"stimulus": 0, "trial": 11, "rt": 1390, "correctcat": 1, "response": 1}, "10": {"stimulus": 80, "trial": 10, "rt": 1166, "correctcat": 1, "response": 0}, "13": {"stimulus": 32, "trial": 13, "rt": 1421, "correctcat": 0, "response": 0}, "12": {"stimulus": 72, "trial": 12, "rt": 1281, "correctcat": 1, "response": 0}, "15": {"stimulus": 50, "trial": 15, "rt": 984, "correctcat": 0, "response": 0}, "14": {"stimulus": 30, "trial": 14, "rt": 1781, "correctcat": 0, "response": 1}, "17": {"stimulus": 48, "trial": 17, "rt": 1101, "correctcat": 0, "response": 0}, "16": {"stimulus": 30, "trial": 16, "rt": 1679, "correctcat": 0, "response": 0}, "19": {"stimulus": 0, "trial": 19, "rt": 1097, "correctcat": 1, "response": 1}, "18": {"stimulus": 80, "trial": 18, "rt": 1579, "correctcat": 1, "response": 0}, "31": {"stimulus": 48, "trial": 31, "rt": 1274, "correctcat": 0, "response": 1}, "30": {"stimulus": 50, "trial": 30, "rt": 1192, "correctcat": 0, "response": 0}}, "experiment": {"Paradigm": "TACL", "Stimuli": "Size-Color Squares", "Experiment": "Assigning-Generated-Categories"}, "goodness": {"1": {"stimulus": 72, "trial": 1, "categoryRate": "NA", "rt": 2218, "rating": 6}, "0": {"stimulus": 48, "trial": 0, "categoryRate": "NA", "rt": 3822, "rating": 8}, "3": {"stimulus": 80, "trial": 3, "categoryRate": "NA", "rt": 2198, "rating": 7}, "2": {"stimulus": 0, "trial": 2, "categoryRate": "NA", "rt": 1877, "rating": 7}, "5": {"stimulus": 50, "trial": 5, "categoryRate": "NA", "rt": 2265, "rating": 7}, "4": {"stimulus": 30, "trial": 4, "categoryRate": "NA", "rt": 2234, "rating": 7}, "7": {"stimulus": 8, "trial": 7, "categoryRate": "NA", "rt": 1814, "rating": 7}, "6": {"stimulus": 32, "trial": 6, "categoryRate": "NA", "rt": 1668, "rating": 7}, "9": {"stimulus": -1, "trial": 9, "categoryRate": "Alpha", "rt": 2700, "rating": 8}, "8": {"stimulus": -1, "trial": 8, "categoryRate": "Beta", "rt": 2913, "rating": 6}}, "submit": {"timeTotal": 194760, "age": "29", "comments": "Good survey", "sex": "Male"}}