{"info": {"finish": 1521085696225, "participant": 76, "exposed": true, "stimuli": [30, 32, 48, 50, 8, 0, 80, 72], "lab": false, "pptmatch": 76, "start": 1521085339668, "catflip": false, "categories": [0, 0, 0, 0, 1, 1, 1, 1], "counterbalance": 0, "condition": "Middle", "browser": {"platform": "Win32", "userAgent": "Mozilla/5.0 (Windows NT 6.3) AppleWebKit/537.36 (KHTML, like Gecko) Chrome/64.0.3282.186 Safari/537.36"}}, "assignment": {"24": {"stimulus": 72, "trial": 24, "rt": 565, "correctcat": 1, "response": 0}, "25": {"stimulus": 0, "trial": 25, "rt": 230, "correctcat": 1, "response": 1}, "26": {"stimulus": 48, "trial": 26, "rt": 386, "correctcat": 0, "response": 1}, "27": {"stimulus": 30, "trial": 27, "rt": 456, "correctcat": 0, "response": 1}, "20": {"stimulus": 0, "trial": 20, "rt": 300, "correctcat": 1, "response": 0}, "21": {"stimulus": 32, "trial": 21, "rt": 374, "correctcat": 0, "response": 1}, "22": {"stimulus": 30, "trial": 22, "rt": 368, "correctcat": 0, "response": 0}, "23": {"stimulus": 8, "trial": 23, "rt": 1709, "correctcat": 1, "response": 0}, "28": {"stimulus": 32, "trial": 28, "rt": 391, "correctcat": 0, "response": 0}, "29": {"stimulus": 8, "trial": 29, "rt": 827, "correctcat": 1, "response": 1}, "1": {"stimulus": 30, "trial": 1, "rt": 40764, "correctcat": 0, "response": 1}, "0": {"stimulus": 48, "trial": 0, "rt": 2066, "correctcat": 0, "response": 0}, "3": {"stimulus": 80, "trial": 3, "rt": 29944, "correctcat": 1, "response": 0}, "2": {"stimulus": 8, "trial": 2, "rt": 571, "correctcat": 1, "response": 0}, "5": {"stimulus": 50, "trial": 5, "rt": 5406, "correctcat": 0, "response": 1}, "4": {"stimulus": 0, "trial": 4, "rt": 31707, "correctcat": 1, "response": 0}, "7": {"stimulus": 72, "trial": 7, "rt": 972, "correctcat": 1, "response": 0}, "6": {"stimulus": 32, "trial": 6, "rt": 5314, "correctcat": 0, "response": 1}, "9": {"stimulus": 72, "trial": 9, "rt": 10464, "correctcat": 1, "response": 0}, "8": {"stimulus": 8, "trial": 8, "rt": 40606, "correctcat": 1, "response": 0}, "11": {"stimulus": 0, "trial": 11, "rt": 837, "correctcat": 1, "response": 1}, "10": {"stimulus": 80, "trial": 10, "rt": 694, "correctcat": 1, "response": 1}, "13": {"stimulus": 50, "trial": 13, "rt": 20958, "correctcat": 0, "response": 0}, "12": {"stimulus": 48, "trial": 12, "rt": 525, "correctcat": 0, "response": 1}, "15": {"stimulus": 32, "trial": 15, "rt": 3599, "correctcat": 0, "response": 0}, "14": {"stimulus": 30, "trial": 14, "rt": 461, "correctcat": 0, "response": 0}, "17": {"stimulus": 80, "trial": 17, "rt": 382, "correctcat": 1, "response": 0}, "16": {"stimulus": 48, "trial": 16, "rt": 451, "correctcat": 0, "response": 0}, "19": {"stimulus": 72, "trial": 19, "rt": 568, "correctcat": 1, "response": 0}, "18": {"stimulus": 50, "trial": 18, "rt": 4109, "correctcat": 0, "response": 0}, "31": {"stimulus": 80, "trial": 31, "rt": 982, "correctcat": 1, "response": 1}, "30": {"stimulus": 50, "trial": 30, "rt": 550, "correctcat": 0, "response": 1}}, "experiment": {"Paradigm": "TACL", "Stimuli": "Size-Color Squares", "Experiment": "Assigning-Generated-Categories"}, "goodness": {"1": {"stimulus": 80, "trial": 1, "categoryRate": "NA", "rt": 1196, "rating": 6}, "0": {"stimulus": 0, "trial": 0, "categoryRate": "NA", "rt": 2634, "rating": 7}, "3": {"stimulus": 72, "trial": 3, "categoryRate": "NA", "rt": 1773, "rating": 6}, "2": {"stimulus": 30, "trial": 2, "categoryRate": "NA", "rt": 1019, "rating": 4}, "5": {"stimulus": 32, "trial": 5, "categoryRate": "NA", "rt": 1260, "rating": 7}, "4": {"stimulus": 48, "trial": 4, "categoryRate": "NA", "rt": 1779, "rating": 4}, "7": {"stimulus": 50, "trial": 7, "categoryRate": "NA", "rt": 1075, "rating": 7}, "6": {"stimulus": 8, "trial": 6, "categoryRate": "NA", "rt": 11748, "rating": 6}, "9": {"stimulus": -1, "trial": 9, "categoryRate": "Alpha", "rt": 1507, "rating": 4}, "8": {"stimulus": -1, "trial": 8, "categoryRate": "Beta", "rt": 1548, "rating": 6}}, "submit": {"timeTotal": 362590, "age": "23", "comments": "", "sex": "male"}}