{"info": {"finish": 1521091748176, "participant": 78, "exposed": true, "stimuli": [30, 32, 48, 50, 8, 1, 80, 72], "lab": false, "pptmatch": 78, "start": 1521091504608, "catflip": true, "categories": [1, 1, 1, 1, 0, 0, 0, 0], "counterbalance": 0, "condition": "Middle", "browser": {"platform": "Win32", "userAgent": "Mozilla/5.0 (Windows NT 10.0; Win64; x64) AppleWebKit/537.36 (KHTML, like Gecko) Chrome/64.0.3282.186 Safari/537.36"}}, "assignment": {"24": {"stimulus": 8, "trial": 24, "rt": 996, "correctcat": 0, "response": 0}, "25": {"stimulus": 80, "trial": 25, "rt": 1806, "correctcat": 0, "response": 0}, "26": {"stimulus": 30, "trial": 26, "rt": 1062, "correctcat": 1, "response": 1}, "27": {"stimulus": 1, "trial": 27, "rt": 1406, "correctcat": 0, "response": 0}, "20": {"stimulus": 48, "trial": 20, "rt": 1097, "correctcat": 1, "response": 1}, "21": {"stimulus": 80, "trial": 21, "rt": 1297, "correctcat": 0, "response": 0}, "22": {"stimulus": 1, "trial": 22, "rt": 1238, "correctcat": 0, "response": 0}, "23": {"stimulus": 30, "trial": 23, "rt": 1249, "correctcat": 1, "response": 1}, "28": {"stimulus": 48, "trial": 28, "rt": 1313, "correctcat": 1, "response": 1}, "29": {"stimulus": 32, "trial": 29, "rt": 990, "correctcat": 1, "response": 1}, "1": {"stimulus": 8, "trial": 1, "rt": 1143, "correctcat": 0, "response": 1}, "0": {"stimulus": 32, "trial": 0, "rt": 1675, "correctcat": 1, "response": 0}, "3": {"stimulus": 72, "trial": 3, "rt": 1158, "correctcat": 0, "response": 1}, "2": {"stimulus": 48, "trial": 2, "rt": 1705, "correctcat": 1, "response": 1}, "5": {"stimulus": 50, "trial": 5, "rt": 823, "correctcat": 1, "response": 1}, "4": {"stimulus": 1, "trial": 4, "rt": 2164, "correctcat": 0, "response": 0}, "7": {"stimulus": 30, "trial": 7, "rt": 2243, "correctcat": 1, "response": 1}, "6": {"stimulus": 80, "trial": 6, "rt": 1146, "correctcat": 0, "response": 1}, "9": {"stimulus": 72, "trial": 9, "rt": 1899, "correctcat": 0, "response": 0}, "8": {"stimulus": 1, "trial": 8, "rt": 1314, "correctcat": 0, "response": 0}, "11": {"stimulus": 50, "trial": 11, "rt": 972, "correctcat": 1, "response": 1}, "10": {"stimulus": 8, "trial": 10, "rt": 910, "correctcat": 0, "response": 0}, "13": {"stimulus": 30, "trial": 13, "rt": 882, "correctcat": 1, "response": 1}, "12": {"stimulus": 80, "trial": 12, "rt": 870, "correctcat": 0, "response": 0}, "15": {"stimulus": 32, "trial": 15, "rt": 1282, "correctcat": 1, "response": 1}, "14": {"stimulus": 48, "trial": 14, "rt": 1022, "correctcat": 1, "response": 1}, "17": {"stimulus": 32, "trial": 17, "rt": 1001, "correctcat": 1, "response": 1}, "16": {"stimulus": 50, "trial": 16, "rt": 819, "correctcat": 1, "response": 1}, "19": {"stimulus": 8, "trial": 19, "rt": 1510, "correctcat": 0, "response": 0}, "18": {"stimulus": 72, "trial": 18, "rt": 1020, "correctcat": 0, "response": 0}, "31": {"stimulus": 50, "trial": 31, "rt": 1632, "correctcat": 1, "response": 1}, "30": {"stimulus": 72, "trial": 30, "rt": 2535, "correctcat": 0, "response": 0}}, "experiment": {"Paradigm": "TACL", "Stimuli": "Size-Color Squares", "Experiment": "Assigning-Generated-Categories"}, "goodness": {"1": {"stimulus": 48, "trial": 1, "categoryRate": "NA", "rt": 6827, "rating": 9}, "0": {"stimulus": 72, "trial": 0, "categoryRate": "NA", "rt": 17820, "rating": 5}, "3": {"stimulus": 50, "trial": 3, "categoryRate": "NA", "rt": 3270, "rating": 9}, "2": {"stimulus": 1, "trial": 2, "categoryRate": "NA", "rt": 5526, "rating": 5}, "5": {"stimulus": 8, "trial": 5, "categoryRate": "NA", "rt": 2005, "rating": 5}, "4": {"stimulus": 30, "trial": 4, "categoryRate": "NA", "rt": 2924, "rating": 9}, "7": {"stimulus": 80, "trial": 7, "categoryRate": "NA", "rt": 2349, "rating": 5}, "6": {"stimulus": 32, "trial": 6, "categoryRate": "NA", "rt": 2566, "rating": 9}, "9": {"stimulus": -1, "trial": 9, "categoryRate": "Alpha", "rt": 8996, "rating": 4}, "8": {"stimulus": -1, "trial": 8, "categoryRate": "Beta", "rt": 14489, "rating": 9}}, "submit": {"timeTotal": 243767, "age": "34", "comments": "", "sex": "male"}}