{"info": {"finish": 1521092419113, "participant": 79, "exposed": true, "stimuli": [30, 32, 48, 50, 78, 75, 77, 80], "lab": false, "pptmatch": 79, "start": 1521091816476, "catflip": false, "categories": [0, 0, 0, 0, 1, 1, 1, 1], "counterbalance": 3, "condition": "Middle", "browser": {"platform": "Win32", "userAgent": "Mozilla/5.0 (Windows NT 10.0) AppleWebKit/537.36 (KHTML, like Gecko) Chrome/64.0.3282.186 Safari/537.36"}}, "assignment": {"24": {"stimulus": 48, "trial": 24, "rt": 8142, "correctcat": 0, "response": 0}, "25": {"stimulus": 80, "trial": 25, "rt": 77000, "correctcat": 1, "response": 1}, "26": {"stimulus": 78, "trial": 26, "rt": 9244, "correctcat": 1, "response": 1}, "27": {"stimulus": 30, "trial": 27, "rt": 4745, "correctcat": 0, "response": 0}, "20": {"stimulus": 30, "trial": 20, "rt": 33762, "correctcat": 0, "response": 0}, "21": {"stimulus": 75, "trial": 21, "rt": 2207, "correctcat": 1, "response": 1}, "22": {"stimulus": 78, "trial": 22, "rt": 2269, "correctcat": 1, "response": 1}, "23": {"stimulus": 48, "trial": 23, "rt": 39924, "correctcat": 0, "response": 1}, "28": {"stimulus": 75, "trial": 28, "rt": 4356, "correctcat": 1, "response": 1}, "29": {"stimulus": 32, "trial": 29, "rt": 75846, "correctcat": 0, "response": 0}, "1": {"stimulus": 30, "trial": 1, "rt": 847, "correctcat": 0, "response": 0}, "0": {"stimulus": 32, "trial": 0, "rt": 3139, "correctcat": 0, "response": 1}, "3": {"stimulus": 50, "trial": 3, "rt": 1568, "correctcat": 0, "response": 0}, "2": {"stimulus": 78, "trial": 2, "rt": 1003, "correctcat": 1, "response": 0}, "5": {"stimulus": 75, "trial": 5, "rt": 983, "correctcat": 1, "response": 1}, "4": {"stimulus": 48, "trial": 4, "rt": 1238, "correctcat": 0, "response": 0}, "7": {"stimulus": 77, "trial": 7, "rt": 973, "correctcat": 1, "response": 1}, "6": {"stimulus": 80, "trial": 6, "rt": 897, "correctcat": 1, "response": 1}, "9": {"stimulus": 48, "trial": 9, "rt": 24022, "correctcat": 0, "response": 0}, "8": {"stimulus": 77, "trial": 8, "rt": 5591, "correctcat": 1, "response": 1}, "11": {"stimulus": 50, "trial": 11, "rt": 608, "correctcat": 0, "response": 1}, "10": {"stimulus": 80, "trial": 10, "rt": 5885, "correctcat": 1, "response": 0}, "13": {"stimulus": 78, "trial": 13, "rt": 2981, "correctcat": 1, "response": 1}, "12": {"stimulus": 32, "trial": 12, "rt": 10698, "correctcat": 0, "response": 0}, "15": {"stimulus": 75, "trial": 15, "rt": 8557, "correctcat": 1, "response": 1}, "14": {"stimulus": 30, "trial": 14, "rt": 10938, "correctcat": 0, "response": 0}, "17": {"stimulus": 77, "trial": 17, "rt": 4432, "correctcat": 1, "response": 1}, "16": {"stimulus": 32, "trial": 16, "rt": 10133, "correctcat": 0, "response": 0}, "19": {"stimulus": 50, "trial": 19, "rt": 16446, "correctcat": 0, "response": 0}, "18": {"stimulus": 80, "trial": 18, "rt": 7072, "correctcat": 1, "response": 1}, "31": {"stimulus": 77, "trial": 31, "rt": 1787, "correctcat": 1, "response": 1}, "30": {"stimulus": 50, "trial": 30, "rt": 19193, "correctcat": 0, "response": 0}}, "experiment": {"Paradigm": "TACL", "Stimuli": "Size-Color Squares", "Experiment": "Assigning-Generated-Categories"}, "goodness": {"1": {"stimulus": 75, "trial": 1, "categoryRate": "NA", "rt": 4155, "rating": 9}, "0": {"stimulus": 77, "trial": 0, "categoryRate": "NA", "rt": 16151, "rating": 8}, "3": {"stimulus": 32, "trial": 3, "categoryRate": "NA", "rt": 2764, "rating": 6}, "2": {"stimulus": 48, "trial": 2, "categoryRate": "NA", "rt": 1967, "rating": 2}, "5": {"stimulus": 30, "trial": 5, "categoryRate": "NA", "rt": 1709, "rating": 8}, "4": {"stimulus": 50, "trial": 4, "categoryRate": "NA", "rt": 1697, "rating": 7}, "7": {"stimulus": 80, "trial": 7, "categoryRate": "NA", "rt": 1722, "rating": 7}, "6": {"stimulus": 78, "trial": 6, "categoryRate": "NA", "rt": 2029, "rating": 10}, "9": {"stimulus": -1, "trial": 9, "categoryRate": "Alpha", "rt": 3420, "rating": 7}, "8": {"stimulus": -1, "trial": 8, "categoryRate": "Beta", "rt": 4581, "rating": 8}}, "submit": {"timeTotal": 602927, "age": "24", "comments": "thanks", "sex": "female"}}