{"info": {"finish": 1521094278946, "participant": 82, "exposed": true, "stimuli": [30, 32, 48, 50, 0, 8, 9, 17], "lab": false, "pptmatch": 82, "start": 1521092574701, "catflip": false, "categories": [0, 0, 0, 0, 1, 1, 1, 1], "counterbalance": 0, "condition": "Middle", "browser": {"platform": "Win32", "userAgent": "Mozilla/5.0 (Windows NT 10.0; Win64; x64) AppleWebKit/537.36 (KHTML, like Gecko) Chrome/64.0.3282.186 Safari/537.36"}}, "assignment": {"24": {"stimulus": 17, "trial": 24, "rt": 2992, "correctcat": 1, "response": 0}, "25": {"stimulus": 50, "trial": 25, "rt": 2826, "correctcat": 0, "response": 0}, "26": {"stimulus": 30, "trial": 26, "rt": 1568, "correctcat": 0, "response": 0}, "27": {"stimulus": 0, "trial": 27, "rt": 13455, "correctcat": 1, "response": 1}, "20": {"stimulus": 0, "trial": 20, "rt": 1245, "correctcat": 1, "response": 1}, "21": {"stimulus": 9, "trial": 21, "rt": 1055, "correctcat": 1, "response": 1}, "22": {"stimulus": 48, "trial": 22, "rt": 2441, "correctcat": 0, "response": 0}, "23": {"stimulus": 8, "trial": 23, "rt": 7139, "correctcat": 1, "response": 1}, "28": {"stimulus": 32, "trial": 28, "rt": 987, "correctcat": 0, "response": 0}, "29": {"stimulus": 9, "trial": 29, "rt": 3659, "correctcat": 1, "response": 1}, "1": {"stimulus": 50, "trial": 1, "rt": 3911, "correctcat": 0, "response": 0}, "0": {"stimulus": 17, "trial": 0, "rt": 6405, "correctcat": 1, "response": 0}, "3": {"stimulus": 0, "trial": 3, "rt": 910, "correctcat": 1, "response": 1}, "2": {"stimulus": 8, "trial": 2, "rt": 2053, "correctcat": 1, "response": 1}, "5": {"stimulus": 32, "trial": 5, "rt": 747, "correctcat": 0, "response": 0}, "4": {"stimulus": 30, "trial": 4, "rt": 1075, "correctcat": 0, "response": 0}, "7": {"stimulus": 9, "trial": 7, "rt": 1146, "correctcat": 1, "response": 1}, "6": {"stimulus": 48, "trial": 6, "rt": 894, "correctcat": 0, "response": 0}, "9": {"stimulus": 32, "trial": 9, "rt": 1213, "correctcat": 0, "response": 0}, "8": {"stimulus": 50, "trial": 8, "rt": 1151, "correctcat": 0, "response": 0}, "11": {"stimulus": 0, "trial": 11, "rt": 3037, "correctcat": 1, "response": 1}, "10": {"stimulus": 9, "trial": 10, "rt": 893, "correctcat": 1, "response": 0}, "13": {"stimulus": 8, "trial": 13, "rt": 2382, "correctcat": 1, "response": 1}, "12": {"stimulus": 48, "trial": 12, "rt": 1160, "correctcat": 0, "response": 0}, "15": {"stimulus": 17, "trial": 15, "rt": 1883, "correctcat": 1, "response": 1}, "14": {"stimulus": 30, "trial": 14, "rt": 10083, "correctcat": 0, "response": 0}, "17": {"stimulus": 17, "trial": 17, "rt": 1245, "correctcat": 1, "response": 0}, "16": {"stimulus": 50, "trial": 16, "rt": 1282, "correctcat": 0, "response": 0}, "19": {"stimulus": 30, "trial": 19, "rt": 798, "correctcat": 0, "response": 0}, "18": {"stimulus": 32, "trial": 18, "rt": 2855, "correctcat": 0, "response": 0}, "31": {"stimulus": 8, "trial": 31, "rt": 1234, "correctcat": 1, "response": 1}, "30": {"stimulus": 48, "trial": 30, "rt": 3388, "correctcat": 0, "response": 0}}, "experiment": {"Paradigm": "TACL", "Stimuli": "Size-Color Squares", "Experiment": "Assigning-Generated-Categories"}, "goodness": {"1": {"stimulus": 9, "trial": 1, "categoryRate": "NA", "rt": 4102, "rating": 10}, "0": {"stimulus": 50, "trial": 0, "categoryRate": "NA", "rt": 16844, "rating": 10}, "3": {"stimulus": 8, "trial": 3, "categoryRate": "NA", "rt": 2839, "rating": 10}, "2": {"stimulus": 48, "trial": 2, "categoryRate": "NA", "rt": 7159, "rating": 3}, "5": {"stimulus": 32, "trial": 5, "categoryRate": "NA", "rt": 5209, "rating": 6}, "4": {"stimulus": 17, "trial": 4, "categoryRate": "NA", "rt": 2882, "rating": 2}, "7": {"stimulus": 0, "trial": 7, "categoryRate": "NA", "rt": 4388, "rating": 10}, "6": {"stimulus": 30, "trial": 6, "categoryRate": "NA", "rt": 2125, "rating": 7}, "9": {"stimulus": -1, "trial": 9, "categoryRate": "Alpha", "rt": 7384, "rating": 1}, "8": {"stimulus": -1, "trial": 8, "categoryRate": "Beta", "rt": 36979, "rating": 6}}, "submit": {"timeTotal": 1704510, "age": "34", "comments": "GREAT THANKS", "sex": "F"}}