{"info": {"finish": 1521093008790, "participant": 84, "exposed": true, "stimuli": [30, 32, 48, 50, 80, 0, 8, 72], "lab": false, "pptmatch": 84, "start": 1521092695474, "catflip": false, "categories": [0, 0, 0, 0, 1, 1, 1, 1], "counterbalance": 1, "condition": "Middle", "browser": {"platform": "Win32", "userAgent": "Mozilla/5.0 (Windows NT 6.1) AppleWebKit/537.36 (KHTML, like Gecko) Chrome/65.0.3325.162 Safari/537.36"}}, "assignment": {"24": {"stimulus": 0, "trial": 24, "rt": 5239, "correctcat": 1, "response": 1}, "25": {"stimulus": 8, "trial": 25, "rt": 1538, "correctcat": 1, "response": 1}, "26": {"stimulus": 80, "trial": 26, "rt": 1132, "correctcat": 1, "response": 1}, "27": {"stimulus": 32, "trial": 27, "rt": 1242, "correctcat": 0, "response": 0}, "20": {"stimulus": 30, "trial": 20, "rt": 1050, "correctcat": 0, "response": 0}, "21": {"stimulus": 80, "trial": 21, "rt": 1598, "correctcat": 1, "response": 1}, "22": {"stimulus": 72, "trial": 22, "rt": 959, "correctcat": 1, "response": 1}, "23": {"stimulus": 32, "trial": 23, "rt": 2591, "correctcat": 0, "response": 1}, "28": {"stimulus": 30, "trial": 28, "rt": 859, "correctcat": 0, "response": 0}, "29": {"stimulus": 72, "trial": 29, "rt": 986, "correctcat": 1, "response": 1}, "1": {"stimulus": 30, "trial": 1, "rt": 2453, "correctcat": 0, "response": 0}, "0": {"stimulus": 50, "trial": 0, "rt": 20045, "correctcat": 0, "response": 1}, "3": {"stimulus": 48, "trial": 3, "rt": 1797, "correctcat": 0, "response": 0}, "2": {"stimulus": 0, "trial": 2, "rt": 1173, "correctcat": 1, "response": 0}, "5": {"stimulus": 72, "trial": 5, "rt": 1850, "correctcat": 1, "response": 0}, "4": {"stimulus": 80, "trial": 4, "rt": 2315, "correctcat": 1, "response": 0}, "7": {"stimulus": 32, "trial": 7, "rt": 1349, "correctcat": 0, "response": 0}, "6": {"stimulus": 8, "trial": 6, "rt": 1231, "correctcat": 1, "response": 0}, "9": {"stimulus": 48, "trial": 9, "rt": 1606, "correctcat": 0, "response": 1}, "8": {"stimulus": 32, "trial": 8, "rt": 1071, "correctcat": 0, "response": 0}, "11": {"stimulus": 30, "trial": 11, "rt": 1256, "correctcat": 0, "response": 0}, "10": {"stimulus": 50, "trial": 10, "rt": 1137, "correctcat": 0, "response": 0}, "13": {"stimulus": 8, "trial": 13, "rt": 1121, "correctcat": 1, "response": 1}, "12": {"stimulus": 72, "trial": 12, "rt": 1222, "correctcat": 1, "response": 1}, "15": {"stimulus": 80, "trial": 15, "rt": 877, "correctcat": 1, "response": 1}, "14": {"stimulus": 0, "trial": 14, "rt": 678, "correctcat": 1, "response": 1}, "17": {"stimulus": 50, "trial": 17, "rt": 3445, "correctcat": 0, "response": 0}, "16": {"stimulus": 8, "trial": 16, "rt": 1764, "correctcat": 1, "response": 1}, "19": {"stimulus": 0, "trial": 19, "rt": 1081, "correctcat": 1, "response": 1}, "18": {"stimulus": 48, "trial": 18, "rt": 809, "correctcat": 0, "response": 0}, "31": {"stimulus": 50, "trial": 31, "rt": 684, "correctcat": 0, "response": 0}, "30": {"stimulus": 48, "trial": 30, "rt": 1043, "correctcat": 0, "response": 0}}, "experiment": {"Paradigm": "TACL", "Stimuli": "Size-Color Squares", "Experiment": "Assigning-Generated-Categories"}, "goodness": {"1": {"stimulus": 48, "trial": 1, "categoryRate": "NA", "rt": 4078, "rating": 6}, "0": {"stimulus": 50, "trial": 0, "categoryRate": "NA", "rt": 17247, "rating": 8}, "3": {"stimulus": 8, "trial": 3, "categoryRate": "NA", "rt": 5038, "rating": 6}, "2": {"stimulus": 72, "trial": 2, "categoryRate": "NA", "rt": 11838, "rating": 5}, "5": {"stimulus": 0, "trial": 5, "categoryRate": "NA", "rt": 2833, "rating": 4}, "4": {"stimulus": 30, "trial": 4, "categoryRate": "NA", "rt": 6243, "rating": 7}, "7": {"stimulus": 80, "trial": 7, "categoryRate": "NA", "rt": 3827, "rating": 7}, "6": {"stimulus": 32, "trial": 6, "categoryRate": "NA", "rt": 3538, "rating": 6}, "9": {"stimulus": -1, "trial": 9, "categoryRate": "Alpha", "rt": 10648, "rating": 7}, "8": {"stimulus": -1, "trial": 8, "categoryRate": "Beta", "rt": 10452, "rating": 6}}, "submit": {"timeTotal": 314767, "age": "47", "comments": "none thank you", "sex": "male"}}