{"info": {"finish": 1521096572946, "participant": 89, "exposed": true, "stimuli": [12, 14, 30, 32, 57, 59, 68, 66], "lab": false, "pptmatch": 89, "start": 1521096316243, "catflip": true, "categories": [1, 1, 1, 1, 0, 0, 0, 0], "counterbalance": 2, "condition": "Bottom", "browser": {"platform": "Win32", "userAgent": "Mozilla/5.0 (Windows NT 10.0; Win64; x64) AppleWebKit/537.36 (KHTML, like Gecko) Chrome/64.0.3282.186 Safari/537.36"}}, "assignment": {"24": {"stimulus": 57, "trial": 24, "rt": 621, "correctcat": 0, "response": 0}, "25": {"stimulus": 32, "trial": 25, "rt": 773, "correctcat": 1, "response": 1}, "26": {"stimulus": 66, "trial": 26, "rt": 1069, "correctcat": 0, "response": 0}, "27": {"stimulus": 14, "trial": 27, "rt": 681, "correctcat": 1, "response": 1}, "20": {"stimulus": 68, "trial": 20, "rt": 848, "correctcat": 0, "response": 0}, "21": {"stimulus": 32, "trial": 21, "rt": 1144, "correctcat": 1, "response": 1}, "22": {"stimulus": 14, "trial": 22, "rt": 511, "correctcat": 1, "response": 1}, "23": {"stimulus": 66, "trial": 23, "rt": 841, "correctcat": 0, "response": 0}, "28": {"stimulus": 12, "trial": 28, "rt": 636, "correctcat": 1, "response": 1}, "29": {"stimulus": 30, "trial": 29, "rt": 585, "correctcat": 1, "response": 1}, "1": {"stimulus": 68, "trial": 1, "rt": 1460, "correctcat": 0, "response": 0}, "0": {"stimulus": 57, "trial": 0, "rt": 3191, "correctcat": 0, "response": 1}, "3": {"stimulus": 66, "trial": 3, "rt": 1266, "correctcat": 0, "response": 0}, "2": {"stimulus": 12, "trial": 2, "rt": 1243, "correctcat": 1, "response": 1}, "5": {"stimulus": 14, "trial": 5, "rt": 567, "correctcat": 1, "response": 1}, "4": {"stimulus": 32, "trial": 4, "rt": 1277, "correctcat": 1, "response": 1}, "7": {"stimulus": 30, "trial": 7, "rt": 3510, "correctcat": 1, "response": 1}, "6": {"stimulus": 59, "trial": 6, "rt": 847, "correctcat": 0, "response": 0}, "9": {"stimulus": 68, "trial": 9, "rt": 1144, "correctcat": 0, "response": 0}, "8": {"stimulus": 14, "trial": 8, "rt": 820, "correctcat": 1, "response": 1}, "11": {"stimulus": 59, "trial": 11, "rt": 837, "correctcat": 0, "response": 0}, "10": {"stimulus": 66, "trial": 10, "rt": 1787, "correctcat": 0, "response": 0}, "13": {"stimulus": 30, "trial": 13, "rt": 1813, "correctcat": 1, "response": 1}, "12": {"stimulus": 12, "trial": 12, "rt": 777, "correctcat": 1, "response": 1}, "15": {"stimulus": 32, "trial": 15, "rt": 988, "correctcat": 1, "response": 1}, "14": {"stimulus": 57, "trial": 14, "rt": 1924, "correctcat": 0, "response": 0}, "17": {"stimulus": 12, "trial": 17, "rt": 1357, "correctcat": 1, "response": 1}, "16": {"stimulus": 59, "trial": 16, "rt": 1294, "correctcat": 0, "response": 0}, "19": {"stimulus": 30, "trial": 19, "rt": 954, "correctcat": 1, "response": 1}, "18": {"stimulus": 57, "trial": 18, "rt": 1723, "correctcat": 0, "response": 0}, "31": {"stimulus": 68, "trial": 31, "rt": 581, "correctcat": 0, "response": 0}, "30": {"stimulus": 59, "trial": 30, "rt": 805, "correctcat": 0, "response": 0}}, "experiment": {"Paradigm": "TACL", "Stimuli": "Size-Color Squares", "Experiment": "Assigning-Generated-Categories"}, "goodness": {"1": {"stimulus": 57, "trial": 1, "categoryRate": "NA", "rt": 4736, "rating": 4}, "0": {"stimulus": 14, "trial": 0, "categoryRate": "NA", "rt": 4965, "rating": 7}, "3": {"stimulus": 12, "trial": 3, "categoryRate": "NA", "rt": 2440, "rating": 8}, "2": {"stimulus": 59, "trial": 2, "categoryRate": "NA", "rt": 3030, "rating": 6}, "5": {"stimulus": 66, "trial": 5, "categoryRate": "NA", "rt": 2092, "rating": 9}, "4": {"stimulus": 30, "trial": 4, "categoryRate": "NA", "rt": 2258, "rating": 6}, "7": {"stimulus": 68, "trial": 7, "categoryRate": "NA", "rt": 2034, "rating": 6}, "6": {"stimulus": 32, "trial": 6, "categoryRate": "NA", "rt": 1911, "rating": 4}, "9": {"stimulus": -1, "trial": 9, "categoryRate": "Alpha", "rt": 10234, "rating": 7}, "8": {"stimulus": -1, "trial": 8, "categoryRate": "Beta", "rt": 7322, "rating": 10}}, "submit": {"timeTotal": 256846, "age": "35", "comments": "I found this interesting and caught on immediately. It's nice to have a fun hit once in a while. I hope I helped and thank you for letting me participate :)", "sex": "female"}}