{"info": {"finish": 1520921941404, "participant": 9, "exposed": true, "stimuli": [12, 14, 30, 32, 80, 72, 74, 78], "lab": false, "pptmatch": 9, "start": 1520921722295, "catflip": false, "categories": [0, 0, 0, 0, 1, 1, 1, 1], "counterbalance": 3, "condition": "Bottom", "browser": {"platform": "Win32", "userAgent": "Mozilla/5.0 (Windows NT 10.0; Win64; x64) AppleWebKit/537.36 (KHTML, like Gecko) Chrome/65.0.3325.146 Safari/537.36"}}, "assignment": {"24": {"stimulus": 32, "trial": 24, "rt": 1094, "correctcat": 0, "response": 0}, "25": {"stimulus": 30, "trial": 25, "rt": 739, "correctcat": 0, "response": 0}, "26": {"stimulus": 74, "trial": 26, "rt": 1178, "correctcat": 1, "response": 1}, "27": {"stimulus": 80, "trial": 27, "rt": 669, "correctcat": 1, "response": 1}, "20": {"stimulus": 80, "trial": 20, "rt": 5602, "correctcat": 1, "response": 1}, "21": {"stimulus": 14, "trial": 21, "rt": 921, "correctcat": 0, "response": 0}, "22": {"stimulus": 12, "trial": 22, "rt": 1017, "correctcat": 0, "response": 0}, "23": {"stimulus": 30, "trial": 23, "rt": 2467, "correctcat": 0, "response": 0}, "28": {"stimulus": 14, "trial": 28, "rt": 1354, "correctcat": 0, "response": 0}, "29": {"stimulus": 78, "trial": 29, "rt": 1136, "correctcat": 1, "response": 1}, "1": {"stimulus": 30, "trial": 1, "rt": 1337, "correctcat": 0, "response": 0}, "0": {"stimulus": 72, "trial": 0, "rt": 4811, "correctcat": 1, "response": 1}, "3": {"stimulus": 80, "trial": 3, "rt": 2351, "correctcat": 1, "response": 1}, "2": {"stimulus": 78, "trial": 2, "rt": 1573, "correctcat": 1, "response": 1}, "5": {"stimulus": 74, "trial": 5, "rt": 1009, "correctcat": 1, "response": 1}, "4": {"stimulus": 32, "trial": 4, "rt": 738, "correctcat": 0, "response": 0}, "7": {"stimulus": 14, "trial": 7, "rt": 1039, "correctcat": 0, "response": 0}, "6": {"stimulus": 12, "trial": 6, "rt": 1141, "correctcat": 0, "response": 0}, "9": {"stimulus": 74, "trial": 9, "rt": 970, "correctcat": 1, "response": 1}, "8": {"stimulus": 14, "trial": 8, "rt": 1174, "correctcat": 0, "response": 0}, "11": {"stimulus": 30, "trial": 11, "rt": 1131, "correctcat": 0, "response": 0}, "10": {"stimulus": 32, "trial": 10, "rt": 906, "correctcat": 0, "response": 0}, "13": {"stimulus": 12, "trial": 13, "rt": 985, "correctcat": 0, "response": 0}, "12": {"stimulus": 80, "trial": 12, "rt": 640, "correctcat": 1, "response": 1}, "15": {"stimulus": 72, "trial": 15, "rt": 693, "correctcat": 1, "response": 1}, "14": {"stimulus": 78, "trial": 14, "rt": 1313, "correctcat": 1, "response": 1}, "17": {"stimulus": 74, "trial": 17, "rt": 1248, "correctcat": 1, "response": 1}, "16": {"stimulus": 72, "trial": 16, "rt": 518, "correctcat": 1, "response": 1}, "19": {"stimulus": 78, "trial": 19, "rt": 1157, "correctcat": 1, "response": 1}, "18": {"stimulus": 32, "trial": 18, "rt": 1401, "correctcat": 0, "response": 0}, "31": {"stimulus": 72, "trial": 31, "rt": 938, "correctcat": 1, "response": 1}, "30": {"stimulus": 12, "trial": 30, "rt": 810, "correctcat": 0, "response": 0}}, "experiment": {"Paradigm": "TACL", "Stimuli": "Size-Color Squares", "Experiment": "Assigning-Generated-Categories"}, "goodness": {"1": {"stimulus": 74, "trial": 1, "categoryRate": "NA", "rt": 2429, "rating": 10}, "0": {"stimulus": 80, "trial": 0, "categoryRate": "NA", "rt": 11638, "rating": 10}, "3": {"stimulus": 30, "trial": 3, "categoryRate": "NA", "rt": 6726, "rating": 8}, "2": {"stimulus": 12, "trial": 2, "categoryRate": "NA", "rt": 5081, "rating": 10}, "5": {"stimulus": 78, "trial": 5, "categoryRate": "NA", "rt": 2225, "rating": 10}, "4": {"stimulus": 32, "trial": 4, "categoryRate": "NA", "rt": 2620, "rating": 8}, "7": {"stimulus": 72, "trial": 7, "categoryRate": "NA", "rt": 2205, "rating": 10}, "6": {"stimulus": 14, "trial": 6, "categoryRate": "NA", "rt": 2976, "rating": 10}, "9": {"stimulus": -1, "trial": 9, "categoryRate": "Beta", "rt": 2595, "rating": 10}, "8": {"stimulus": -1, "trial": 8, "categoryRate": "Alpha", "rt": 10033, "rating": 10}}, "submit": {"timeTotal": 237292, "age": "24", "comments": "great survey!", "sex": "male"}}