{"info": {"finish": 1521096944591, "participant": 91, "exposed": true, "stimuli": [12, 14, 30, 32, 79, 80, 76, 78], "lab": false, "pptmatch": 91, "start": 1521096428385, "catflip": false, "categories": [0, 0, 0, 0, 1, 1, 1, 1], "counterbalance": 3, "condition": "Bottom", "browser": {"platform": "Win32", "userAgent": "Mozilla/5.0 (Windows NT 10.0; Win64; x64) AppleWebKit/537.36 (KHTML, like Gecko) Chrome/64.0.3282.186 Safari/537.36"}}, "assignment": {"24": {"stimulus": 78, "trial": 24, "rt": 1988, "correctcat": 1, "response": 1}, "25": {"stimulus": 76, "trial": 25, "rt": 1380, "correctcat": 1, "response": 1}, "26": {"stimulus": 80, "trial": 26, "rt": 885, "correctcat": 1, "response": 1}, "27": {"stimulus": 79, "trial": 27, "rt": 1407, "correctcat": 1, "response": 1}, "20": {"stimulus": 30, "trial": 20, "rt": 2190, "correctcat": 0, "response": 0}, "21": {"stimulus": 79, "trial": 21, "rt": 803, "correctcat": 1, "response": 0}, "22": {"stimulus": 32, "trial": 22, "rt": 1448, "correctcat": 0, "response": 0}, "23": {"stimulus": 80, "trial": 23, "rt": 1130, "correctcat": 1, "response": 1}, "28": {"stimulus": 12, "trial": 28, "rt": 1328, "correctcat": 0, "response": 0}, "29": {"stimulus": 14, "trial": 29, "rt": 1485, "correctcat": 0, "response": 0}, "1": {"stimulus": 78, "trial": 1, "rt": 1765, "correctcat": 1, "response": 1}, "0": {"stimulus": 76, "trial": 0, "rt": 1871, "correctcat": 1, "response": 0}, "3": {"stimulus": 30, "trial": 3, "rt": 1147, "correctcat": 0, "response": 0}, "2": {"stimulus": 79, "trial": 2, "rt": 994, "correctcat": 1, "response": 1}, "5": {"stimulus": 80, "trial": 5, "rt": 2068, "correctcat": 1, "response": 1}, "4": {"stimulus": 14, "trial": 4, "rt": 1022, "correctcat": 0, "response": 1}, "7": {"stimulus": 12, "trial": 7, "rt": 604, "correctcat": 0, "response": 0}, "6": {"stimulus": 32, "trial": 6, "rt": 850, "correctcat": 0, "response": 0}, "9": {"stimulus": 80, "trial": 9, "rt": 1695, "correctcat": 1, "response": 0}, "8": {"stimulus": 78, "trial": 8, "rt": 1020, "correctcat": 1, "response": 1}, "11": {"stimulus": 32, "trial": 11, "rt": 2165, "correctcat": 0, "response": 0}, "10": {"stimulus": 12, "trial": 10, "rt": 983, "correctcat": 0, "response": 0}, "13": {"stimulus": 30, "trial": 13, "rt": 759, "correctcat": 0, "response": 0}, "12": {"stimulus": 14, "trial": 12, "rt": 1156, "correctcat": 0, "response": 0}, "15": {"stimulus": 76, "trial": 15, "rt": 985, "correctcat": 1, "response": 1}, "14": {"stimulus": 79, "trial": 14, "rt": 1424, "correctcat": 1, "response": 1}, "17": {"stimulus": 14, "trial": 17, "rt": 1123, "correctcat": 0, "response": 0}, "16": {"stimulus": 12, "trial": 16, "rt": 1547, "correctcat": 0, "response": 0}, "19": {"stimulus": 76, "trial": 19, "rt": 1792, "correctcat": 1, "response": 1}, "18": {"stimulus": 78, "trial": 18, "rt": 2143, "correctcat": 1, "response": 1}, "31": {"stimulus": 30, "trial": 31, "rt": 668, "correctcat": 0, "response": 0}, "30": {"stimulus": 32, "trial": 30, "rt": 689, "correctcat": 0, "response": 0}}, "experiment": {"Paradigm": "TACL", "Stimuli": "Size-Color Squares", "Experiment": "Assigning-Generated-Categories"}, "goodness": {"1": {"stimulus": 14, "trial": 1, "categoryRate": "NA", "rt": 2055, "rating": 9}, "0": {"stimulus": 12, "trial": 0, "categoryRate": "NA", "rt": 11370, "rating": 8}, "3": {"stimulus": 76, "trial": 3, "categoryRate": "NA", "rt": 2439, "rating": 10}, "2": {"stimulus": 32, "trial": 2, "categoryRate": "NA", "rt": 2807, "rating": 7}, "5": {"stimulus": 30, "trial": 5, "categoryRate": "NA", "rt": 1902, "rating": 10}, "4": {"stimulus": 80, "trial": 4, "categoryRate": "NA", "rt": 2113, "rating": 10}, "7": {"stimulus": 78, "trial": 7, "categoryRate": "NA", "rt": 2240, "rating": 10}, "6": {"stimulus": 79, "trial": 6, "categoryRate": "NA", "rt": 2023, "rating": 10}, "9": {"stimulus": -1, "trial": 9, "categoryRate": "Beta", "rt": 5694, "rating": 10}, "8": {"stimulus": -1, "trial": 8, "categoryRate": "Alpha", "rt": 15251, "rating": 8}}, "submit": {"timeTotal": 516587, "age": "36", "comments": "", "sex": "Female"}}