{"info": {"finish": 1521096838168, "participant": 92, "exposed": true, "stimuli": [12, 14, 30, 32, 0, 72, 18, 36], "lab": false, "pptmatch": 92, "start": 1521096563878, "catflip": true, "categories": [1, 1, 1, 1, 0, 0, 0, 0], "counterbalance": 0, "condition": "Bottom", "browser": {"platform": "Win32", "userAgent": "Mozilla/5.0 (Windows NT 6.3; Win64; x64) AppleWebKit/537.36 (KHTML, like Gecko) Chrome/64.0.3282.186 Safari/537.36"}}, "assignment": {"24": {"stimulus": 30, "trial": 24, "rt": 1506, "correctcat": 1, "response": 1}, "25": {"stimulus": 36, "trial": 25, "rt": 2584, "correctcat": 0, "response": 0}, "26": {"stimulus": 72, "trial": 26, "rt": 3256, "correctcat": 0, "response": 0}, "27": {"stimulus": 12, "trial": 27, "rt": 2206, "correctcat": 1, "response": 0}, "20": {"stimulus": 32, "trial": 20, "rt": 1341, "correctcat": 1, "response": 0}, "21": {"stimulus": 72, "trial": 21, "rt": 1185, "correctcat": 0, "response": 0}, "22": {"stimulus": 14, "trial": 22, "rt": 1958, "correctcat": 1, "response": 1}, "23": {"stimulus": 0, "trial": 23, "rt": 1167, "correctcat": 0, "response": 1}, "28": {"stimulus": 18, "trial": 28, "rt": 2407, "correctcat": 0, "response": 1}, "29": {"stimulus": 14, "trial": 29, "rt": 1705, "correctcat": 1, "response": 0}, "1": {"stimulus": 18, "trial": 1, "rt": 1451, "correctcat": 0, "response": 1}, "0": {"stimulus": 0, "trial": 0, "rt": 4539, "correctcat": 0, "response": 0}, "3": {"stimulus": 36, "trial": 3, "rt": 1281, "correctcat": 0, "response": 0}, "2": {"stimulus": 12, "trial": 2, "rt": 1338, "correctcat": 1, "response": 0}, "5": {"stimulus": 14, "trial": 5, "rt": 1048, "correctcat": 1, "response": 1}, "4": {"stimulus": 72, "trial": 4, "rt": 1942, "correctcat": 0, "response": 1}, "7": {"stimulus": 32, "trial": 7, "rt": 1286, "correctcat": 1, "response": 0}, "6": {"stimulus": 30, "trial": 6, "rt": 1457, "correctcat": 1, "response": 0}, "9": {"stimulus": 0, "trial": 9, "rt": 1528, "correctcat": 0, "response": 1}, "8": {"stimulus": 32, "trial": 8, "rt": 1498, "correctcat": 1, "response": 1}, "11": {"stimulus": 30, "trial": 11, "rt": 1540, "correctcat": 1, "response": 1}, "10": {"stimulus": 36, "trial": 10, "rt": 1911, "correctcat": 0, "response": 0}, "13": {"stimulus": 18, "trial": 13, "rt": 1451, "correctcat": 0, "response": 1}, "12": {"stimulus": 12, "trial": 12, "rt": 1282, "correctcat": 1, "response": 1}, "15": {"stimulus": 14, "trial": 15, "rt": 1738, "correctcat": 1, "response": 1}, "14": {"stimulus": 72, "trial": 14, "rt": 9619, "correctcat": 0, "response": 0}, "17": {"stimulus": 12, "trial": 17, "rt": 1824, "correctcat": 1, "response": 1}, "16": {"stimulus": 30, "trial": 16, "rt": 1589, "correctcat": 1, "response": 0}, "19": {"stimulus": 36, "trial": 19, "rt": 1472, "correctcat": 0, "response": 0}, "18": {"stimulus": 18, "trial": 18, "rt": 1651, "correctcat": 0, "response": 1}, "31": {"stimulus": 0, "trial": 31, "rt": 5298, "correctcat": 0, "response": 0}, "30": {"stimulus": 32, "trial": 30, "rt": 3741, "correctcat": 1, "response": 1}}, "experiment": {"Paradigm": "TACL", "Stimuli": "Size-Color Squares", "Experiment": "Assigning-Generated-Categories"}, "goodness": {"1": {"stimulus": 18, "trial": 1, "categoryRate": "NA", "rt": 4393, "rating": 7}, "0": {"stimulus": 30, "trial": 0, "categoryRate": "NA", "rt": 7250, "rating": 4}, "3": {"stimulus": 72, "trial": 3, "categoryRate": "NA", "rt": 3913, "rating": 1}, "2": {"stimulus": 32, "trial": 2, "categoryRate": "NA", "rt": 9182, "rating": 7}, "5": {"stimulus": 12, "trial": 5, "categoryRate": "NA", "rt": 2683, "rating": 10}, "4": {"stimulus": 0, "trial": 4, "categoryRate": "NA", "rt": 3357, "rating": 10}, "7": {"stimulus": 36, "trial": 7, "categoryRate": "NA", "rt": 2848, "rating": 4}, "6": {"stimulus": 14, "trial": 6, "categoryRate": "NA", "rt": 2711, "rating": 10}, "9": {"stimulus": -1, "trial": 9, "categoryRate": "Beta", "rt": 5109, "rating": 7}, "8": {"stimulus": -1, "trial": 8, "categoryRate": "Alpha", "rt": 6846, "rating": 7}}, "submit": {"timeTotal": 274461, "age": "25", "comments": "good experience ", "sex": "Female "}}