{"info": {"finish": 1521097491193, "participant": 94, "exposed": true, "stimuli": [12, 14, 30, 32, 51, 33, 60, 61], "lab": false, "pptmatch": 94, "start": 1521097241938, "catflip": false, "categories": [0, 0, 0, 0, 1, 1, 1, 1], "counterbalance": 4, "condition": "Bottom", "browser": {"platform": "Win32", "userAgent": "Mozilla/5.0 (Windows NT 6.1) AppleWebKit/537.36 (KHTML, like Gecko) Chrome/64.0.3282.186 Safari/537.36"}}, "assignment": {"24": {"stimulus": 33, "trial": 24, "rt": 2486, "correctcat": 1, "response": 1}, "25": {"stimulus": 60, "trial": 25, "rt": 3943, "correctcat": 1, "response": 1}, "26": {"stimulus": 51, "trial": 26, "rt": 2111, "correctcat": 1, "response": 1}, "27": {"stimulus": 30, "trial": 27, "rt": 1099, "correctcat": 0, "response": 0}, "20": {"stimulus": 61, "trial": 20, "rt": 1992, "correctcat": 1, "response": 1}, "21": {"stimulus": 51, "trial": 21, "rt": 1501, "correctcat": 1, "response": 1}, "22": {"stimulus": 60, "trial": 22, "rt": 1039, "correctcat": 1, "response": 1}, "23": {"stimulus": 33, "trial": 23, "rt": 1610, "correctcat": 1, "response": 0}, "28": {"stimulus": 14, "trial": 28, "rt": 2035, "correctcat": 0, "response": 1}, "29": {"stimulus": 32, "trial": 29, "rt": 1590, "correctcat": 0, "response": 1}, "1": {"stimulus": 12, "trial": 1, "rt": 2528, "correctcat": 0, "response": 1}, "0": {"stimulus": 32, "trial": 0, "rt": 4367, "correctcat": 0, "response": 0}, "3": {"stimulus": 33, "trial": 3, "rt": 1425, "correctcat": 1, "response": 0}, "2": {"stimulus": 60, "trial": 2, "rt": 2120, "correctcat": 1, "response": 1}, "5": {"stimulus": 14, "trial": 5, "rt": 1991, "correctcat": 0, "response": 1}, "4": {"stimulus": 61, "trial": 4, "rt": 2696, "correctcat": 1, "response": 0}, "7": {"stimulus": 51, "trial": 7, "rt": 3550, "correctcat": 1, "response": 1}, "6": {"stimulus": 30, "trial": 6, "rt": 1672, "correctcat": 0, "response": 0}, "9": {"stimulus": 14, "trial": 9, "rt": 2695, "correctcat": 0, "response": 1}, "8": {"stimulus": 61, "trial": 8, "rt": 1729, "correctcat": 1, "response": 1}, "11": {"stimulus": 60, "trial": 11, "rt": 2511, "correctcat": 1, "response": 1}, "10": {"stimulus": 33, "trial": 10, "rt": 3431, "correctcat": 1, "response": 0}, "13": {"stimulus": 12, "trial": 13, "rt": 5175, "correctcat": 0, "response": 0}, "12": {"stimulus": 32, "trial": 12, "rt": 3448, "correctcat": 0, "response": 0}, "15": {"stimulus": 30, "trial": 15, "rt": 2512, "correctcat": 0, "response": 0}, "14": {"stimulus": 51, "trial": 14, "rt": 1623, "correctcat": 1, "response": 0}, "17": {"stimulus": 14, "trial": 17, "rt": 1487, "correctcat": 0, "response": 0}, "16": {"stimulus": 12, "trial": 16, "rt": 1375, "correctcat": 0, "response": 0}, "19": {"stimulus": 32, "trial": 19, "rt": 1816, "correctcat": 0, "response": 0}, "18": {"stimulus": 30, "trial": 18, "rt": 1152, "correctcat": 0, "response": 1}, "31": {"stimulus": 61, "trial": 31, "rt": 2448, "correctcat": 1, "response": 1}, "30": {"stimulus": 12, "trial": 30, "rt": 2056, "correctcat": 0, "response": 0}}, "experiment": {"Paradigm": "TACL", "Stimuli": "Size-Color Squares", "Experiment": "Assigning-Generated-Categories"}, "goodness": {"1": {"stimulus": 51, "trial": 1, "categoryRate": "NA", "rt": 3755, "rating": 2}, "0": {"stimulus": 60, "trial": 0, "categoryRate": "NA", "rt": 13366, "rating": 6}, "3": {"stimulus": 12, "trial": 3, "categoryRate": "NA", "rt": 2404, "rating": 4}, "2": {"stimulus": 30, "trial": 2, "categoryRate": "NA", "rt": 3151, "rating": 3}, "5": {"stimulus": 14, "trial": 5, "categoryRate": "NA", "rt": 2695, "rating": 3}, "4": {"stimulus": 33, "trial": 4, "categoryRate": "NA", "rt": 2652, "rating": 6}, "7": {"stimulus": 32, "trial": 7, "categoryRate": "NA", "rt": 3597, "rating": 6}, "6": {"stimulus": 61, "trial": 6, "categoryRate": "NA", "rt": 2526, "rating": 7}, "9": {"stimulus": -1, "trial": 9, "categoryRate": "Beta", "rt": 7547, "rating": 8}, "8": {"stimulus": -1, "trial": 8, "categoryRate": "Alpha", "rt": 17884, "rating": 4}}, "submit": {"timeTotal": 249528, "age": "47", "comments": "It was fine.", "sex": "male"}}