{"info": {"finish": 1521100545142, "participant": 97, "exposed": true, "stimuli": [30, 32, 48, 50, 79, 8, 70, 17], "lab": false, "pptmatch": 97, "start": 1521100286722, "catflip": true, "categories": [1, 1, 1, 1, 0, 0, 0, 0], "counterbalance": 3, "condition": "Middle", "browser": {"platform": "Win64", "userAgent": "Mozilla/5.0 (Windows NT 10.0; Win64; x64; rv:59.0) Gecko/20100101 Firefox/59.0"}}, "assignment": {"24": {"stimulus": 70, "trial": 24, "rt": 1186, "correctcat": 0, "response": 0}, "25": {"stimulus": 8, "trial": 25, "rt": 824, "correctcat": 0, "response": 0}, "26": {"stimulus": 17, "trial": 26, "rt": 710, "correctcat": 0, "response": 0}, "27": {"stimulus": 32, "trial": 27, "rt": 742, "correctcat": 1, "response": 1}, "20": {"stimulus": 17, "trial": 20, "rt": 870, "correctcat": 0, "response": 0}, "21": {"stimulus": 48, "trial": 21, "rt": 1070, "correctcat": 1, "response": 1}, "22": {"stimulus": 79, "trial": 22, "rt": 644, "correctcat": 0, "response": 0}, "23": {"stimulus": 30, "trial": 23, "rt": 588, "correctcat": 1, "response": 1}, "28": {"stimulus": 48, "trial": 28, "rt": 854, "correctcat": 1, "response": 1}, "29": {"stimulus": 50, "trial": 29, "rt": 676, "correctcat": 1, "response": 1}, "1": {"stimulus": 70, "trial": 1, "rt": 1130, "correctcat": 0, "response": 0}, "0": {"stimulus": 48, "trial": 0, "rt": 2864, "correctcat": 1, "response": 1}, "3": {"stimulus": 50, "trial": 3, "rt": 828, "correctcat": 1, "response": 1}, "2": {"stimulus": 30, "trial": 2, "rt": 1494, "correctcat": 1, "response": 1}, "5": {"stimulus": 32, "trial": 5, "rt": 950, "correctcat": 1, "response": 1}, "4": {"stimulus": 17, "trial": 4, "rt": 810, "correctcat": 0, "response": 1}, "7": {"stimulus": 8, "trial": 7, "rt": 952, "correctcat": 0, "response": 0}, "6": {"stimulus": 79, "trial": 6, "rt": 846, "correctcat": 0, "response": 0}, "9": {"stimulus": 8, "trial": 9, "rt": 860, "correctcat": 0, "response": 0}, "8": {"stimulus": 32, "trial": 8, "rt": 1112, "correctcat": 1, "response": 1}, "11": {"stimulus": 48, "trial": 11, "rt": 1192, "correctcat": 1, "response": 1}, "10": {"stimulus": 17, "trial": 10, "rt": 872, "correctcat": 0, "response": 0}, "13": {"stimulus": 50, "trial": 13, "rt": 806, "correctcat": 1, "response": 1}, "12": {"stimulus": 79, "trial": 12, "rt": 806, "correctcat": 0, "response": 0}, "15": {"stimulus": 70, "trial": 15, "rt": 1810, "correctcat": 0, "response": 0}, "14": {"stimulus": 30, "trial": 14, "rt": 916, "correctcat": 1, "response": 1}, "17": {"stimulus": 70, "trial": 17, "rt": 740, "correctcat": 0, "response": 0}, "16": {"stimulus": 8, "trial": 16, "rt": 736, "correctcat": 0, "response": 0}, "19": {"stimulus": 50, "trial": 19, "rt": 830, "correctcat": 1, "response": 1}, "18": {"stimulus": 32, "trial": 18, "rt": 1098, "correctcat": 1, "response": 1}, "31": {"stimulus": 79, "trial": 31, "rt": 592, "correctcat": 0, "response": 0}, "30": {"stimulus": 30, "trial": 30, "rt": 590, "correctcat": 1, "response": 1}}, "experiment": {"Paradigm": "TACL", "Stimuli": "Size-Color Squares", "Experiment": "Assigning-Generated-Categories"}, "goodness": {"1": {"stimulus": 50, "trial": 1, "categoryRate": "NA", "rt": 2958, "rating": 8}, "0": {"stimulus": 30, "trial": 0, "categoryRate": "NA", "rt": 7928, "rating": 7}, "3": {"stimulus": 79, "trial": 3, "categoryRate": "NA", "rt": 3824, "rating": 10}, "2": {"stimulus": 32, "trial": 2, "categoryRate": "NA", "rt": 2222, "rating": 7}, "5": {"stimulus": 8, "trial": 5, "categoryRate": "NA", "rt": 5056, "rating": 10}, "4": {"stimulus": 48, "trial": 4, "categoryRate": "NA", "rt": 3428, "rating": 8}, "7": {"stimulus": 70, "trial": 7, "categoryRate": "NA", "rt": 4038, "rating": 6}, "6": {"stimulus": 17, "trial": 6, "categoryRate": "NA", "rt": 8190, "rating": 6}, "9": {"stimulus": -1, "trial": 9, "categoryRate": "Beta", "rt": 8488, "rating": 8}, "8": {"stimulus": -1, "trial": 8, "categoryRate": "Alpha", "rt": 17280, "rating": 5}}, "submit": {}}