{"info": {"finish": 1554165164581, "participant": 244, "exposed": true, "lab": true, "start": 1554164734263, "counterbalance": 1, "stimtype": "Squares", "gentype": 1, "condition": "Corner_S", "browser": {"platform": "MacIntel", "userAgent": "Mozilla/5.0 (Macintosh; Intel Mac OS X 10.14; rv:66.0) Gecko/20100101 Firefox/66.0"}}, "observation": {"11": {"stimulus": 80, "trial": 11, "rt": 1413}, "10": {"stimulus": 72, "trial": 10, "rt": 1374}, "1": {"stimulus": 0, "trial": 1, "rt": 1376}, "0": {"stimulus": 8, "trial": 0, "rt": 1403}, "3": {"stimulus": 80, "trial": 3, "rt": 1417}, "2": {"stimulus": 72, "trial": 2, "rt": 1205}, "5": {"stimulus": 0, "trial": 5, "rt": 1345}, "4": {"stimulus": 72, "trial": 4, "rt": 1467}, "7": {"stimulus": 80, "trial": 7, "rt": 1484}, "6": {"stimulus": 8, "trial": 6, "rt": 1485}, "9": {"stimulus": 0, "trial": 9, "rt": 1304}, "8": {"stimulus": 8, "trial": 8, "rt": 1504}}, "generation": {"1": {"category": "Beta", "trial": 1, "stimulus": 41, "rt": 5018}, "0": {"category": "Beta", "trial": 0, "stimulus": 50, "rt": 2617}, "3": {"category": "Beta", "trial": 3, "stimulus": 5, "rt": 2415}, "2": {"category": "Beta", "trial": 2, "stimulus": 23, "rt": 1945}}, "generalization": {"56": {"stimulus": 41, "trial": 56, "rt": 357, "response": "Beta"}, "77": {"stimulus": 72, "trial": 77, "rt": 914, "response": "Beta"}, "54": {"stimulus": 75, "trial": 54, "rt": 1036, "response": "Alpha"}, "42": {"stimulus": 77, "trial": 42, "rt": 1126, "response": "Alpha"}, "48": {"stimulus": 40, "trial": 48, "rt": 706, "response": "Alpha"}, "43": {"stimulus": 8, "trial": 43, "rt": 1295, "response": "Alpha"}, "60": {"stimulus": 16, "trial": 60, "rt": 576, "response": "Beta"}, "61": {"stimulus": 11, "trial": 61, "rt": 387, "response": "Beta"}, "62": {"stimulus": 78, "trial": 62, "rt": 478, "response": "Beta"}, "63": {"stimulus": 30, "trial": 63, "rt": 488, "response": "Beta"}, "64": {"stimulus": 56, "trial": 64, "rt": 668, "response": "Beta"}, "49": {"stimulus": 69, "trial": 49, "rt": 1956, "response": "Alpha"}, "66": {"stimulus": 10, "trial": 66, "rt": 905, "response": "Beta"}, "67": {"stimulus": 33, "trial": 67, "rt": 678, "response": "Beta"}, "68": {"stimulus": 9, "trial": 68, "rt": 970, "response": "Beta"}, "69": {"stimulus": 43, "trial": 69, "rt": 1401, "response": "Beta"}, "80": {"stimulus": 28, "trial": 80, "rt": 872, "response": "Beta"}, "52": {"stimulus": 64, "trial": 52, "rt": 755, "response": "Alpha"}, "53": {"stimulus": 68, "trial": 53, "rt": 645, "response": "Alpha"}, "24": {"stimulus": 44, "trial": 24, "rt": 3468, "response": "Alpha"}, "25": {"stimulus": 12, "trial": 25, "rt": 1391, "response": "Beta"}, "26": {"stimulus": 38, "trial": 26, "rt": 743, "response": "Beta"}, "27": {"stimulus": 23, "trial": 27, "rt": 823, "response": "Beta"}, "20": {"stimulus": 13, "trial": 20, "rt": 888, "response": "Beta"}, "21": {"stimulus": 63, "trial": 21, "rt": 199336, "response": "Alpha"}, "22": {"stimulus": 17, "trial": 22, "rt": 2003, "response": "Alpha"}, "23": {"stimulus": 55, "trial": 23, "rt": 836, "response": "Alpha"}, "46": {"stimulus": 35, "trial": 46, "rt": 538, "response": "Alpha"}, "47": {"stimulus": 4, "trial": 47, "rt": 5159, "response": "Alpha"}, "44": {"stimulus": 70, "trial": 44, "rt": 540, "response": "Alpha"}, "45": {"stimulus": 74, "trial": 45, "rt": 8911, "response": "Alpha"}, "28": {"stimulus": 34, "trial": 28, "rt": 931, "response": "Alpha"}, "29": {"stimulus": 22, "trial": 29, "rt": 1445, "response": "Beta"}, "40": {"stimulus": 71, "trial": 40, "rt": 469, "response": "Alpha"}, "41": {"stimulus": 67, "trial": 41, "rt": 532, "response": "Alpha"}, "1": {"stimulus": 0, "trial": 1, "rt": 361, "response": "Beta"}, "0": {"stimulus": 73, "trial": 0, "rt": 3073, "response": "Alpha"}, "3": {"stimulus": 47, "trial": 3, "rt": 397, "response": "Beta"}, "2": {"stimulus": 2, "trial": 2, "rt": 292, "response": "Beta"}, "5": {"stimulus": 79, "trial": 5, "rt": 429, "response": "Alpha"}, "4": {"stimulus": 46, "trial": 4, "rt": 300, "response": "Alpha"}, "7": {"stimulus": 37, "trial": 7, "rt": 421, "response": "Alpha"}, "6": {"stimulus": 62, "trial": 6, "rt": 397, "response": "Alpha"}, "9": {"stimulus": 25, "trial": 9, "rt": 391, "response": "Alpha"}, "8": {"stimulus": 24, "trial": 8, "rt": 432, "response": "Beta"}, "78": {"stimulus": 49, "trial": 78, "rt": 1422, "response": "Beta"}, "51": {"stimulus": 1, "trial": 51, "rt": 1331, "response": "Alpha"}, "39": {"stimulus": 51, "trial": 39, "rt": 577, "response": "Alpha"}, "65": {"stimulus": 76, "trial": 65, "rt": 813, "response": "Beta"}, "76": {"stimulus": 53, "trial": 76, "rt": 970, "response": "Beta"}, "75": {"stimulus": 18, "trial": 75, "rt": 779, "response": "Beta"}, "38": {"stimulus": 80, "trial": 38, "rt": 650, "response": "Alpha"}, "73": {"stimulus": 42, "trial": 73, "rt": 483, "response": "Beta"}, "72": {"stimulus": 7, "trial": 72, "rt": 624, "response": "Beta"}, "71": {"stimulus": 58, "trial": 71, "rt": 484, "response": "Beta"}, "70": {"stimulus": 19, "trial": 70, "rt": 614, "response": "Beta"}, "59": {"stimulus": 27, "trial": 59, "rt": 686, "response": "Alpha"}, "79": {"stimulus": 45, "trial": 79, "rt": 508, "response": "Beta"}, "58": {"stimulus": 14, "trial": 58, "rt": 751, "response": "Beta"}, "11": {"stimulus": 60, "trial": 11, "rt": 430, "response": "Alpha"}, "10": {"stimulus": 32, "trial": 10, "rt": 437, "response": "Beta"}, "13": {"stimulus": 48, "trial": 13, "rt": 446, "response": "Alpha"}, "12": {"stimulus": 29, "trial": 12, "rt": 357, "response": "Beta"}, "15": {"stimulus": 36, "trial": 15, "rt": 779, "response": "Alpha"}, "14": {"stimulus": 15, "trial": 14, "rt": 528, "response": "Beta"}, "17": {"stimulus": 26, "trial": 17, "rt": 908, "response": "Beta"}, "16": {"stimulus": 5, "trial": 16, "rt": 6459, "response": "Alpha"}, "19": {"stimulus": 50, "trial": 19, "rt": 517, "response": "Beta"}, "18": {"stimulus": 6, "trial": 18, "rt": 669, "response": "Beta"}, "31": {"stimulus": 61, "trial": 31, "rt": 10868, "response": "Beta"}, "30": {"stimulus": 57, "trial": 30, "rt": 756, "response": "Beta"}, "37": {"stimulus": 65, "trial": 37, "rt": 663, "response": "Beta"}, "36": {"stimulus": 66, "trial": 36, "rt": 478, "response": "Beta"}, "35": {"stimulus": 21, "trial": 35, "rt": 1076, "response": "Alpha"}, "34": {"stimulus": 59, "trial": 34, "rt": 974, "response": "Beta"}, "33": {"stimulus": 20, "trial": 33, "rt": 745, "response": "Beta"}, "55": {"stimulus": 0, "trial": 55, "rt": 446, "response": "Beta"}, "74": {"stimulus": 54, "trial": 74, "rt": 971, "response": "Beta"}, "32": {"stimulus": 52, "trial": 32, "rt": 647, "response": "Beta"}, "57": {"stimulus": 3, "trial": 57, "rt": 719, "response": "Beta"}, "50": {"stimulus": 31, "trial": 50, "rt": 955, "response": "Alpha"}}, "experiment": {"Paradigm": "TACL", "Stimuli": "Size-Color Squares and Size-Orientation Circles", "Experiment": "Generating-Multiple-Categories"}, "submit": {"timeTotal": 430420, "age": "88", "comments": "j", "sex": "8"}}