{"info": {"finish": 1548030786543, "participant": 83, "exposed": false, "lab": null, "start": 1548030668024, "counterbalance": 0, "gentype": 1, "condition": "XOR", "browser": {"platform": "MacIntel", "userAgent": "Mozilla/5.0 (Macintosh; Intel Mac OS X 10.14; rv:64.0) Gecko/20100101 Firefox/64.0"}}, "observation": {}, "generation": {}, "generalization": {"56": {"stimulus": 937, "trial": 56, "rt": 310, "response": "Beta"}, "77": {"stimulus": 187, "trial": 77, "rt": 187, "response": "Alpha"}, "54": {"stimulus": 687, "trial": 54, "rt": 196, "response": "Beta"}, "42": {"stimulus": 749, "trial": 42, "rt": 251, "response": "Beta"}, "48": {"stimulus": 780, "trial": 48, "rt": 408, "response": "Beta"}, "43": {"stimulus": 437, "trial": 43, "rt": 340, "response": "Beta"}, "60": {"stimulus": 1062, "trial": 60, "rt": 228, "response": "Beta"}, "61": {"stimulus": 2374, "trial": 61, "rt": 224, "response": "Beta"}, "62": {"stimulus": 2312, "trial": 62, "rt": 270, "response": "Beta"}, "63": {"stimulus": 1749, "trial": 63, "rt": 274, "response": "Beta"}, "64": {"stimulus": 343, "trial": 64, "rt": 219, "response": "Beta"}, "49": {"stimulus": 1812, "trial": 49, "rt": 1493, "response": "Beta"}, "66": {"stimulus": 1280, "trial": 66, "rt": 244, "response": "Beta"}, "67": {"stimulus": 62, "trial": 67, "rt": 262, "response": "Beta"}, "68": {"stimulus": 2218, "trial": 68, "rt": 195, "response": "Beta"}, "69": {"stimulus": 405, "trial": 69, "rt": 291, "response": "Beta"}, "80": {"stimulus": 1218, "trial": 80, "rt": 512, "response": "Alpha"}, "52": {"stimulus": 499, "trial": 52, "rt": 381, "response": "Beta"}, "53": {"stimulus": 1999, "trial": 53, "rt": 815, "response": "Beta"}, "24": {"stimulus": 2343, "trial": 24, "rt": 1063, "response": "Beta"}, "25": {"stimulus": 624, "trial": 25, "rt": 375, "response": "Beta"}, "26": {"stimulus": 1718, "trial": 26, "rt": 485, "response": "Beta"}, "27": {"stimulus": 1374, "trial": 27, "rt": 264, "response": "Beta"}, "20": {"stimulus": 1937, "trial": 20, "rt": 250, "response": "Beta"}, "21": {"stimulus": 1968, "trial": 21, "rt": 228, "response": "Beta"}, "22": {"stimulus": 843, "trial": 22, "rt": 148, "response": "Beta"}, "23": {"stimulus": 1312, "trial": 23, "rt": 196, "response": "Beta"}, "46": {"stimulus": 374, "trial": 46, "rt": 308, "response": "Beta"}, "47": {"stimulus": 280, "trial": 47, "rt": 341, "response": "Beta"}, "44": {"stimulus": 999, "trial": 44, "rt": 695, "response": "Beta"}, "45": {"stimulus": 1249, "trial": 45, "rt": 291, "response": "Beta"}, "28": {"stimulus": 2405, "trial": 28, "rt": 284, "response": "Beta"}, "29": {"stimulus": 93, "trial": 29, "rt": 853, "response": "Beta"}, "40": {"stimulus": 1437, "trial": 40, "rt": 275, "response": "Beta"}, "41": {"stimulus": 1468, "trial": 41, "rt": 321, "response": "Beta"}, "1": {"stimulus": 1124, "trial": 1, "rt": 342, "response": "Beta"}, "0": {"stimulus": 218, "trial": 0, "rt": 1476, "response": "Beta"}, "3": {"stimulus": 2499, "trial": 3, "rt": 469, "response": "Beta"}, "2": {"stimulus": 312, "trial": 2, "rt": 330, "response": "Beta"}, "5": {"stimulus": 2280, "trial": 5, "rt": 380, "response": "Beta"}, "4": {"stimulus": 2249, "trial": 4, "rt": 354, "response": "Beta"}, "7": {"stimulus": 2093, "trial": 7, "rt": 508, "response": "Beta"}, "6": {"stimulus": 2030, "trial": 6, "rt": 459, "response": "Beta"}, "9": {"stimulus": 1499, "trial": 9, "rt": 364, "response": "Beta"}, "8": {"stimulus": 718, "trial": 8, "rt": 5660, "response": "Beta"}, "78": {"stimulus": 249, "trial": 78, "rt": 348, "response": "Alpha"}, "51": {"stimulus": 655, "trial": 51, "rt": 213, "response": "Beta"}, "39": {"stimulus": 0, "trial": 39, "rt": 436, "response": "Beta"}, "65": {"stimulus": 1655, "trial": 65, "rt": 267, "response": "Beta"}, "76": {"stimulus": 1530, "trial": 76, "rt": 278, "response": "Alpha"}, "75": {"stimulus": 562, "trial": 75, "rt": 204, "response": "Alpha"}, "38": {"stimulus": 1093, "trial": 38, "rt": 262, "response": "Beta"}, "73": {"stimulus": 1562, "trial": 73, "rt": 270, "response": "Alpha"}, "72": {"stimulus": 1905, "trial": 72, "rt": 156, "response": "Alpha"}, "71": {"stimulus": 1155, "trial": 71, "rt": 286, "response": "Alpha"}, "70": {"stimulus": 968, "trial": 70, "rt": 641, "response": "Beta"}, "59": {"stimulus": 30, "trial": 59, "rt": 237, "response": "Beta"}, "79": {"stimulus": 468, "trial": 79, "rt": 438, "response": "Alpha"}, "58": {"stimulus": 2468, "trial": 58, "rt": 303, "response": "Beta"}, "11": {"stimulus": 812, "trial": 11, "rt": 228, "response": "Beta"}, "10": {"stimulus": 530, "trial": 10, "rt": 324, "response": "Beta"}, "13": {"stimulus": 874, "trial": 13, "rt": 382, "response": "Beta"}, "12": {"stimulus": 2155, "trial": 12, "rt": 471, "response": "Beta"}, "15": {"stimulus": 1780, "trial": 15, "rt": 235, "response": "Beta"}, "14": {"stimulus": 124, "trial": 14, "rt": 359, "response": "Beta"}, "17": {"stimulus": 1843, "trial": 17, "rt": 260, "response": "Beta"}, "16": {"stimulus": 1687, "trial": 16, "rt": 211, "response": "Beta"}, "19": {"stimulus": 155, "trial": 19, "rt": 198, "response": "Beta"}, "18": {"stimulus": 2187, "trial": 18, "rt": 196, "response": "Beta"}, "31": {"stimulus": 1405, "trial": 31, "rt": 368, "response": "Beta"}, "30": {"stimulus": 905, "trial": 30, "rt": 295, "response": "Beta"}, "37": {"stimulus": 1593, "trial": 37, "rt": 1369, "response": "Beta"}, "36": {"stimulus": 1187, "trial": 36, "rt": 337, "response": "Beta"}, "35": {"stimulus": 2437, "trial": 35, "rt": 200, "response": "Beta"}, "34": {"stimulus": 1030, "trial": 34, "rt": 284, "response": "Beta"}, "33": {"stimulus": 2124, "trial": 33, "rt": 392, "response": "Beta"}, "55": {"stimulus": 1624, "trial": 55, "rt": 254, "response": "Beta"}, "74": {"stimulus": 593, "trial": 74, "rt": 357, "response": "Alpha"}, "32": {"stimulus": 1343, "trial": 32, "rt": 317, "response": "Beta"}, "57": {"stimulus": 2062, "trial": 57, "rt": 477, "response": "Beta"}, "50": {"stimulus": 1874, "trial": 50, "rt": 181, "response": "Beta"}}, "experiment": {"Paradigm": "TACL", "Stimuli": "Size-Color Squares", "Experiment": "Generating-Multiple-Categories"}, "submit": {"timeTotal": 118551, "age": "23", "comments": "2", "sex": "2"}}