{"info": {"participant": 0, "exposed": true, "lab": true, "start": 1534875519071, "counterbalance": 1, "gentype": 0, "condition": "Middle", "browser": {"platform": "MacIntel", "userAgent": "Mozilla/5.0 (Macintosh; Intel Mac OS X 10.13; rv:61.0) Gecko/20100101 Firefox/61.0"}}, "observation": {"1": {"stimulus": 48, "trial": 1, "rt": 1417}, "0": {"stimulus": 30, "trial": 0, "rt": 1801}, "3": {"stimulus": 50, "trial": 3, "rt": 1415}, "2": {"stimulus": 32, "trial": 2, "rt": 1370}}, "generation": {"1": {"category": "Not-Alpha", "trial": 1, "stimulus": 59, "rt": 2767}, "0": {"category": "Not-Alpha", "trial": 0, "stimulus": 13, "rt": 2771}, "3": {"category": "Not-Alpha", "trial": 3, "stimulus": 28, "rt": 1698}, "2": {"category": "Not-Alpha", "trial": 2, "stimulus": 31, "rt": 1968}, "5": {"category": "Not-Alpha", "trial": 5, "stimulus": 57, "rt": 3885}, "4": {"category": "Not-Alpha", "trial": 4, "stimulus": 14, "rt": 1381}, "7": {"category": "Not-Alpha", "trial": 7, "stimulus": 30, "rt": 1889}, "6": {"category": "Not-Alpha", "trial": 6, "stimulus": 5, "rt": 2156}}, "generalization": {"56": {"stimulus": 59, "trial": 56, "rt": 324, "response": "Beta"}, "77": {"stimulus": 72, "trial": 77, "rt": 402, "response": "Alpha"}, "54": {"stimulus": 35, "trial": 54, "rt": 1637, "response": "Alpha"}, "42": {"stimulus": 38, "trial": 42, "rt": 394, "response": "Alpha"}, "48": {"stimulus": 51, "trial": 48, "rt": 367, "response": "Alpha"}, "43": {"stimulus": 2, "trial": 43, "rt": 419, "response": "Alpha"}, "60": {"stimulus": 75, "trial": 60, "rt": 194, "response": "Alpha"}, "61": {"stimulus": 30, "trial": 61, "rt": 359, "response": "Alpha"}, "62": {"stimulus": 60, "trial": 62, "rt": 259, "response": "Alpha"}, "63": {"stimulus": 14, "trial": 63, "rt": 353, "response": "Alpha"}, "64": {"stimulus": 0, "trial": 64, "rt": 338, "response": "Alpha"}, "49": {"stimulus": 12, "trial": 49, "rt": 415, "response": "Alpha"}, "66": {"stimulus": 36, "trial": 66, "rt": 352, "response": "Alpha"}, "67": {"stimulus": 43, "trial": 67, "rt": 336, "response": "Alpha"}, "68": {"stimulus": 26, "trial": 68, "rt": 361, "response": "Alpha"}, "69": {"stimulus": 54, "trial": 69, "rt": 307, "response": "Alpha"}, "80": {"stimulus": 65, "trial": 80, "rt": 518, "response": "Alpha"}, "52": {"stimulus": 47, "trial": 52, "rt": 491, "response": "Alpha"}, "53": {"stimulus": 57, "trial": 53, "rt": 520, "response": "Alpha"}, "24": {"stimulus": 58, "trial": 24, "rt": 2046, "response": "Beta"}, "25": {"stimulus": 29, "trial": 25, "rt": 538, "response": "Beta"}, "26": {"stimulus": 76, "trial": 26, "rt": 691, "response": "Beta"}, "27": {"stimulus": 49, "trial": 27, "rt": 641, "response": "Beta"}, "20": {"stimulus": 78, "trial": 20, "rt": 510, "response": "Beta"}, "21": {"stimulus": 25, "trial": 21, "rt": 463, "response": "Beta"}, "22": {"stimulus": 19, "trial": 22, "rt": 407, "response": "Beta"}, "23": {"stimulus": 44, "trial": 23, "rt": 547, "response": "Beta"}, "46": {"stimulus": 62, "trial": 46, "rt": 647, "response": "Alpha"}, "47": {"stimulus": 74, "trial": 47, "rt": 432, "response": "Alpha"}, "44": {"stimulus": 55, "trial": 44, "rt": 936, "response": "Beta"}, "45": {"stimulus": 39, "trial": 45, "rt": 344, "response": "Alpha"}, "28": {"stimulus": 4, "trial": 28, "rt": 519, "response": "Beta"}, "29": {"stimulus": 7, "trial": 29, "rt": 460, "response": "Beta"}, "40": {"stimulus": 22, "trial": 40, "rt": 260, "response": "Beta"}, "41": {"stimulus": 9, "trial": 41, "rt": 5256, "response": "Alpha"}, "1": {"stimulus": 15, "trial": 1, "rt": 339, "response": "Alpha"}, "0": {"stimulus": 17, "trial": 0, "rt": 516, "response": "Beta"}, "3": {"stimulus": 28, "trial": 3, "rt": 397, "response": "Beta"}, "2": {"stimulus": 61, "trial": 2, "rt": 899, "response": "Beta"}, "5": {"stimulus": 34, "trial": 5, "rt": 405, "response": "Beta"}, "4": {"stimulus": 70, "trial": 4, "rt": 418, "response": "Beta"}, "7": {"stimulus": 32, "trial": 7, "rt": 336, "response": "Beta"}, "6": {"stimulus": 48, "trial": 6, "rt": 521, "response": "Beta"}, "9": {"stimulus": 37, "trial": 9, "rt": 394, "response": "Beta"}, "8": {"stimulus": 20, "trial": 8, "rt": 547, "response": "Beta"}, "78": {"stimulus": 45, "trial": 78, "rt": 490, "response": "Alpha"}, "51": {"stimulus": 50, "trial": 51, "rt": 440, "response": "Alpha"}, "39": {"stimulus": 24, "trial": 39, "rt": 307, "response": "Beta"}, "65": {"stimulus": 52, "trial": 65, "rt": 381, "response": "Alpha"}, "76": {"stimulus": 5, "trial": 76, "rt": 431, "response": "Alpha"}, "75": {"stimulus": 16, "trial": 75, "rt": 399, "response": "Alpha"}, "38": {"stimulus": 33, "trial": 38, "rt": 614, "response": "Beta"}, "73": {"stimulus": 66, "trial": 73, "rt": 241, "response": "Alpha"}, "72": {"stimulus": 68, "trial": 72, "rt": 380, "response": "Alpha"}, "71": {"stimulus": 1, "trial": 71, "rt": 311, "response": "Alpha"}, "70": {"stimulus": 79, "trial": 70, "rt": 382, "response": "Alpha"}, "59": {"stimulus": 10, "trial": 59, "rt": 340, "response": "Beta"}, "79": {"stimulus": 42, "trial": 79, "rt": 359, "response": "Alpha"}, "58": {"stimulus": 46, "trial": 58, "rt": 381, "response": "Alpha"}, "11": {"stimulus": 6, "trial": 11, "rt": 155, "response": "Beta"}, "10": {"stimulus": 40, "trial": 10, "rt": 548, "response": "Beta"}, "13": {"stimulus": 80, "trial": 13, "rt": 508, "response": "Beta"}, "12": {"stimulus": 67, "trial": 12, "rt": 775, "response": "Beta"}, "15": {"stimulus": 13, "trial": 15, "rt": 682, "response": "Beta"}, "14": {"stimulus": 73, "trial": 14, "rt": 552, "response": "Beta"}, "17": {"stimulus": 53, "trial": 17, "rt": 466, "response": "Beta"}, "16": {"stimulus": 71, "trial": 16, "rt": 648, "response": "Beta"}, "19": {"stimulus": 41, "trial": 19, "rt": 400, "response": "Beta"}, "18": {"stimulus": 21, "trial": 18, "rt": 475, "response": "Beta"}, "31": {"stimulus": 11, "trial": 31, "rt": 373, "response": "Beta"}, "30": {"stimulus": 23, "trial": 30, "rt": 415, "response": "Beta"}, "37": {"stimulus": 8, "trial": 37, "rt": 420, "response": "Beta"}, "36": {"stimulus": 27, "trial": 36, "rt": 409, "response": "Beta"}, "35": {"stimulus": 18, "trial": 35, "rt": 375, "response": "Beta"}, "34": {"stimulus": 64, "trial": 34, "rt": 351, "response": "Beta"}, "33": {"stimulus": 77, "trial": 33, "rt": 483, "response": "Beta"}, "55": {"stimulus": 69, "trial": 55, "rt": 389, "response": "Alpha"}, "74": {"stimulus": 31, "trial": 74, "rt": 361, "response": "Alpha"}, "32": {"stimulus": 56, "trial": 32, "rt": 453, "response": "Beta"}, "57": {"stimulus": 63, "trial": 57, "rt": 447, "response": "Alpha"}, "50": {"stimulus": 3, "trial": 50, "rt": 383, "response": "Beta"}}, "experiment": {"Paradigm": "TACL", "Stimuli": "Size-Color Squares", "Experiment": "Generating-Multiple-Categories"}, "submit": {}}tegories"}, "submit": {}}