{"info": {"participant": 1, "exposed": true, "lab": true, "start": 1534885977140, "counterbalance": 4, "gentype": 2, "condition": "Bottom", "browser": {"platform": "MacIntel", "userAgent": "Mozilla/5.0 (Macintosh; Intel Mac OS X 10.13; rv:61.0) Gecko/20100101 Firefox/61.0"}}, "observation": {"11": {"stimulus": 30, "trial": 11, "rt": 1434}, "10": {"stimulus": 12, "trial": 10, "rt": 1408}, "1": {"stimulus": 12, "trial": 1, "rt": 1134}, "0": {"stimulus": 14, "trial": 0, "rt": 3517}, "3": {"stimulus": 32, "trial": 3, "rt": 1565}, "2": {"stimulus": 30, "trial": 2, "rt": 1299}, "5": {"stimulus": 30, "trial": 5, "rt": 1612}, "4": {"stimulus": 12, "trial": 4, "rt": 1458}, "7": {"stimulus": 32, "trial": 7, "rt": 1455}, "6": {"stimulus": 14, "trial": 6, "rt": 1412}, "9": {"stimulus": 32, "trial": 9, "rt": 1384}, "8": {"stimulus": 14, "trial": 8, "rt": 1477}}, "generation": {"1": {"category": "Beta", "trial": 1, "stimulus": 20, "rt": 2083}, "0": {"category": "Beta", "trial": 0, "stimulus": 47, "rt": 2673}, "3": {"category": "Beta", "trial": 3, "stimulus": 51, "rt": 1106}, "2": {"category": "Beta", "trial": 2, "stimulus": 52, "rt": 4273}, "5": {"category": "Gamma", "trial": 5, "stimulus": 49, "rt": 1834}, "4": {"category": "Gamma", "trial": 4, "stimulus": 14, "rt": 3229}, "7": {"category": "Gamma", "trial": 7, "stimulus": 52, "rt": 3507}, "6": {"category": "Gamma", "trial": 6, "stimulus": 47, "rt": 2370}}, "generalization": {"56": {"stimulus": 5, "trial": 56, "rt": 391, "response": "Alpha"}, "77": {"stimulus": 22, "trial": 77, "rt": 467, "response": "Alpha"}, "54": {"stimulus": 46, "trial": 54, "rt": 451, "response": "Alpha"}, "42": {"stimulus": 57, "trial": 42, "rt": 506, "response": "Alpha"}, "48": {"stimulus": 25, "trial": 48, "rt": 433, "response": "Alpha"}, "43": {"stimulus": 0, "trial": 43, "rt": 458, "response": "Alpha"}, "60": {"stimulus": 2, "trial": 60, "rt": 431, "response": "Alpha"}, "61": {"stimulus": 36, "trial": 61, "rt": 436, "response": "Alpha"}, "62": {"stimulus": 40, "trial": 62, "rt": 465, "response": "Alpha"}, "63": {"stimulus": 32, "trial": 63, "rt": 480, "response": "Alpha"}, "64": {"stimulus": 34, "trial": 64, "rt": 403, "response": "Alpha"}, "49": {"stimulus": 33, "trial": 49, "rt": 457, "response": "Alpha"}, "66": {"stimulus": 37, "trial": 66, "rt": 387, "response": "Alpha"}, "67": {"stimulus": 24, "trial": 67, "rt": 360, "response": "Alpha"}, "68": {"stimulus": 50, "trial": 68, "rt": 402, "response": "Alpha"}, "69": {"stimulus": 31, "trial": 69, "rt": 600, "response": "Alpha"}, "80": {"stimulus": 52, "trial": 80, "rt": 430, "response": "Alpha"}, "52": {"stimulus": 43, "trial": 52, "rt": 446, "response": "Alpha"}, "53": {"stimulus": 18, "trial": 53, "rt": 520, "response": "Alpha"}, "24": {"stimulus": 60, "trial": 24, "rt": 535, "response": "Beta"}, "25": {"stimulus": 55, "trial": 25, "rt": 664, "response": "Alpha"}, "26": {"stimulus": 17, "trial": 26, "rt": 1670, "response": "Beta"}, "27": {"stimulus": 19, "trial": 27, "rt": 891, "response": "Gamma"}, "20": {"stimulus": 72, "trial": 20, "rt": 406, "response": "Beta"}, "21": {"stimulus": 45, "trial": 21, "rt": 543, "response": "Alpha"}, "22": {"stimulus": 10, "trial": 22, "rt": 463, "response": "Beta"}, "23": {"stimulus": 16, "trial": 23, "rt": 453, "response": "Gamma"}, "46": {"stimulus": 70, "trial": 46, "rt": 441, "response": "Alpha"}, "47": {"stimulus": 49, "trial": 47, "rt": 432, "response": "Alpha"}, "44": {"stimulus": 64, "trial": 44, "rt": 2262, "response": "Alpha"}, "45": {"stimulus": 9, "trial": 45, "rt": 635, "response": "Alpha"}, "28": {"stimulus": 48, "trial": 28, "rt": 467, "response": "Beta"}, "29": {"stimulus": 77, "trial": 29, "rt": 561, "response": "Alpha"}, "40": {"stimulus": 11, "trial": 40, "rt": 395, "response": "Alpha"}, "41": {"stimulus": 1, "trial": 41, "rt": 370, "response": "Alpha"}, "1": {"stimulus": 51, "trial": 1, "rt": 497, "response": "Alpha"}, "0": {"stimulus": 28, "trial": 0, "rt": 1088, "response": "Beta"}, "3": {"stimulus": 8, "trial": 3, "rt": 364, "response": "Gamma"}, "2": {"stimulus": 39, "trial": 2, "rt": 345, "response": "Beta"}, "5": {"stimulus": 23, "trial": 5, "rt": 352, "response": "Alpha"}, "4": {"stimulus": 68, "trial": 4, "rt": 330, "response": "Beta"}, "7": {"stimulus": 79, "trial": 7, "rt": 394, "response": "Gamma"}, "6": {"stimulus": 76, "trial": 6, "rt": 615, "response": "Beta"}, "9": {"stimulus": 35, "trial": 9, "rt": 332, "response": "Alpha"}, "8": {"stimulus": 12, "trial": 8, "rt": 396, "response": "Beta"}, "78": {"stimulus": 67, "trial": 78, "rt": 422, "response": "Alpha"}, "51": {"stimulus": 71, "trial": 51, "rt": 419, "response": "Alpha"}, "39": {"stimulus": 74, "trial": 39, "rt": 453, "response": "Alpha"}, "65": {"stimulus": 13, "trial": 65, "rt": 372, "response": "Alpha"}, "76": {"stimulus": 73, "trial": 76, "rt": 371, "response": "Alpha"}, "75": {"stimulus": 26, "trial": 75, "rt": 472, "response": "Alpha"}, "38": {"stimulus": 42, "trial": 38, "rt": 428, "response": "Alpha"}, "73": {"stimulus": 56, "trial": 73, "rt": 443, "response": "Alpha"}, "72": {"stimulus": 80, "trial": 72, "rt": 428, "response": "Alpha"}, "71": {"stimulus": 47, "trial": 71, "rt": 419, "response": "Alpha"}, "70": {"stimulus": 4, "trial": 70, "rt": 459, "response": "Alpha"}, "59": {"stimulus": 30, "trial": 59, "rt": 426, "response": "Alpha"}, "79": {"stimulus": 41, "trial": 79, "rt": 364, "response": "Alpha"}, "58": {"stimulus": 20, "trial": 58, "rt": 389, "response": "Alpha"}, "11": {"stimulus": 78, "trial": 11, "rt": 363, "response": "Gamma"}, "10": {"stimulus": 66, "trial": 10, "rt": 354, "response": "Beta"}, "13": {"stimulus": 38, "trial": 13, "rt": 322, "response": "Alpha"}, "12": {"stimulus": 58, "trial": 12, "rt": 409, "response": "Beta"}, "15": {"stimulus": 61, "trial": 15, "rt": 510, "response": "Gamma"}, "14": {"stimulus": 15, "trial": 14, "rt": 335, "response": "Beta"}, "17": {"stimulus": 63, "trial": 17, "rt": 503, "response": "Beta"}, "16": {"stimulus": 44, "trial": 16, "rt": 404, "response": "Alpha"}, "19": {"stimulus": 59, "trial": 19, "rt": 409, "response": "Gamma"}, "18": {"stimulus": 65, "trial": 18, "rt": 632, "response": "Beta"}, "31": {"stimulus": 62, "trial": 31, "rt": 580, "response": "Alpha"}, "30": {"stimulus": 14, "trial": 30, "rt": 959, "response": "Alpha"}, "37": {"stimulus": 69, "trial": 37, "rt": 362, "response": "Alpha"}, "36": {"stimulus": 29, "trial": 36, "rt": 422, "response": "Alpha"}, "35": {"stimulus": 6, "trial": 35, "rt": 465, "response": "Alpha"}, "34": {"stimulus": 7, "trial": 34, "rt": 502, "response": "Alpha"}, "33": {"stimulus": 75, "trial": 33, "rt": 532, "response": "Alpha"}, "55": {"stimulus": 53, "trial": 55, "rt": 491, "response": "Alpha"}, "74": {"stimulus": 3, "trial": 74, "rt": 361, "response": "Alpha"}, "32": {"stimulus": 27, "trial": 32, "rt": 3637, "response": "Alpha"}, "57": {"stimulus": 54, "trial": 57, "rt": 451, "response": "Alpha"}, "50": {"stimulus": 21, "trial": 50, "rt": 488, "response": "Alpha"}}, "experiment": {"Paradigm": "TACL", "Stimuli": "Size-Color Squares", "Experiment": "Generating-Multiple-Categories"}, "submit": {}}