{"info": {"finish": 1535371150618, "participant": 106, "exposed": true, "lab": false, "start": 1535370821383, "counterbalance": 1, "gentype": 0, "condition": "Bottom", "browser": {"platform": "Win32", "userAgent": "Mozilla/5.0 (Windows NT 6.1) AppleWebKit/537.36 (KHTML, like Gecko) Chrome/68.0.3440.106 Safari/537.36"}}, "observation": {"11": {"stimulus": 12, "trial": 11, "rt": 1583}, "10": {"stimulus": 14, "trial": 10, "rt": 1559}, "1": {"stimulus": 12, "trial": 1, "rt": 2214}, "0": {"stimulus": 32, "trial": 0, "rt": 3858}, "3": {"stimulus": 30, "trial": 3, "rt": 1951}, "2": {"stimulus": 14, "trial": 2, "rt": 1801}, "5": {"stimulus": 30, "trial": 5, "rt": 1521}, "4": {"stimulus": 32, "trial": 4, "rt": 1571}, "7": {"stimulus": 12, "trial": 7, "rt": 1683}, "6": {"stimulus": 14, "trial": 6, "rt": 1655}, "9": {"stimulus": 32, "trial": 9, "rt": 6087}, "8": {"stimulus": 30, "trial": 8, "rt": 1737}}, "generation": {"1": {"category": "Not-Alpha", "trial": 1, "stimulus": 23, "rt": 9172}, "0": {"category": "Not-Alpha", "trial": 0, "stimulus": 25, "rt": 5388}, "3": {"category": "Not-Alpha", "trial": 3, "stimulus": 40, "rt": 5595}, "2": {"category": "Not-Alpha", "trial": 2, "stimulus": 24, "rt": 23386}, "5": {"category": "Not-Alpha", "trial": 5, "stimulus": 50, "rt": 5555}, "4": {"category": "Not-Alpha", "trial": 4, "stimulus": 48, "rt": 21360}, "7": {"category": "Not-Alpha", "trial": 7, "stimulus": 49, "rt": 4466}, "6": {"category": "Not-Alpha", "trial": 6, "stimulus": 43, "rt": 28629}}, "generalization": {"56": {"stimulus": 44, "trial": 56, "rt": 910, "response": "Alpha"}, "77": {"stimulus": 42, "trial": 77, "rt": 824, "response": "Alpha"}, "54": {"stimulus": 65, "trial": 54, "rt": 1051, "response": "Beta"}, "42": {"stimulus": 45, "trial": 42, "rt": 445, "response": "Alpha"}, "48": {"stimulus": 3, "trial": 48, "rt": 1537, "response": "Alpha"}, "43": {"stimulus": 72, "trial": 43, "rt": 2093, "response": "Alpha"}, "60": {"stimulus": 52, "trial": 60, "rt": 916, "response": "Alpha"}, "61": {"stimulus": 28, "trial": 61, "rt": 439, "response": "Alpha"}, "62": {"stimulus": 6, "trial": 62, "rt": 751, "response": "Alpha"}, "63": {"stimulus": 60, "trial": 63, "rt": 678, "response": "Alpha"}, "64": {"stimulus": 43, "trial": 64, "rt": 429, "response": "Alpha"}, "49": {"stimulus": 75, "trial": 49, "rt": 1156, "response": "Beta"}, "66": {"stimulus": 7, "trial": 66, "rt": 412, "response": "Beta"}, "67": {"stimulus": 13, "trial": 67, "rt": 977, "response": "Alpha"}, "68": {"stimulus": 26, "trial": 68, "rt": 686, "response": "Alpha"}, "69": {"stimulus": 16, "trial": 69, "rt": 438, "response": "Alpha"}, "80": {"stimulus": 39, "trial": 80, "rt": 540, "response": "Alpha"}, "52": {"stimulus": 67, "trial": 52, "rt": 3005, "response": "Beta"}, "53": {"stimulus": 10, "trial": 53, "rt": 800, "response": "Alpha"}, "24": {"stimulus": 76, "trial": 24, "rt": 477, "response": "Alpha"}, "25": {"stimulus": 47, "trial": 25, "rt": 990, "response": "Beta"}, "26": {"stimulus": 48, "trial": 26, "rt": 1616, "response": "Beta"}, "27": {"stimulus": 80, "trial": 27, "rt": 430, "response": "Beta"}, "20": {"stimulus": 31, "trial": 20, "rt": 470, "response": "Alpha"}, "21": {"stimulus": 1, "trial": 21, "rt": 1069, "response": "Alpha"}, "22": {"stimulus": 5, "trial": 22, "rt": 721, "response": "Alpha"}, "23": {"stimulus": 9, "trial": 23, "rt": 676, "response": "Alpha"}, "46": {"stimulus": 62, "trial": 46, "rt": 1618, "response": "Beta"}, "47": {"stimulus": 66, "trial": 47, "rt": 664, "response": "Alpha"}, "44": {"stimulus": 50, "trial": 44, "rt": 488, "response": "Alpha"}, "45": {"stimulus": 70, "trial": 45, "rt": 581, "response": "Alpha"}, "28": {"stimulus": 17, "trial": 28, "rt": 5351, "response": "Alpha"}, "29": {"stimulus": 4, "trial": 29, "rt": 516, "response": "Alpha"}, "40": {"stimulus": 30, "trial": 40, "rt": 503, "response": "Alpha"}, "41": {"stimulus": 49, "trial": 41, "rt": 663, "response": "Alpha"}, "1": {"stimulus": 63, "trial": 1, "rt": 504, "response": "Alpha"}, "0": {"stimulus": 27, "trial": 0, "rt": 1370, "response": "Alpha"}, "3": {"stimulus": 0, "trial": 3, "rt": 863, "response": "Beta"}, "2": {"stimulus": 25, "trial": 2, "rt": 1528, "response": "Alpha"}, "5": {"stimulus": 57, "trial": 5, "rt": 457, "response": "Alpha"}, "4": {"stimulus": 23, "trial": 4, "rt": 501, "response": "Alpha"}, "7": {"stimulus": 20, "trial": 7, "rt": 637, "response": "Alpha"}, "6": {"stimulus": 79, "trial": 6, "rt": 412, "response": "Alpha"}, "9": {"stimulus": 78, "trial": 9, "rt": 827, "response": "Beta"}, "8": {"stimulus": 58, "trial": 8, "rt": 1108, "response": "Beta"}, "78": {"stimulus": 34, "trial": 78, "rt": 630, "response": "Alpha"}, "51": {"stimulus": 8, "trial": 51, "rt": 1830, "response": "Alpha"}, "39": {"stimulus": 29, "trial": 39, "rt": 495, "response": "Alpha"}, "65": {"stimulus": 46, "trial": 65, "rt": 377, "response": "Alpha"}, "76": {"stimulus": 22, "trial": 76, "rt": 972, "response": "Alpha"}, "75": {"stimulus": 55, "trial": 75, "rt": 2175, "response": "Beta"}, "38": {"stimulus": 18, "trial": 38, "rt": 741, "response": "Alpha"}, "73": {"stimulus": 35, "trial": 73, "rt": 448, "response": "Alpha"}, "72": {"stimulus": 14, "trial": 72, "rt": 515, "response": "Alpha"}, "71": {"stimulus": 11, "trial": 71, "rt": 861, "response": "Alpha"}, "70": {"stimulus": 59, "trial": 70, "rt": 416, "response": "Alpha"}, "59": {"stimulus": 69, "trial": 59, "rt": 1067, "response": "Beta"}, "79": {"stimulus": 24, "trial": 79, "rt": 1382, "response": "Alpha"}, "58": {"stimulus": 73, "trial": 58, "rt": 524, "response": "Alpha"}, "11": {"stimulus": 74, "trial": 11, "rt": 489, "response": "Beta"}, "10": {"stimulus": 68, "trial": 10, "rt": 1151, "response": "Beta"}, "13": {"stimulus": 51, "trial": 13, "rt": 748, "response": "Alpha"}, "12": {"stimulus": 37, "trial": 12, "rt": 1183, "response": "Alpha"}, "15": {"stimulus": 71, "trial": 15, "rt": 980, "response": "Beta"}, "14": {"stimulus": 56, "trial": 14, "rt": 521, "response": "Alpha"}, "17": {"stimulus": 15, "trial": 17, "rt": 950, "response": "Alpha"}, "16": {"stimulus": 38, "trial": 16, "rt": 1078, "response": "Alpha"}, "19": {"stimulus": 32, "trial": 19, "rt": 471, "response": "Alpha"}, "18": {"stimulus": 40, "trial": 18, "rt": 745, "response": "Alpha"}, "31": {"stimulus": 61, "trial": 31, "rt": 493, "response": "Alpha"}, "30": {"stimulus": 64, "trial": 30, "rt": 418, "response": "Alpha"}, "37": {"stimulus": 41, "trial": 37, "rt": 574, "response": "Alpha"}, "36": {"stimulus": 53, "trial": 36, "rt": 1176, "response": "Alpha"}, "35": {"stimulus": 12, "trial": 35, "rt": 715, "response": "Alpha"}, "34": {"stimulus": 2, "trial": 34, "rt": 1048, "response": "Alpha"}, "33": {"stimulus": 77, "trial": 33, "rt": 1071, "response": "Beta"}, "55": {"stimulus": 19, "trial": 55, "rt": 1417, "response": "Alpha"}, "74": {"stimulus": 54, "trial": 74, "rt": 1359, "response": "Beta"}, "32": {"stimulus": 36, "trial": 32, "rt": 465, "response": "Alpha"}, "57": {"stimulus": 33, "trial": 57, "rt": 823, "response": "Alpha"}, "50": {"stimulus": 21, "trial": 50, "rt": 649, "response": "Alpha"}}, "experiment": {"Paradigm": "TACL", "Stimuli": "Size-Color Squares", "Experiment": "Generating-Multiple-Categories"}, "submit": {"timeTotal": 330888, "age": "27", "comments": "nice", "sex": "female"}}