{"info": {"finish": 1535416552841, "participant": 108, "exposed": true, "lab": false, "start": 1535416051620, "counterbalance": 4, "gentype": 1, "condition": "Bottom", "browser": {"platform": "Win32", "userAgent": "Mozilla/5.0 (Windows NT 6.3; Win64; x64) AppleWebKit/537.36 (KHTML, like Gecko) Chrome/68.0.3440.106 Safari/537.36"}}, "observation": {"11": {"stimulus": 30, "trial": 11, "rt": 1866}, "10": {"stimulus": 12, "trial": 10, "rt": 2000}, "1": {"stimulus": 32, "trial": 1, "rt": 3767}, "0": {"stimulus": 14, "trial": 0, "rt": 6546}, "3": {"stimulus": 30, "trial": 3, "rt": 2837}, "2": {"stimulus": 12, "trial": 2, "rt": 2787}, "5": {"stimulus": 12, "trial": 5, "rt": 2182}, "4": {"stimulus": 30, "trial": 4, "rt": 2509}, "7": {"stimulus": 14, "trial": 7, "rt": 1939}, "6": {"stimulus": 32, "trial": 6, "rt": 2085}, "9": {"stimulus": 32, "trial": 9, "rt": 1956}, "8": {"stimulus": 14, "trial": 8, "rt": 2048}}, "generation": {"1": {"category": "Beta", "trial": 1, "stimulus": 57, "rt": 20744}, "0": {"category": "Beta", "trial": 0, "stimulus": 39, "rt": 32384}, "3": {"category": "Beta", "trial": 3, "stimulus": 60, "rt": 15427}, "2": {"category": "Beta", "trial": 2, "stimulus": 29, "rt": 7918}, "5": {"category": "Beta", "trial": 5, "stimulus": 0, "rt": 8963}, "4": {"category": "Beta", "trial": 4, "stimulus": 23, "rt": 5711}, "7": {"category": "Beta", "trial": 7, "stimulus": 12, "rt": 6877}, "6": {"category": "Beta", "trial": 6, "stimulus": 61, "rt": 11257}}, "generalization": {"56": {"stimulus": 62, "trial": 56, "rt": 1423, "response": "Alpha"}, "77": {"stimulus": 51, "trial": 77, "rt": 1789, "response": "Beta"}, "54": {"stimulus": 17, "trial": 54, "rt": 1627, "response": "Alpha"}, "42": {"stimulus": 47, "trial": 42, "rt": 1686, "response": "Beta"}, "48": {"stimulus": 52, "trial": 48, "rt": 1995, "response": "Beta"}, "43": {"stimulus": 57, "trial": 43, "rt": 1172, "response": "Beta"}, "60": {"stimulus": 6, "trial": 60, "rt": 1838, "response": "Alpha"}, "61": {"stimulus": 59, "trial": 61, "rt": 1657, "response": "Beta"}, "62": {"stimulus": 38, "trial": 62, "rt": 1669, "response": "Beta"}, "63": {"stimulus": 19, "trial": 63, "rt": 1241, "response": "Beta"}, "64": {"stimulus": 40, "trial": 64, "rt": 1735, "response": "Alpha"}, "49": {"stimulus": 34, "trial": 49, "rt": 1417, "response": "Alpha"}, "66": {"stimulus": 50, "trial": 66, "rt": 1167, "response": "Beta"}, "67": {"stimulus": 39, "trial": 67, "rt": 1532, "response": "Beta"}, "68": {"stimulus": 80, "trial": 68, "rt": 1579, "response": "Alpha"}, "69": {"stimulus": 53, "trial": 69, "rt": 1235, "response": "Alpha"}, "80": {"stimulus": 18, "trial": 80, "rt": 1274, "response": "Beta"}, "52": {"stimulus": 66, "trial": 52, "rt": 1512, "response": "Beta"}, "53": {"stimulus": 21, "trial": 53, "rt": 1336, "response": "Beta"}, "24": {"stimulus": 77, "trial": 24, "rt": 1937, "response": "Alpha"}, "25": {"stimulus": 28, "trial": 25, "rt": 1557, "response": "Beta"}, "26": {"stimulus": 37, "trial": 26, "rt": 1444, "response": "Beta"}, "27": {"stimulus": 64, "trial": 27, "rt": 1527, "response": "Beta"}, "20": {"stimulus": 33, "trial": 20, "rt": 1712, "response": "Alpha"}, "21": {"stimulus": 31, "trial": 21, "rt": 3206, "response": "Beta"}, "22": {"stimulus": 68, "trial": 22, "rt": 2533, "response": "Alpha"}, "23": {"stimulus": 1, "trial": 23, "rt": 2544, "response": "Beta"}, "46": {"stimulus": 29, "trial": 46, "rt": 2513, "response": "Beta"}, "47": {"stimulus": 14, "trial": 47, "rt": 1602, "response": "Alpha"}, "44": {"stimulus": 71, "trial": 44, "rt": 2411, "response": "Alpha"}, "45": {"stimulus": 20, "trial": 45, "rt": 1806, "response": "Beta"}, "28": {"stimulus": 54, "trial": 28, "rt": 1330, "response": "Beta"}, "29": {"stimulus": 7, "trial": 29, "rt": 2314, "response": "Alpha"}, "40": {"stimulus": 22, "trial": 40, "rt": 1507, "response": "Alpha"}, "41": {"stimulus": 43, "trial": 41, "rt": 1888, "response": "Alpha"}, "1": {"stimulus": 46, "trial": 1, "rt": 3064, "response": "Beta"}, "0": {"stimulus": 2, "trial": 0, "rt": 7688, "response": "Beta"}, "3": {"stimulus": 65, "trial": 3, "rt": 1691, "response": "Beta"}, "2": {"stimulus": 30, "trial": 2, "rt": 2176, "response": "Alpha"}, "5": {"stimulus": 26, "trial": 5, "rt": 1548, "response": "Alpha"}, "4": {"stimulus": 56, "trial": 4, "rt": 1191, "response": "Beta"}, "7": {"stimulus": 4, "trial": 7, "rt": 3717, "response": "Alpha"}, "6": {"stimulus": 79, "trial": 6, "rt": 2311, "response": "Alpha"}, "9": {"stimulus": 48, "trial": 9, "rt": 1321, "response": "Beta"}, "8": {"stimulus": 74, "trial": 8, "rt": 1391, "response": "Beta"}, "78": {"stimulus": 27, "trial": 78, "rt": 1277, "response": "Beta"}, "51": {"stimulus": 5, "trial": 51, "rt": 1222, "response": "Alpha"}, "39": {"stimulus": 36, "trial": 39, "rt": 1385, "response": "Beta"}, "65": {"stimulus": 44, "trial": 65, "rt": 1470, "response": "Alpha"}, "76": {"stimulus": 58, "trial": 76, "rt": 1146, "response": "Alpha"}, "75": {"stimulus": 42, "trial": 75, "rt": 1342, "response": "Beta"}, "38": {"stimulus": 0, "trial": 38, "rt": 1439, "response": "Beta"}, "73": {"stimulus": 23, "trial": 73, "rt": 2479, "response": "Beta"}, "72": {"stimulus": 76, "trial": 72, "rt": 2232, "response": "Alpha"}, "71": {"stimulus": 73, "trial": 71, "rt": 1215, "response": "Beta"}, "70": {"stimulus": 8, "trial": 70, "rt": 1142, "response": "Alpha"}, "59": {"stimulus": 13, "trial": 59, "rt": 2329, "response": "Alpha"}, "79": {"stimulus": 61, "trial": 79, "rt": 1701, "response": "Alpha"}, "58": {"stimulus": 25, "trial": 58, "rt": 1409, "response": "Alpha"}, "11": {"stimulus": 41, "trial": 11, "rt": 2096, "response": "Alpha"}, "10": {"stimulus": 78, "trial": 10, "rt": 2721, "response": "Alpha"}, "13": {"stimulus": 49, "trial": 13, "rt": 3258, "response": "Beta"}, "12": {"stimulus": 70, "trial": 12, "rt": 2626, "response": "Alpha"}, "15": {"stimulus": 3, "trial": 15, "rt": 1812, "response": "Beta"}, "14": {"stimulus": 32, "trial": 14, "rt": 1731, "response": "Beta"}, "17": {"stimulus": 69, "trial": 17, "rt": 1757, "response": "Alpha"}, "16": {"stimulus": 9, "trial": 16, "rt": 1307, "response": "Beta"}, "19": {"stimulus": 55, "trial": 19, "rt": 1412, "response": "Beta"}, "18": {"stimulus": 11, "trial": 18, "rt": 1490, "response": "Beta"}, "31": {"stimulus": 35, "trial": 31, "rt": 1548, "response": "Alpha"}, "30": {"stimulus": 45, "trial": 30, "rt": 1336, "response": "Beta"}, "37": {"stimulus": 72, "trial": 37, "rt": 1135, "response": "Beta"}, "36": {"stimulus": 15, "trial": 36, "rt": 1494, "response": "Alpha"}, "35": {"stimulus": 10, "trial": 35, "rt": 1157, "response": "Beta"}, "34": {"stimulus": 24, "trial": 34, "rt": 1786, "response": "Alpha"}, "33": {"stimulus": 75, "trial": 33, "rt": 1495, "response": "Beta"}, "55": {"stimulus": 12, "trial": 55, "rt": 1432, "response": "Beta"}, "74": {"stimulus": 16, "trial": 74, "rt": 1295, "response": "Beta"}, "32": {"stimulus": 60, "trial": 32, "rt": 2912, "response": "Alpha"}, "57": {"stimulus": 63, "trial": 57, "rt": 1194, "response": "Beta"}, "50": {"stimulus": 67, "trial": 50, "rt": 1709, "response": "Beta"}}, "experiment": {"Paradigm": "TACL", "Stimuli": "Size-Color Squares", "Experiment": "Generating-Multiple-Categories"}, "submit": {"timeTotal": 501407, "age": "30", "comments": "nice", "sex": "female"}}