{"info": {"finish": 1535371757508, "participant": 110, "exposed": true, "lab": false, "start": 1535371184323, "counterbalance": 4, "gentype": 0, "condition": "Bottom", "browser": {"platform": "Win32", "userAgent": "Mozilla/5.0 (Windows NT 10.0; WOW64) AppleWebKit/537.36 (KHTML, like Gecko) Chrome/68.0.3440.106 Safari/537.36"}}, "observation": {"11": {"stimulus": 14, "trial": 11, "rt": 1763}, "10": {"stimulus": 30, "trial": 10, "rt": 2165}, "1": {"stimulus": 12, "trial": 1, "rt": 2300}, "0": {"stimulus": 30, "trial": 0, "rt": 2990}, "3": {"stimulus": 14, "trial": 3, "rt": 2270}, "2": {"stimulus": 32, "trial": 2, "rt": 2091}, "5": {"stimulus": 30, "trial": 5, "rt": 1939}, "4": {"stimulus": 32, "trial": 4, "rt": 2105}, "7": {"stimulus": 14, "trial": 7, "rt": 2021}, "6": {"stimulus": 12, "trial": 6, "rt": 1929}, "9": {"stimulus": 32, "trial": 9, "rt": 1979}, "8": {"stimulus": 12, "trial": 8, "rt": 2308}}, "generation": {"1": {"category": "Not-Alpha", "trial": 1, "stimulus": 72, "rt": 5460}, "0": {"category": "Not-Alpha", "trial": 0, "stimulus": 0, "rt": 12971}, "3": {"category": "Not-Alpha", "trial": 3, "stimulus": 18, "rt": 5736}, "2": {"category": "Not-Alpha", "trial": 2, "stimulus": 9, "rt": 14937}, "5": {"category": "Not-Alpha", "trial": 5, "stimulus": 45, "rt": 2922}, "4": {"category": "Not-Alpha", "trial": 4, "stimulus": 27, "rt": 6894}, "7": {"category": "Not-Alpha", "trial": 7, "stimulus": 63, "rt": 3953}, "6": {"category": "Not-Alpha", "trial": 6, "stimulus": 54, "rt": 4072}}, "generalization": {"56": {"stimulus": 29, "trial": 56, "rt": 1286, "response": "Beta"}, "77": {"stimulus": 73, "trial": 77, "rt": 894, "response": "Beta"}, "54": {"stimulus": 43, "trial": 54, "rt": 611, "response": "Alpha"}, "42": {"stimulus": 25, "trial": 42, "rt": 601, "response": "Alpha"}, "48": {"stimulus": 40, "trial": 48, "rt": 561, "response": "Alpha"}, "43": {"stimulus": 44, "trial": 43, "rt": 499, "response": "Alpha"}, "60": {"stimulus": 32, "trial": 60, "rt": 507, "response": "Alpha"}, "61": {"stimulus": 45, "trial": 61, "rt": 1339, "response": "Beta"}, "62": {"stimulus": 0, "trial": 62, "rt": 923, "response": "Beta"}, "63": {"stimulus": 72, "trial": 63, "rt": 474, "response": "Beta"}, "64": {"stimulus": 12, "trial": 64, "rt": 1393, "response": "Alpha"}, "49": {"stimulus": 78, "trial": 49, "rt": 498, "response": "Alpha"}, "66": {"stimulus": 24, "trial": 66, "rt": 1578, "response": "Alpha"}, "67": {"stimulus": 74, "trial": 67, "rt": 4569, "response": "Beta"}, "68": {"stimulus": 36, "trial": 68, "rt": 864, "response": "Beta"}, "69": {"stimulus": 17, "trial": 69, "rt": 734, "response": "Alpha"}, "80": {"stimulus": 27, "trial": 80, "rt": 764, "response": "Beta"}, "52": {"stimulus": 30, "trial": 52, "rt": 1352, "response": "Alpha"}, "53": {"stimulus": 41, "trial": 53, "rt": 817, "response": "Alpha"}, "24": {"stimulus": 61, "trial": 24, "rt": 637, "response": "Alpha"}, "25": {"stimulus": 79, "trial": 25, "rt": 518, "response": "Alpha"}, "26": {"stimulus": 7, "trial": 26, "rt": 5228, "response": "Alpha"}, "27": {"stimulus": 47, "trial": 27, "rt": 1408, "response": "Beta"}, "20": {"stimulus": 37, "trial": 20, "rt": 1115, "response": "Beta"}, "21": {"stimulus": 5, "trial": 21, "rt": 1012, "response": "Alpha"}, "22": {"stimulus": 3, "trial": 22, "rt": 2535, "response": "Beta"}, "23": {"stimulus": 70, "trial": 23, "rt": 1088, "response": "Alpha"}, "46": {"stimulus": 63, "trial": 46, "rt": 848, "response": "Beta"}, "47": {"stimulus": 13, "trial": 47, "rt": 936, "response": "Alpha"}, "44": {"stimulus": 65, "trial": 44, "rt": 1500, "response": "Beta"}, "45": {"stimulus": 9, "trial": 45, "rt": 1027, "response": "Beta"}, "28": {"stimulus": 38, "trial": 28, "rt": 1489, "response": "Beta"}, "29": {"stimulus": 6, "trial": 29, "rt": 868, "response": "Alpha"}, "40": {"stimulus": 19, "trial": 40, "rt": 840, "response": "Beta"}, "41": {"stimulus": 33, "trial": 41, "rt": 800, "response": "Alpha"}, "1": {"stimulus": 28, "trial": 1, "rt": 1440, "response": "Beta"}, "0": {"stimulus": 10, "trial": 0, "rt": 1408, "response": "Beta"}, "3": {"stimulus": 31, "trial": 3, "rt": 631, "response": "Alpha"}, "2": {"stimulus": 67, "trial": 2, "rt": 1128, "response": "Alpha"}, "5": {"stimulus": 56, "trial": 5, "rt": 5325, "response": "Beta"}, "4": {"stimulus": 15, "trial": 4, "rt": 504, "response": "Alpha"}, "7": {"stimulus": 59, "trial": 7, "rt": 638, "response": "Alpha"}, "6": {"stimulus": 14, "trial": 6, "rt": 1027, "response": "Alpha"}, "9": {"stimulus": 4, "trial": 9, "rt": 871, "response": "Alpha"}, "8": {"stimulus": 34, "trial": 8, "rt": 531, "response": "Alpha"}, "78": {"stimulus": 46, "trial": 78, "rt": 554, "response": "Beta"}, "51": {"stimulus": 50, "trial": 51, "rt": 1035, "response": "Alpha"}, "39": {"stimulus": 23, "trial": 39, "rt": 585, "response": "Alpha"}, "65": {"stimulus": 57, "trial": 65, "rt": 1098, "response": "Alpha"}, "76": {"stimulus": 39, "trial": 76, "rt": 1174, "response": "Alpha"}, "75": {"stimulus": 54, "trial": 75, "rt": 1120, "response": "Beta"}, "38": {"stimulus": 42, "trial": 38, "rt": 584, "response": "Alpha"}, "73": {"stimulus": 76, "trial": 73, "rt": 685, "response": "Alpha"}, "72": {"stimulus": 48, "trial": 72, "rt": 1895, "response": "Alpha"}, "71": {"stimulus": 69, "trial": 71, "rt": 522, "response": "Alpha"}, "70": {"stimulus": 16, "trial": 70, "rt": 499, "response": "Alpha"}, "59": {"stimulus": 53, "trial": 59, "rt": 455, "response": "Alpha"}, "79": {"stimulus": 20, "trial": 79, "rt": 1290, "response": "Beta"}, "58": {"stimulus": 71, "trial": 58, "rt": 484, "response": "Alpha"}, "11": {"stimulus": 58, "trial": 11, "rt": 494, "response": "Alpha"}, "10": {"stimulus": 22, "trial": 10, "rt": 553, "response": "Alpha"}, "13": {"stimulus": 18, "trial": 13, "rt": 956, "response": "Beta"}, "12": {"stimulus": 52, "trial": 12, "rt": 704, "response": "Alpha"}, "15": {"stimulus": 75, "trial": 15, "rt": 8214, "response": "Alpha"}, "14": {"stimulus": 55, "trial": 14, "rt": 662, "response": "Beta"}, "17": {"stimulus": 51, "trial": 17, "rt": 752, "response": "Alpha"}, "16": {"stimulus": 49, "trial": 16, "rt": 1365, "response": "Alpha"}, "19": {"stimulus": 26, "trial": 19, "rt": 1649, "response": "Alpha"}, "18": {"stimulus": 35, "trial": 18, "rt": 490, "response": "Alpha"}, "31": {"stimulus": 68, "trial": 31, "rt": 573, "response": "Alpha"}, "30": {"stimulus": 80, "trial": 30, "rt": 1276, "response": "Alpha"}, "37": {"stimulus": 60, "trial": 37, "rt": 1144, "response": "Alpha"}, "36": {"stimulus": 11, "trial": 36, "rt": 2736, "response": "Beta"}, "35": {"stimulus": 77, "trial": 35, "rt": 1307, "response": "Alpha"}, "34": {"stimulus": 1, "trial": 34, "rt": 878, "response": "Beta"}, "33": {"stimulus": 21, "trial": 33, "rt": 1773, "response": "Alpha"}, "55": {"stimulus": 8, "trial": 55, "rt": 622, "response": "Alpha"}, "74": {"stimulus": 66, "trial": 74, "rt": 1703, "response": "Alpha"}, "32": {"stimulus": 2, "trial": 32, "rt": 1909, "response": "Beta"}, "57": {"stimulus": 62, "trial": 57, "rt": 623, "response": "Alpha"}, "50": {"stimulus": 64, "trial": 50, "rt": 887, "response": "Beta"}}, "experiment": {"Paradigm": "TACL", "Stimuli": "Size-Color Squares", "Experiment": "Generating-Multiple-Categories"}, "submit": {"timeTotal": 573584, "age": "50", "comments": "Thank you. It was interesting. ", "sex": "Male"}}