{"info": {"finish": 1534980030434, "participant": 13, "exposed": true, "lab": true, "start": 1534979760669, "counterbalance": 1, "gentype": 2, "condition": "Bottom", "browser": {"platform": "MacIntel", "userAgent": "Mozilla/5.0 (Macintosh; Intel Mac OS X 10.13; rv:61.0) Gecko/20100101 Firefox/61.0"}}, "observation": {"11": {"stimulus": 32, "trial": 11, "rt": 2406}, "10": {"stimulus": 30, "trial": 10, "rt": 1469}, "1": {"stimulus": 12, "trial": 1, "rt": 1636}, "0": {"stimulus": 32, "trial": 0, "rt": 3584}, "3": {"stimulus": 30, "trial": 3, "rt": 1424}, "2": {"stimulus": 14, "trial": 2, "rt": 1380}, "5": {"stimulus": 32, "trial": 5, "rt": 1422}, "4": {"stimulus": 14, "trial": 4, "rt": 1337}, "7": {"stimulus": 30, "trial": 7, "rt": 1418}, "6": {"stimulus": 12, "trial": 6, "rt": 1382}, "9": {"stimulus": 12, "trial": 9, "rt": 1443}, "8": {"stimulus": 14, "trial": 8, "rt": 1297}}, "generation": {"1": {"category": "Beta", "trial": 1, "stimulus": 17, "rt": 2769}, "0": {"category": "Beta", "trial": 0, "stimulus": 64, "rt": 6853}, "3": {"category": "Beta", "trial": 3, "stimulus": 28, "rt": 7569}, "2": {"category": "Beta", "trial": 2, "stimulus": 16, "rt": 1618}, "5": {"category": "Gamma", "trial": 5, "stimulus": 64, "rt": 9507}, "4": {"category": "Gamma", "trial": 4, "stimulus": 8, "rt": 2283}, "7": {"category": "Gamma", "trial": 7, "stimulus": 39, "rt": 2153}, "6": {"category": "Gamma", "trial": 6, "stimulus": 40, "rt": 1699}}, "generalization": {"56": {"stimulus": 7, "trial": 56, "rt": 802, "response": "Beta"}, "77": {"stimulus": 68, "trial": 77, "rt": 226, "response": "Beta"}, "54": {"stimulus": 31, "trial": 54, "rt": 507, "response": "Beta"}, "42": {"stimulus": 8, "trial": 42, "rt": 227, "response": "Beta"}, "48": {"stimulus": 30, "trial": 48, "rt": 323, "response": "Beta"}, "43": {"stimulus": 60, "trial": 43, "rt": 263, "response": "Beta"}, "60": {"stimulus": 80, "trial": 60, "rt": 480, "response": "Beta"}, "61": {"stimulus": 18, "trial": 61, "rt": 298, "response": "Beta"}, "62": {"stimulus": 10, "trial": 62, "rt": 455, "response": "Beta"}, "63": {"stimulus": 45, "trial": 63, "rt": 419, "response": "Beta"}, "64": {"stimulus": 76, "trial": 64, "rt": 546, "response": "Beta"}, "49": {"stimulus": 11, "trial": 49, "rt": 250, "response": "Beta"}, "66": {"stimulus": 34, "trial": 66, "rt": 225, "response": "Beta"}, "67": {"stimulus": 3, "trial": 67, "rt": 335, "response": "Beta"}, "68": {"stimulus": 69, "trial": 68, "rt": 272, "response": "Beta"}, "69": {"stimulus": 61, "trial": 69, "rt": 324, "response": "Beta"}, "80": {"stimulus": 32, "trial": 80, "rt": 288, "response": "Beta"}, "52": {"stimulus": 33, "trial": 52, "rt": 421, "response": "Beta"}, "53": {"stimulus": 73, "trial": 53, "rt": 368, "response": "Beta"}, "24": {"stimulus": 43, "trial": 24, "rt": 338, "response": "Beta"}, "25": {"stimulus": 55, "trial": 25, "rt": 612, "response": "Beta"}, "26": {"stimulus": 67, "trial": 26, "rt": 353, "response": "Beta"}, "27": {"stimulus": 19, "trial": 27, "rt": 444, "response": "Beta"}, "20": {"stimulus": 23, "trial": 20, "rt": 290, "response": "Beta"}, "21": {"stimulus": 58, "trial": 21, "rt": 370, "response": "Beta"}, "22": {"stimulus": 41, "trial": 22, "rt": 310, "response": "Beta"}, "23": {"stimulus": 54, "trial": 23, "rt": 383, "response": "Beta"}, "46": {"stimulus": 25, "trial": 46, "rt": 208, "response": "Beta"}, "47": {"stimulus": 39, "trial": 47, "rt": 269, "response": "Beta"}, "44": {"stimulus": 77, "trial": 44, "rt": 282, "response": "Beta"}, "45": {"stimulus": 66, "trial": 45, "rt": 215, "response": "Beta"}, "28": {"stimulus": 64, "trial": 28, "rt": 335, "response": "Beta"}, "29": {"stimulus": 28, "trial": 29, "rt": 276, "response": "Beta"}, "40": {"stimulus": 13, "trial": 40, "rt": 256, "response": "Beta"}, "41": {"stimulus": 71, "trial": 41, "rt": 241, "response": "Beta"}, "1": {"stimulus": 47, "trial": 1, "rt": 331, "response": "Gamma"}, "0": {"stimulus": 42, "trial": 0, "rt": 784, "response": "Gamma"}, "3": {"stimulus": 14, "trial": 3, "rt": 214, "response": "Gamma"}, "2": {"stimulus": 48, "trial": 2, "rt": 275, "response": "Gamma"}, "5": {"stimulus": 6, "trial": 5, "rt": 459, "response": "Gamma"}, "4": {"stimulus": 63, "trial": 4, "rt": 232, "response": "Gamma"}, "7": {"stimulus": 20, "trial": 7, "rt": 182, "response": "Gamma"}, "6": {"stimulus": 38, "trial": 6, "rt": 162, "response": "Gamma"}, "9": {"stimulus": 78, "trial": 9, "rt": 254, "response": "Gamma"}, "8": {"stimulus": 2, "trial": 8, "rt": 629, "response": "Gamma"}, "78": {"stimulus": 44, "trial": 78, "rt": 227, "response": "Beta"}, "51": {"stimulus": 57, "trial": 51, "rt": 1561, "response": "Beta"}, "39": {"stimulus": 15, "trial": 39, "rt": 231, "response": "Beta"}, "65": {"stimulus": 46, "trial": 65, "rt": 209, "response": "Beta"}, "76": {"stimulus": 21, "trial": 76, "rt": 353, "response": "Beta"}, "75": {"stimulus": 40, "trial": 75, "rt": 450, "response": "Beta"}, "38": {"stimulus": 52, "trial": 38, "rt": 249, "response": "Beta"}, "73": {"stimulus": 27, "trial": 73, "rt": 339, "response": "Beta"}, "72": {"stimulus": 75, "trial": 72, "rt": 228, "response": "Beta"}, "71": {"stimulus": 56, "trial": 71, "rt": 227, "response": "Beta"}, "70": {"stimulus": 72, "trial": 70, "rt": 231, "response": "Beta"}, "59": {"stimulus": 9, "trial": 59, "rt": 422, "response": "Beta"}, "79": {"stimulus": 29, "trial": 79, "rt": 293, "response": "Beta"}, "58": {"stimulus": 22, "trial": 58, "rt": 463, "response": "Beta"}, "11": {"stimulus": 12, "trial": 11, "rt": 317, "response": "Gamma"}, "10": {"stimulus": 79, "trial": 10, "rt": 249, "response": "Gamma"}, "13": {"stimulus": 4, "trial": 13, "rt": 368, "response": "Beta"}, "12": {"stimulus": 51, "trial": 12, "rt": 572, "response": "Gamma"}, "15": {"stimulus": 36, "trial": 15, "rt": 535, "response": "Beta"}, "14": {"stimulus": 16, "trial": 14, "rt": 309, "response": "Alpha"}, "17": {"stimulus": 5, "trial": 17, "rt": 345, "response": "Beta"}, "16": {"stimulus": 17, "trial": 16, "rt": 366, "response": "Beta"}, "19": {"stimulus": 50, "trial": 19, "rt": 375, "response": "Beta"}, "18": {"stimulus": 1, "trial": 18, "rt": 315, "response": "Beta"}, "31": {"stimulus": 24, "trial": 31, "rt": 563, "response": "Beta"}, "30": {"stimulus": 65, "trial": 30, "rt": 392, "response": "Beta"}, "37": {"stimulus": 49, "trial": 37, "rt": 242, "response": "Beta"}, "36": {"stimulus": 53, "trial": 36, "rt": 296, "response": "Beta"}, "35": {"stimulus": 59, "trial": 35, "rt": 449, "response": "Beta"}, "34": {"stimulus": 62, "trial": 34, "rt": 216, "response": "Beta"}, "33": {"stimulus": 35, "trial": 33, "rt": 412, "response": "Beta"}, "55": {"stimulus": 74, "trial": 55, "rt": 956, "response": "Beta"}, "74": {"stimulus": 37, "trial": 74, "rt": 362, "response": "Beta"}, "32": {"stimulus": 0, "trial": 32, "rt": 234, "response": "Beta"}, "57": {"stimulus": 26, "trial": 57, "rt": 569, "response": "Beta"}, "50": {"stimulus": 70, "trial": 50, "rt": 1288, "response": "Beta"}}, "experiment": {"Paradigm": "TACL", "Stimuli": "Size-Color Squares", "Experiment": "Generating-Multiple-Categories"}, "submit": {}}