{"info": {"finish": 1535380510437, "participant": 131, "exposed": true, "lab": false, "start": 1535378451593, "counterbalance": 1, "gentype": 0, "condition": "Middle", "browser": {"platform": "MacIntel", "userAgent": "Mozilla/5.0 (Macintosh; Intel Mac OS X 10_12_6) AppleWebKit/537.36 (KHTML, like Gecko) Chrome/68.0.3440.106 Safari/537.36"}}, "observation": {"11": {"stimulus": 32, "trial": 11, "rt": 1418}, "10": {"stimulus": 48, "trial": 10, "rt": 1454}, "1": {"stimulus": 48, "trial": 1, "rt": 1528}, "0": {"stimulus": 32, "trial": 0, "rt": 2488}, "3": {"stimulus": 50, "trial": 3, "rt": 1749}, "2": {"stimulus": 30, "trial": 2, "rt": 1644}, "5": {"stimulus": 30, "trial": 5, "rt": 1421}, "4": {"stimulus": 48, "trial": 4, "rt": 1468}, "7": {"stimulus": 50, "trial": 7, "rt": 1631}, "6": {"stimulus": 32, "trial": 6, "rt": 1409}, "9": {"stimulus": 30, "trial": 9, "rt": 2217}, "8": {"stimulus": 50, "trial": 8, "rt": 1444}}, "generation": {"1": {"category": "Not-Alpha", "trial": 1, "stimulus": 2, "rt": 6711}, "0": {"category": "Not-Alpha", "trial": 0, "stimulus": 80, "rt": 7702}, "3": {"category": "Not-Alpha", "trial": 3, "stimulus": 0, "rt": 5999}, "2": {"category": "Not-Alpha", "trial": 2, "stimulus": 55, "rt": 6935}, "5": {"category": "Not-Alpha", "trial": 5, "stimulus": 26, "rt": 9750}, "4": {"category": "Not-Alpha", "trial": 4, "stimulus": 8, "rt": 4286}, "7": {"category": "Not-Alpha", "trial": 7, "stimulus": 72, "rt": 4661}, "6": {"category": "Not-Alpha", "trial": 6, "stimulus": 63, "rt": 6417}}, "generalization": {"56": {"stimulus": 78, "trial": 56, "rt": 498, "response": "Beta"}, "77": {"stimulus": 57, "trial": 77, "rt": 761, "response": "Beta"}, "54": {"stimulus": 29, "trial": 54, "rt": 823, "response": "Alpha"}, "42": {"stimulus": 37, "trial": 42, "rt": 1297, "response": "Beta"}, "48": {"stimulus": 7, "trial": 48, "rt": 565, "response": "Beta"}, "43": {"stimulus": 27, "trial": 43, "rt": 470, "response": "Beta"}, "60": {"stimulus": 40, "trial": 60, "rt": 1022, "response": "Alpha"}, "61": {"stimulus": 13, "trial": 61, "rt": 965, "response": "Beta"}, "62": {"stimulus": 42, "trial": 62, "rt": 922, "response": "Beta"}, "63": {"stimulus": 61, "trial": 63, "rt": 929, "response": "Beta"}, "64": {"stimulus": 76, "trial": 64, "rt": 562, "response": "Beta"}, "49": {"stimulus": 26, "trial": 49, "rt": 701, "response": "Beta"}, "66": {"stimulus": 36, "trial": 66, "rt": 1863, "response": "Alpha"}, "67": {"stimulus": 12, "trial": 67, "rt": 1117, "response": "Beta"}, "68": {"stimulus": 5, "trial": 68, "rt": 557, "response": "Beta"}, "69": {"stimulus": 60, "trial": 69, "rt": 549, "response": "Beta"}, "80": {"stimulus": 47, "trial": 80, "rt": 1346, "response": "Alpha"}, "52": {"stimulus": 14, "trial": 52, "rt": 1608, "response": "Beta"}, "53": {"stimulus": 28, "trial": 53, "rt": 1591, "response": "Alpha"}, "24": {"stimulus": 64, "trial": 24, "rt": 540, "response": "Beta"}, "25": {"stimulus": 30, "trial": 25, "rt": 2382, "response": "Alpha"}, "26": {"stimulus": 22, "trial": 26, "rt": 706, "response": "Beta"}, "27": {"stimulus": 77, "trial": 27, "rt": 740, "response": "Beta"}, "20": {"stimulus": 9, "trial": 20, "rt": 2365, "response": "Alpha"}, "21": {"stimulus": 32, "trial": 21, "rt": 1840, "response": "Beta"}, "22": {"stimulus": 23, "trial": 22, "rt": 960, "response": "Alpha"}, "23": {"stimulus": 15, "trial": 23, "rt": 1093, "response": "Beta"}, "46": {"stimulus": 51, "trial": 46, "rt": 467, "response": "Beta"}, "47": {"stimulus": 70, "trial": 47, "rt": 444, "response": "Beta"}, "44": {"stimulus": 71, "trial": 44, "rt": 555, "response": "Beta"}, "45": {"stimulus": 33, "trial": 45, "rt": 458, "response": "Beta"}, "28": {"stimulus": 21, "trial": 28, "rt": 2196, "response": "Beta"}, "29": {"stimulus": 49, "trial": 29, "rt": 1235, "response": "Alpha"}, "40": {"stimulus": 19, "trial": 40, "rt": 3779, "response": "Alpha"}, "41": {"stimulus": 59, "trial": 41, "rt": 486, "response": "Beta"}, "1": {"stimulus": 53, "trial": 1, "rt": 2122, "response": "Beta"}, "0": {"stimulus": 16, "trial": 0, "rt": 1103, "response": "Alpha"}, "3": {"stimulus": 34, "trial": 3, "rt": 865, "response": "Alpha"}, "2": {"stimulus": 69, "trial": 2, "rt": 823, "response": "Beta"}, "5": {"stimulus": 48, "trial": 5, "rt": 3518, "response": "Beta"}, "4": {"stimulus": 65, "trial": 4, "rt": 775, "response": "Beta"}, "7": {"stimulus": 75, "trial": 7, "rt": 494, "response": "Beta"}, "6": {"stimulus": 74, "trial": 6, "rt": 844, "response": "Beta"}, "9": {"stimulus": 68, "trial": 9, "rt": 938, "response": "Beta"}, "8": {"stimulus": 18, "trial": 8, "rt": 2074, "response": "Beta"}, "78": {"stimulus": 3, "trial": 78, "rt": 611, "response": "Beta"}, "51": {"stimulus": 44, "trial": 51, "rt": 2417, "response": "Beta"}, "39": {"stimulus": 43, "trial": 39, "rt": 1632, "response": "Beta"}, "65": {"stimulus": 73, "trial": 65, "rt": 631, "response": "Beta"}, "76": {"stimulus": 2, "trial": 76, "rt": 633, "response": "Beta"}, "75": {"stimulus": 67, "trial": 75, "rt": 544, "response": "Beta"}, "38": {"stimulus": 39, "trial": 38, "rt": 2321, "response": "Alpha"}, "73": {"stimulus": 35, "trial": 73, "rt": 925, "response": "Beta"}, "72": {"stimulus": 11, "trial": 72, "rt": 734, "response": "Beta"}, "71": {"stimulus": 58, "trial": 71, "rt": 625, "response": "Beta"}, "70": {"stimulus": 4, "trial": 70, "rt": 1240, "response": "Beta"}, "59": {"stimulus": 6, "trial": 59, "rt": 682, "response": "Beta"}, "79": {"stimulus": 25, "trial": 79, "rt": 972, "response": "Beta"}, "58": {"stimulus": 79, "trial": 58, "rt": 613, "response": "Beta"}, "11": {"stimulus": 55, "trial": 11, "rt": 702, "response": "Beta"}, "10": {"stimulus": 31, "trial": 10, "rt": 836, "response": "Alpha"}, "13": {"stimulus": 50, "trial": 13, "rt": 1898, "response": "Alpha"}, "12": {"stimulus": 45, "trial": 12, "rt": 801, "response": "Beta"}, "15": {"stimulus": 80, "trial": 15, "rt": 629, "response": "Beta"}, "14": {"stimulus": 41, "trial": 14, "rt": 895, "response": "Alpha"}, "17": {"stimulus": 56, "trial": 17, "rt": 687, "response": "Beta"}, "16": {"stimulus": 63, "trial": 16, "rt": 725, "response": "Beta"}, "19": {"stimulus": 72, "trial": 19, "rt": 474, "response": "Beta"}, "18": {"stimulus": 54, "trial": 18, "rt": 584, "response": "Beta"}, "31": {"stimulus": 24, "trial": 31, "rt": 701, "response": "Beta"}, "30": {"stimulus": 20, "trial": 30, "rt": 821, "response": "Beta"}, "37": {"stimulus": 66, "trial": 37, "rt": 677, "response": "Beta"}, "36": {"stimulus": 10, "trial": 36, "rt": 747, "response": "Beta"}, "35": {"stimulus": 1, "trial": 35, "rt": 737, "response": "Beta"}, "34": {"stimulus": 38, "trial": 34, "rt": 1182, "response": "Beta"}, "33": {"stimulus": 0, "trial": 33, "rt": 645, "response": "Beta"}, "55": {"stimulus": 17, "trial": 55, "rt": 714, "response": "Beta"}, "74": {"stimulus": 8, "trial": 74, "rt": 589, "response": "Beta"}, "32": {"stimulus": 46, "trial": 32, "rt": 1295, "response": "Beta"}, "57": {"stimulus": 52, "trial": 57, "rt": 713, "response": "Beta"}, "50": {"stimulus": 62, "trial": 50, "rt": 532, "response": "Beta"}}, "experiment": {"Paradigm": "TACL", "Stimuli": "Size-Color Squares", "Experiment": "Generating-Multiple-Categories"}, "submit": {"timeTotal": 2059264, "age": "28", "comments": "It was interesting. Enjoyable.", "sex": "Female"}}