{"info": {"finish": 1535382577312, "participant": 134, "exposed": true, "lab": false, "start": 1535382194019, "counterbalance": 0, "gentype": 1, "condition": "Bottom", "browser": {"platform": "Win32", "userAgent": "Mozilla/5.0 (Windows NT 10.0; Win64; x64) AppleWebKit/537.36 (KHTML, like Gecko) Chrome/68.0.3440.106 Safari/537.36"}}, "observation": {"11": {"stimulus": 14, "trial": 11, "rt": 2401}, "10": {"stimulus": 30, "trial": 10, "rt": 2103}, "1": {"stimulus": 12, "trial": 1, "rt": 2630}, "0": {"stimulus": 30, "trial": 0, "rt": 3940}, "3": {"stimulus": 14, "trial": 3, "rt": 2439}, "2": {"stimulus": 32, "trial": 2, "rt": 3223}, "5": {"stimulus": 14, "trial": 5, "rt": 2167}, "4": {"stimulus": 32, "trial": 4, "rt": 2670}, "7": {"stimulus": 30, "trial": 7, "rt": 2888}, "6": {"stimulus": 12, "trial": 6, "rt": 2510}, "9": {"stimulus": 12, "trial": 9, "rt": 2736}, "8": {"stimulus": 32, "trial": 8, "rt": 2550}}, "generation": {"1": {"category": "Beta", "trial": 1, "stimulus": 73, "rt": 5693}, "0": {"category": "Beta", "trial": 0, "stimulus": 72, "rt": 15911}, "3": {"category": "Beta", "trial": 3, "stimulus": 75, "rt": 5823}, "2": {"category": "Beta", "trial": 2, "stimulus": 74, "rt": 9007}, "5": {"category": "Beta", "trial": 5, "stimulus": 77, "rt": 5086}, "4": {"category": "Beta", "trial": 4, "stimulus": 76, "rt": 6574}, "7": {"category": "Beta", "trial": 7, "stimulus": 79, "rt": 4592}, "6": {"category": "Beta", "trial": 6, "stimulus": 78, "rt": 4135}}, "generalization": {"56": {"stimulus": 53, "trial": 56, "rt": 807, "response": "Alpha"}, "77": {"stimulus": 68, "trial": 77, "rt": 887, "response": "Alpha"}, "54": {"stimulus": 78, "trial": 54, "rt": 966, "response": "Beta"}, "42": {"stimulus": 23, "trial": 42, "rt": 934, "response": "Alpha"}, "48": {"stimulus": 40, "trial": 48, "rt": 830, "response": "Alpha"}, "43": {"stimulus": 39, "trial": 43, "rt": 1094, "response": "Alpha"}, "60": {"stimulus": 7, "trial": 60, "rt": 952, "response": "Beta"}, "61": {"stimulus": 11, "trial": 61, "rt": 958, "response": "Beta"}, "62": {"stimulus": 49, "trial": 62, "rt": 742, "response": "Alpha"}, "63": {"stimulus": 71, "trial": 63, "rt": 783, "response": "Alpha"}, "64": {"stimulus": 51, "trial": 64, "rt": 1031, "response": "Alpha"}, "49": {"stimulus": 10, "trial": 49, "rt": 1639, "response": "Beta"}, "66": {"stimulus": 28, "trial": 66, "rt": 918, "response": "Alpha"}, "67": {"stimulus": 13, "trial": 67, "rt": 1142, "response": "Alpha"}, "68": {"stimulus": 69, "trial": 68, "rt": 935, "response": "Alpha"}, "69": {"stimulus": 34, "trial": 69, "rt": 910, "response": "Alpha"}, "80": {"stimulus": 41, "trial": 80, "rt": 966, "response": "Alpha"}, "52": {"stimulus": 80, "trial": 52, "rt": 1191, "response": "Beta"}, "53": {"stimulus": 74, "trial": 53, "rt": 1184, "response": "Beta"}, "24": {"stimulus": 54, "trial": 24, "rt": 967, "response": "Alpha"}, "25": {"stimulus": 77, "trial": 25, "rt": 1038, "response": "Beta"}, "26": {"stimulus": 12, "trial": 26, "rt": 1247, "response": "Alpha"}, "27": {"stimulus": 43, "trial": 27, "rt": 943, "response": "Alpha"}, "20": {"stimulus": 72, "trial": 20, "rt": 870, "response": "Beta"}, "21": {"stimulus": 75, "trial": 21, "rt": 918, "response": "Beta"}, "22": {"stimulus": 38, "trial": 22, "rt": 975, "response": "Alpha"}, "23": {"stimulus": 44, "trial": 23, "rt": 1736, "response": "Alpha"}, "46": {"stimulus": 73, "trial": 46, "rt": 2607, "response": "Beta"}, "47": {"stimulus": 57, "trial": 47, "rt": 967, "response": "Alpha"}, "44": {"stimulus": 64, "trial": 44, "rt": 1014, "response": "Alpha"}, "45": {"stimulus": 9, "trial": 45, "rt": 1486, "response": "Beta"}, "28": {"stimulus": 3, "trial": 28, "rt": 1078, "response": "Beta"}, "29": {"stimulus": 56, "trial": 29, "rt": 1128, "response": "Alpha"}, "40": {"stimulus": 58, "trial": 40, "rt": 1136, "response": "Alpha"}, "41": {"stimulus": 21, "trial": 41, "rt": 910, "response": "Alpha"}, "1": {"stimulus": 50, "trial": 1, "rt": 1671, "response": "Alpha"}, "0": {"stimulus": 26, "trial": 0, "rt": 1838, "response": "Alpha"}, "3": {"stimulus": 14, "trial": 3, "rt": 1695, "response": "Alpha"}, "2": {"stimulus": 15, "trial": 2, "rt": 1640, "response": "Alpha"}, "5": {"stimulus": 29, "trial": 5, "rt": 1008, "response": "Alpha"}, "4": {"stimulus": 70, "trial": 4, "rt": 1488, "response": "Beta"}, "7": {"stimulus": 22, "trial": 7, "rt": 856, "response": "Alpha"}, "6": {"stimulus": 55, "trial": 6, "rt": 1696, "response": "Beta"}, "9": {"stimulus": 1, "trial": 9, "rt": 2095, "response": "Beta"}, "8": {"stimulus": 37, "trial": 8, "rt": 1784, "response": "Alpha"}, "78": {"stimulus": 32, "trial": 78, "rt": 982, "response": "Alpha"}, "51": {"stimulus": 4, "trial": 51, "rt": 926, "response": "Beta"}, "39": {"stimulus": 42, "trial": 39, "rt": 1087, "response": "Alpha"}, "65": {"stimulus": 61, "trial": 65, "rt": 832, "response": "Alpha"}, "76": {"stimulus": 2, "trial": 76, "rt": 903, "response": "Beta"}, "75": {"stimulus": 33, "trial": 75, "rt": 871, "response": "Alpha"}, "38": {"stimulus": 66, "trial": 38, "rt": 1175, "response": "Alpha"}, "73": {"stimulus": 20, "trial": 73, "rt": 1142, "response": "Alpha"}, "72": {"stimulus": 59, "trial": 72, "rt": 887, "response": "Alpha"}, "71": {"stimulus": 52, "trial": 71, "rt": 942, "response": "Alpha"}, "70": {"stimulus": 25, "trial": 70, "rt": 918, "response": "Alpha"}, "59": {"stimulus": 65, "trial": 59, "rt": 1104, "response": "Alpha"}, "79": {"stimulus": 35, "trial": 79, "rt": 871, "response": "Alpha"}, "58": {"stimulus": 62, "trial": 58, "rt": 1040, "response": "Alpha"}, "11": {"stimulus": 79, "trial": 11, "rt": 1350, "response": "Beta"}, "10": {"stimulus": 0, "trial": 10, "rt": 967, "response": "Beta"}, "13": {"stimulus": 30, "trial": 13, "rt": 943, "response": "Alpha"}, "12": {"stimulus": 24, "trial": 12, "rt": 1079, "response": "Alpha"}, "15": {"stimulus": 45, "trial": 15, "rt": 1303, "response": "Alpha"}, "14": {"stimulus": 48, "trial": 14, "rt": 1143, "response": "Alpha"}, "17": {"stimulus": 16, "trial": 17, "rt": 2838, "response": "Beta"}, "16": {"stimulus": 19, "trial": 16, "rt": 1032, "response": "Alpha"}, "19": {"stimulus": 76, "trial": 19, "rt": 999, "response": "Beta"}, "18": {"stimulus": 27, "trial": 18, "rt": 1679, "response": "Alpha"}, "31": {"stimulus": 5, "trial": 31, "rt": 943, "response": "Beta"}, "30": {"stimulus": 60, "trial": 30, "rt": 967, "response": "Alpha"}, "37": {"stimulus": 47, "trial": 37, "rt": 984, "response": "Alpha"}, "36": {"stimulus": 8, "trial": 36, "rt": 999, "response": "Beta"}, "35": {"stimulus": 17, "trial": 35, "rt": 1293, "response": "Beta"}, "34": {"stimulus": 67, "trial": 34, "rt": 998, "response": "Alpha"}, "33": {"stimulus": 18, "trial": 33, "rt": 814, "response": "Alpha"}, "55": {"stimulus": 63, "trial": 55, "rt": 1279, "response": "Alpha"}, "74": {"stimulus": 6, "trial": 74, "rt": 918, "response": "Beta"}, "32": {"stimulus": 36, "trial": 32, "rt": 1470, "response": "Alpha"}, "57": {"stimulus": 46, "trial": 57, "rt": 808, "response": "Alpha"}, "50": {"stimulus": 31, "trial": 50, "rt": 816, "response": "Alpha"}}, "experiment": {"Paradigm": "TACL", "Stimuli": "Size-Color Squares", "Experiment": "Generating-Multiple-Categories"}, "submit": {"timeTotal": 383506, "age": "45", "comments": "no problems", "sex": "male"}}