{"info": {"finish": 1535383481687, "participant": 139, "exposed": true, "lab": false, "start": 1535382439215, "counterbalance": 7, "gentype": 1, "condition": "Middle", "browser": {"platform": "Win32", "userAgent": "Mozilla/5.0 (Windows NT 6.1; Win64; x64) AppleWebKit/537.36 (KHTML, like Gecko) Chrome/68.0.3440.106 Safari/537.36"}}, "observation": {"11": {"stimulus": 50, "trial": 11, "rt": 1462}, "10": {"stimulus": 30, "trial": 10, "rt": 1405}, "1": {"stimulus": 48, "trial": 1, "rt": 685277}, "0": {"stimulus": 30, "trial": 0, "rt": 3606}, "3": {"stimulus": 32, "trial": 3, "rt": 1851}, "2": {"stimulus": 50, "trial": 2, "rt": 2779}, "5": {"stimulus": 48, "trial": 5, "rt": 1673}, "4": {"stimulus": 32, "trial": 4, "rt": 1693}, "7": {"stimulus": 30, "trial": 7, "rt": 1392}, "6": {"stimulus": 50, "trial": 6, "rt": 1414}, "9": {"stimulus": 48, "trial": 9, "rt": 1371}, "8": {"stimulus": 32, "trial": 8, "rt": 1354}}, "generation": {"1": {"category": "Beta", "trial": 1, "stimulus": 29, "rt": 7143}, "0": {"category": "Beta", "trial": 0, "stimulus": 34, "rt": 11706}, "3": {"category": "Beta", "trial": 3, "stimulus": 33, "rt": 5209}, "2": {"category": "Beta", "trial": 2, "stimulus": 27, "rt": 3626}, "5": {"category": "Beta", "trial": 5, "stimulus": 3, "rt": 4778}, "4": {"category": "Beta", "trial": 4, "stimulus": 31, "rt": 4557}, "7": {"category": "Beta", "trial": 7, "stimulus": 57, "rt": 3373}, "6": {"category": "Beta", "trial": 6, "stimulus": 75, "rt": 3877}}, "generalization": {"56": {"stimulus": 45, "trial": 56, "rt": 967, "response": "Alpha"}, "77": {"stimulus": 4, "trial": 77, "rt": 1030, "response": "Alpha"}, "54": {"stimulus": 63, "trial": 54, "rt": 967, "response": "Alpha"}, "42": {"stimulus": 29, "trial": 42, "rt": 1462, "response": "Alpha"}, "48": {"stimulus": 72, "trial": 48, "rt": 1178, "response": "Alpha"}, "43": {"stimulus": 80, "trial": 43, "rt": 1353, "response": "Beta"}, "60": {"stimulus": 65, "trial": 60, "rt": 918, "response": "Alpha"}, "61": {"stimulus": 69, "trial": 61, "rt": 829, "response": "Beta"}, "62": {"stimulus": 58, "trial": 62, "rt": 885, "response": "Beta"}, "63": {"stimulus": 33, "trial": 63, "rt": 433, "response": "Beta"}, "64": {"stimulus": 66, "trial": 64, "rt": 1115, "response": "Alpha"}, "49": {"stimulus": 3, "trial": 49, "rt": 1929, "response": "Alpha"}, "66": {"stimulus": 67, "trial": 66, "rt": 2176, "response": "Beta"}, "67": {"stimulus": 43, "trial": 67, "rt": 20157, "response": "Beta"}, "68": {"stimulus": 24, "trial": 68, "rt": 839, "response": "Beta"}, "69": {"stimulus": 75, "trial": 69, "rt": 1168, "response": "Alpha"}, "80": {"stimulus": 37, "trial": 80, "rt": 1143, "response": "Alpha"}, "52": {"stimulus": 39, "trial": 52, "rt": 1214, "response": "Alpha"}, "53": {"stimulus": 68, "trial": 53, "rt": 889, "response": "Beta"}, "24": {"stimulus": 40, "trial": 24, "rt": 1177, "response": "Alpha"}, "25": {"stimulus": 13, "trial": 25, "rt": 970, "response": "Alpha"}, "26": {"stimulus": 14, "trial": 26, "rt": 1805, "response": "Beta"}, "27": {"stimulus": 41, "trial": 27, "rt": 566, "response": "Beta"}, "20": {"stimulus": 46, "trial": 20, "rt": 1210, "response": "Beta"}, "21": {"stimulus": 17, "trial": 21, "rt": 947, "response": "Beta"}, "22": {"stimulus": 38, "trial": 22, "rt": 847, "response": "Alpha"}, "23": {"stimulus": 53, "trial": 23, "rt": 952, "response": "Beta"}, "46": {"stimulus": 19, "trial": 46, "rt": 1445, "response": "Alpha"}, "47": {"stimulus": 21, "trial": 47, "rt": 1999, "response": "Alpha"}, "44": {"stimulus": 76, "trial": 44, "rt": 1275, "response": "Alpha"}, "45": {"stimulus": 78, "trial": 45, "rt": 1018, "response": "Beta"}, "28": {"stimulus": 64, "trial": 28, "rt": 1109, "response": "Alpha"}, "29": {"stimulus": 26, "trial": 29, "rt": 891, "response": "Beta"}, "40": {"stimulus": 60, "trial": 40, "rt": 1730, "response": "Beta"}, "41": {"stimulus": 44, "trial": 41, "rt": 934, "response": "Beta"}, "1": {"stimulus": 48, "trial": 1, "rt": 2516, "response": "Alpha"}, "0": {"stimulus": 8, "trial": 0, "rt": 2291, "response": "Beta"}, "3": {"stimulus": 18, "trial": 3, "rt": 5369, "response": "Alpha"}, "2": {"stimulus": 7, "trial": 2, "rt": 3233, "response": "Beta"}, "5": {"stimulus": 36, "trial": 5, "rt": 774, "response": "Alpha"}, "4": {"stimulus": 0, "trial": 4, "rt": 1530, "response": "Alpha"}, "7": {"stimulus": 25, "trial": 7, "rt": 1245, "response": "Beta"}, "6": {"stimulus": 1, "trial": 6, "rt": 616, "response": "Alpha"}, "9": {"stimulus": 79, "trial": 9, "rt": 551, "response": "Beta"}, "8": {"stimulus": 6, "trial": 8, "rt": 2158, "response": "Beta"}, "78": {"stimulus": 23, "trial": 78, "rt": 2145, "response": "Beta"}, "51": {"stimulus": 22, "trial": 51, "rt": 770, "response": "Beta"}, "39": {"stimulus": 9, "trial": 39, "rt": 1046, "response": "Alpha"}, "65": {"stimulus": 49, "trial": 65, "rt": 1824, "response": "Alpha"}, "76": {"stimulus": 34, "trial": 76, "rt": 4922, "response": "Beta"}, "75": {"stimulus": 47, "trial": 75, "rt": 1093, "response": "Beta"}, "38": {"stimulus": 52, "trial": 38, "rt": 992, "response": "Beta"}, "73": {"stimulus": 11, "trial": 73, "rt": 2760, "response": "Alpha"}, "72": {"stimulus": 62, "trial": 72, "rt": 966, "response": "Beta"}, "71": {"stimulus": 30, "trial": 71, "rt": 1063, "response": "Alpha"}, "70": {"stimulus": 61, "trial": 70, "rt": 862, "response": "Beta"}, "59": {"stimulus": 54, "trial": 59, "rt": 574, "response": "Alpha"}, "79": {"stimulus": 70, "trial": 79, "rt": 2801, "response": "Beta"}, "58": {"stimulus": 27, "trial": 58, "rt": 532, "response": "Alpha"}, "11": {"stimulus": 56, "trial": 11, "rt": 1326, "response": "Alpha"}, "10": {"stimulus": 20, "trial": 10, "rt": 1209, "response": "Alpha"}, "13": {"stimulus": 77, "trial": 13, "rt": 1286, "response": "Beta"}, "12": {"stimulus": 73, "trial": 12, "rt": 544, "response": "Alpha"}, "15": {"stimulus": 5, "trial": 15, "rt": 1221, "response": "Beta"}, "14": {"stimulus": 50, "trial": 14, "rt": 6153, "response": "Beta"}, "17": {"stimulus": 31, "trial": 17, "rt": 1209, "response": "Beta"}, "16": {"stimulus": 71, "trial": 16, "rt": 686, "response": "Beta"}, "19": {"stimulus": 35, "trial": 19, "rt": 2149, "response": "Beta"}, "18": {"stimulus": 74, "trial": 18, "rt": 1213, "response": "Alpha"}, "31": {"stimulus": 57, "trial": 31, "rt": 2082, "response": "Alpha"}, "30": {"stimulus": 59, "trial": 30, "rt": 5539, "response": "Beta"}, "37": {"stimulus": 42, "trial": 37, "rt": 956, "response": "Beta"}, "36": {"stimulus": 10, "trial": 36, "rt": 1344, "response": "Alpha"}, "35": {"stimulus": 16, "trial": 35, "rt": 1020, "response": "Beta"}, "34": {"stimulus": 28, "trial": 34, "rt": 1850, "response": "Alpha"}, "33": {"stimulus": 32, "trial": 33, "rt": 1217, "response": "Beta"}, "55": {"stimulus": 15, "trial": 55, "rt": 980, "response": "Beta"}, "74": {"stimulus": 2, "trial": 74, "rt": 2112, "response": "Beta"}, "32": {"stimulus": 12, "trial": 32, "rt": 836, "response": "Alpha"}, "57": {"stimulus": 55, "trial": 57, "rt": 608, "response": "Alpha"}, "50": {"stimulus": 51, "trial": 50, "rt": 973, "response": "Beta"}}, "experiment": {"Paradigm": "TACL", "Stimuli": "Size-Color Squares", "Experiment": "Generating-Multiple-Categories"}, "submit": {"timeTotal": 1043177, "age": "27", "comments": "interesting", "sex": "female"}}