{"info": {"finish": 1535383077126, "participant": 140, "exposed": true, "lab": false, "start": 1535382754339, "counterbalance": 5, "gentype": 1, "condition": "Middle", "browser": {"platform": "MacIntel", "userAgent": "Mozilla/5.0 (Macintosh; Intel Mac OS X 10.13; rv:61.0) Gecko/20100101 Firefox/61.0"}}, "observation": {"11": {"stimulus": 30, "trial": 11, "rt": 1676}, "10": {"stimulus": 48, "trial": 10, "rt": 1668}, "1": {"stimulus": 32, "trial": 1, "rt": 2255}, "0": {"stimulus": 30, "trial": 0, "rt": 3345}, "3": {"stimulus": 48, "trial": 3, "rt": 3218}, "2": {"stimulus": 50, "trial": 2, "rt": 1851}, "5": {"stimulus": 30, "trial": 5, "rt": 2302}, "4": {"stimulus": 50, "trial": 4, "rt": 1844}, "7": {"stimulus": 32, "trial": 7, "rt": 2191}, "6": {"stimulus": 48, "trial": 6, "rt": 1842}, "9": {"stimulus": 50, "trial": 9, "rt": 1682}, "8": {"stimulus": 32, "trial": 8, "rt": 1649}}, "generation": {"1": {"category": "Beta", "trial": 1, "stimulus": 17, "rt": 16132}, "0": {"category": "Beta", "trial": 0, "stimulus": 0, "rt": 21490}, "3": {"category": "Beta", "trial": 3, "stimulus": 72, "rt": 4448}, "2": {"category": "Beta", "trial": 2, "stimulus": 16, "rt": 7212}, "5": {"category": "Beta", "trial": 5, "stimulus": 73, "rt": 5587}, "4": {"category": "Beta", "trial": 4, "stimulus": 80, "rt": 3663}, "7": {"category": "Beta", "trial": 7, "stimulus": 6, "rt": 7959}, "6": {"category": "Beta", "trial": 6, "stimulus": 4, "rt": 7904}}, "generalization": {"56": {"stimulus": 44, "trial": 56, "rt": 856, "response": "Beta"}, "77": {"stimulus": 22, "trial": 77, "rt": 1419, "response": "Alpha"}, "54": {"stimulus": 5, "trial": 54, "rt": 1364, "response": "Beta"}, "42": {"stimulus": 29, "trial": 42, "rt": 1758, "response": "Alpha"}, "48": {"stimulus": 57, "trial": 48, "rt": 1587, "response": "Alpha"}, "43": {"stimulus": 69, "trial": 43, "rt": 1162, "response": "Beta"}, "60": {"stimulus": 64, "trial": 60, "rt": 1611, "response": "Beta"}, "61": {"stimulus": 43, "trial": 61, "rt": 999, "response": "Beta"}, "62": {"stimulus": 9, "trial": 62, "rt": 1226, "response": "Beta"}, "63": {"stimulus": 6, "trial": 63, "rt": 1241, "response": "Beta"}, "64": {"stimulus": 40, "trial": 64, "rt": 825, "response": "Beta"}, "49": {"stimulus": 53, "trial": 49, "rt": 909, "response": "Beta"}, "66": {"stimulus": 60, "trial": 66, "rt": 1235, "response": "Beta"}, "67": {"stimulus": 4, "trial": 67, "rt": 1324, "response": "Beta"}, "68": {"stimulus": 18, "trial": 68, "rt": 2673, "response": "Beta"}, "69": {"stimulus": 51, "trial": 69, "rt": 968, "response": "Beta"}, "80": {"stimulus": 67, "trial": 80, "rt": 1009, "response": "Beta"}, "52": {"stimulus": 73, "trial": 52, "rt": 929, "response": "Beta"}, "53": {"stimulus": 68, "trial": 53, "rt": 1995, "response": "Beta"}, "24": {"stimulus": 52, "trial": 24, "rt": 1223, "response": "Beta"}, "25": {"stimulus": 15, "trial": 25, "rt": 2428, "response": "Beta"}, "26": {"stimulus": 21, "trial": 26, "rt": 867, "response": "Beta"}, "27": {"stimulus": 70, "trial": 27, "rt": 1030, "response": "Beta"}, "20": {"stimulus": 31, "trial": 20, "rt": 1234, "response": "Alpha"}, "21": {"stimulus": 32, "trial": 21, "rt": 1073, "response": "Alpha"}, "22": {"stimulus": 36, "trial": 22, "rt": 1853, "response": "Alpha"}, "23": {"stimulus": 46, "trial": 23, "rt": 983, "response": "Alpha"}, "46": {"stimulus": 26, "trial": 46, "rt": 997, "response": "Beta"}, "47": {"stimulus": 10, "trial": 47, "rt": 1999, "response": "Beta"}, "44": {"stimulus": 77, "trial": 44, "rt": 750, "response": "Beta"}, "45": {"stimulus": 30, "trial": 45, "rt": 1748, "response": "Alpha"}, "28": {"stimulus": 39, "trial": 28, "rt": 1832, "response": "Alpha"}, "29": {"stimulus": 27, "trial": 29, "rt": 1115, "response": "Beta"}, "40": {"stimulus": 59, "trial": 40, "rt": 2574, "response": "Alpha"}, "41": {"stimulus": 80, "trial": 41, "rt": 1269, "response": "Beta"}, "1": {"stimulus": 12, "trial": 1, "rt": 1277, "response": "Alpha"}, "0": {"stimulus": 14, "trial": 0, "rt": 2878, "response": "Alpha"}, "3": {"stimulus": 48, "trial": 3, "rt": 968, "response": "Beta"}, "2": {"stimulus": 47, "trial": 2, "rt": 1194, "response": "Beta"}, "5": {"stimulus": 78, "trial": 5, "rt": 1337, "response": "Beta"}, "4": {"stimulus": 3, "trial": 4, "rt": 1758, "response": "Beta"}, "7": {"stimulus": 56, "trial": 7, "rt": 1219, "response": "Beta"}, "6": {"stimulus": 2, "trial": 6, "rt": 1022, "response": "Beta"}, "9": {"stimulus": 11, "trial": 9, "rt": 950, "response": "Beta"}, "8": {"stimulus": 16, "trial": 8, "rt": 1849, "response": "Beta"}, "78": {"stimulus": 42, "trial": 78, "rt": 2194, "response": "Beta"}, "51": {"stimulus": 24, "trial": 51, "rt": 1280, "response": "Alpha"}, "39": {"stimulus": 49, "trial": 39, "rt": 3492, "response": "Alpha"}, "65": {"stimulus": 20, "trial": 65, "rt": 1023, "response": "Beta"}, "76": {"stimulus": 8, "trial": 76, "rt": 985, "response": "Beta"}, "75": {"stimulus": 71, "trial": 75, "rt": 1173, "response": "Beta"}, "38": {"stimulus": 79, "trial": 38, "rt": 903, "response": "Beta"}, "73": {"stimulus": 41, "trial": 73, "rt": 757, "response": "Beta"}, "72": {"stimulus": 19, "trial": 72, "rt": 883, "response": "Beta"}, "71": {"stimulus": 25, "trial": 71, "rt": 996, "response": "Beta"}, "70": {"stimulus": 45, "trial": 70, "rt": 1654, "response": "Beta"}, "59": {"stimulus": 38, "trial": 59, "rt": 749, "response": "Alpha"}, "79": {"stimulus": 28, "trial": 79, "rt": 1176, "response": "Alpha"}, "58": {"stimulus": 33, "trial": 58, "rt": 1242, "response": "Alpha"}, "11": {"stimulus": 37, "trial": 11, "rt": 1510, "response": "Alpha"}, "10": {"stimulus": 72, "trial": 10, "rt": 1656, "response": "Beta"}, "13": {"stimulus": 34, "trial": 13, "rt": 1322, "response": "Beta"}, "12": {"stimulus": 54, "trial": 12, "rt": 2746, "response": "Alpha"}, "15": {"stimulus": 0, "trial": 15, "rt": 996, "response": "Beta"}, "14": {"stimulus": 66, "trial": 14, "rt": 1393, "response": "Beta"}, "17": {"stimulus": 35, "trial": 17, "rt": 1716, "response": "Beta"}, "16": {"stimulus": 1, "trial": 16, "rt": 1377, "response": "Beta"}, "19": {"stimulus": 65, "trial": 19, "rt": 868, "response": "Beta"}, "18": {"stimulus": 61, "trial": 18, "rt": 797, "response": "Beta"}, "31": {"stimulus": 13, "trial": 31, "rt": 1564, "response": "Beta"}, "30": {"stimulus": 62, "trial": 30, "rt": 985, "response": "Beta"}, "37": {"stimulus": 58, "trial": 37, "rt": 1168, "response": "Alpha"}, "36": {"stimulus": 50, "trial": 36, "rt": 1965, "response": "Alpha"}, "35": {"stimulus": 75, "trial": 35, "rt": 917, "response": "Beta"}, "34": {"stimulus": 76, "trial": 34, "rt": 964, "response": "Beta"}, "33": {"stimulus": 17, "trial": 33, "rt": 812, "response": "Beta"}, "55": {"stimulus": 7, "trial": 55, "rt": 973, "response": "Beta"}, "74": {"stimulus": 23, "trial": 74, "rt": 1513, "response": "Alpha"}, "32": {"stimulus": 55, "trial": 32, "rt": 1151, "response": "Beta"}, "57": {"stimulus": 74, "trial": 57, "rt": 1413, "response": "Beta"}, "50": {"stimulus": 63, "trial": 50, "rt": 1063, "response": "Beta"}}, "experiment": {"Paradigm": "TACL", "Stimuli": "Size-Color Squares", "Experiment": "Generating-Multiple-Categories"}, "submit": {"timeTotal": 323053, "age": "38", "comments": "Very tricky experiment!", "sex": "male"}}