{"info": {"finish": 1535388469025, "participant": 145, "exposed": true, "lab": false, "start": 1535388206124, "counterbalance": 0, "gentype": 1, "condition": "Middle", "browser": {"platform": "Win32", "userAgent": "Mozilla/5.0 (Windows NT 10.0; Win64; x64) AppleWebKit/537.36 (KHTML, like Gecko) Chrome/68.0.3440.106 Safari/537.36"}}, "observation": {"11": {"stimulus": 30, "trial": 11, "rt": 1529}, "10": {"stimulus": 48, "trial": 10, "rt": 1362}, "1": {"stimulus": 48, "trial": 1, "rt": 1679}, "0": {"stimulus": 30, "trial": 0, "rt": 3300}, "3": {"stimulus": 50, "trial": 3, "rt": 1456}, "2": {"stimulus": 32, "trial": 2, "rt": 1566}, "5": {"stimulus": 30, "trial": 5, "rt": 1355}, "4": {"stimulus": 48, "trial": 4, "rt": 1431}, "7": {"stimulus": 50, "trial": 7, "rt": 1365}, "6": {"stimulus": 32, "trial": 6, "rt": 1251}, "9": {"stimulus": 50, "trial": 9, "rt": 1342}, "8": {"stimulus": 32, "trial": 8, "rt": 1560}}, "generation": {"1": {"category": "Beta", "trial": 1, "stimulus": 63, "rt": 10268}, "0": {"category": "Beta", "trial": 0, "stimulus": 72, "rt": 7061}, "3": {"category": "Beta", "trial": 3, "stimulus": 64, "rt": 4501}, "2": {"category": "Beta", "trial": 2, "stimulus": 73, "rt": 5627}, "5": {"category": "Beta", "trial": 5, "stimulus": 74, "rt": 5893}, "4": {"category": "Beta", "trial": 4, "stimulus": 54, "rt": 21740}, "7": {"category": "Beta", "trial": 7, "stimulus": 80, "rt": 3976}, "6": {"category": "Beta", "trial": 6, "stimulus": 76, "rt": 4239}}, "generalization": {"56": {"stimulus": 58, "trial": 56, "rt": 1070, "response": "Beta"}, "77": {"stimulus": 31, "trial": 77, "rt": 1019, "response": "Alpha"}, "54": {"stimulus": 67, "trial": 54, "rt": 1124, "response": "Beta"}, "42": {"stimulus": 2, "trial": 42, "rt": 395, "response": "Alpha"}, "48": {"stimulus": 24, "trial": 48, "rt": 762, "response": "Alpha"}, "43": {"stimulus": 51, "trial": 43, "rt": 554, "response": "Alpha"}, "60": {"stimulus": 71, "trial": 60, "rt": 996, "response": "Beta"}, "61": {"stimulus": 66, "trial": 61, "rt": 764, "response": "Beta"}, "62": {"stimulus": 19, "trial": 62, "rt": 942, "response": "Alpha"}, "63": {"stimulus": 54, "trial": 63, "rt": 1103, "response": "Beta"}, "64": {"stimulus": 13, "trial": 64, "rt": 753, "response": "Alpha"}, "49": {"stimulus": 59, "trial": 49, "rt": 742, "response": "Alpha"}, "66": {"stimulus": 77, "trial": 66, "rt": 1355, "response": "Beta"}, "67": {"stimulus": 75, "trial": 67, "rt": 710, "response": "Beta"}, "68": {"stimulus": 20, "trial": 68, "rt": 966, "response": "Alpha"}, "69": {"stimulus": 61, "trial": 69, "rt": 877, "response": "Beta"}, "80": {"stimulus": 23, "trial": 80, "rt": 968, "response": "Alpha"}, "52": {"stimulus": 46, "trial": 52, "rt": 576, "response": "Alpha"}, "53": {"stimulus": 27, "trial": 53, "rt": 424, "response": "Alpha"}, "24": {"stimulus": 6, "trial": 24, "rt": 791, "response": "Alpha"}, "25": {"stimulus": 72, "trial": 25, "rt": 945, "response": "Beta"}, "26": {"stimulus": 80, "trial": 26, "rt": 874, "response": "Beta"}, "27": {"stimulus": 64, "trial": 27, "rt": 884, "response": "Beta"}, "20": {"stimulus": 57, "trial": 20, "rt": 926, "response": "Alpha"}, "21": {"stimulus": 79, "trial": 21, "rt": 915, "response": "Beta"}, "22": {"stimulus": 45, "trial": 22, "rt": 881, "response": "Alpha"}, "23": {"stimulus": 65, "trial": 23, "rt": 1305, "response": "Beta"}, "46": {"stimulus": 62, "trial": 46, "rt": 454, "response": "Alpha"}, "47": {"stimulus": 73, "trial": 47, "rt": 1026, "response": "Beta"}, "44": {"stimulus": 56, "trial": 44, "rt": 687, "response": "Alpha"}, "45": {"stimulus": 33, "trial": 45, "rt": 493, "response": "Alpha"}, "28": {"stimulus": 48, "trial": 28, "rt": 881, "response": "Alpha"}, "29": {"stimulus": 5, "trial": 29, "rt": 576, "response": "Alpha"}, "40": {"stimulus": 21, "trial": 40, "rt": 471, "response": "Alpha"}, "41": {"stimulus": 4, "trial": 41, "rt": 387, "response": "Alpha"}, "1": {"stimulus": 36, "trial": 1, "rt": 929, "response": "Alpha"}, "0": {"stimulus": 63, "trial": 0, "rt": 1859, "response": "Beta"}, "3": {"stimulus": 41, "trial": 3, "rt": 1063, "response": "Alpha"}, "2": {"stimulus": 68, "trial": 2, "rt": 1176, "response": "Beta"}, "5": {"stimulus": 28, "trial": 5, "rt": 681, "response": "Alpha"}, "4": {"stimulus": 10, "trial": 4, "rt": 1063, "response": "Alpha"}, "7": {"stimulus": 29, "trial": 7, "rt": 486, "response": "Alpha"}, "6": {"stimulus": 34, "trial": 6, "rt": 515, "response": "Alpha"}, "9": {"stimulus": 14, "trial": 9, "rt": 470, "response": "Alpha"}, "8": {"stimulus": 35, "trial": 8, "rt": 447, "response": "Alpha"}, "78": {"stimulus": 60, "trial": 78, "rt": 996, "response": "Beta"}, "51": {"stimulus": 55, "trial": 51, "rt": 1049, "response": "Beta"}, "39": {"stimulus": 7, "trial": 39, "rt": 404, "response": "Alpha"}, "65": {"stimulus": 9, "trial": 65, "rt": 501, "response": "Alpha"}, "76": {"stimulus": 47, "trial": 76, "rt": 1407, "response": "Alpha"}, "75": {"stimulus": 69, "trial": 75, "rt": 960, "response": "Beta"}, "38": {"stimulus": 32, "trial": 38, "rt": 514, "response": "Alpha"}, "73": {"stimulus": 12, "trial": 73, "rt": 882, "response": "Alpha"}, "72": {"stimulus": 42, "trial": 72, "rt": 994, "response": "Alpha"}, "71": {"stimulus": 30, "trial": 71, "rt": 960, "response": "Beta"}, "70": {"stimulus": 16, "trial": 70, "rt": 891, "response": "Alpha"}, "59": {"stimulus": 18, "trial": 59, "rt": 659, "response": "Alpha"}, "79": {"stimulus": 76, "trial": 79, "rt": 966, "response": "Beta"}, "58": {"stimulus": 40, "trial": 58, "rt": 772, "response": "Alpha"}, "11": {"stimulus": 43, "trial": 11, "rt": 381, "response": "Alpha"}, "10": {"stimulus": 25, "trial": 10, "rt": 446, "response": "Alpha"}, "13": {"stimulus": 3, "trial": 13, "rt": 409, "response": "Alpha"}, "12": {"stimulus": 39, "trial": 12, "rt": 454, "response": "Alpha"}, "15": {"stimulus": 17, "trial": 15, "rt": 284, "response": "Alpha"}, "14": {"stimulus": 1, "trial": 14, "rt": 373, "response": "Alpha"}, "17": {"stimulus": 78, "trial": 17, "rt": 366, "response": "Alpha"}, "16": {"stimulus": 26, "trial": 16, "rt": 381, "response": "Alpha"}, "19": {"stimulus": 74, "trial": 19, "rt": 1062, "response": "Beta"}, "18": {"stimulus": 52, "trial": 18, "rt": 510, "response": "Alpha"}, "31": {"stimulus": 38, "trial": 31, "rt": 928, "response": "Alpha"}, "30": {"stimulus": 70, "trial": 30, "rt": 1296, "response": "Beta"}, "37": {"stimulus": 8, "trial": 37, "rt": 606, "response": "Alpha"}, "36": {"stimulus": 50, "trial": 36, "rt": 605, "response": "Alpha"}, "35": {"stimulus": 49, "trial": 35, "rt": 545, "response": "Alpha"}, "34": {"stimulus": 53, "trial": 34, "rt": 568, "response": "Alpha"}, "33": {"stimulus": 37, "trial": 33, "rt": 665, "response": "Alpha"}, "55": {"stimulus": 22, "trial": 55, "rt": 1259, "response": "Alpha"}, "74": {"stimulus": 15, "trial": 74, "rt": 704, "response": "Alpha"}, "32": {"stimulus": 44, "trial": 32, "rt": 719, "response": "Alpha"}, "57": {"stimulus": 11, "trial": 57, "rt": 942, "response": "Alpha"}, "50": {"stimulus": 0, "trial": 50, "rt": 651, "response": "Alpha"}}, "experiment": {"Paradigm": "TACL", "Stimuli": "Size-Color Squares", "Experiment": "Generating-Multiple-Categories"}, "submit": {"timeTotal": 263174, "age": "24", "comments": "", "sex": "female"}}