{"info": {"finish": 1535388799306, "participant": 147, "exposed": true, "lab": false, "start": 1535388358924, "counterbalance": 7, "gentype": 1, "condition": "Bottom", "browser": {"platform": "Win32", "userAgent": "Mozilla/5.0 (Windows NT 10.0; Win64; x64) AppleWebKit/537.36 (KHTML, like Gecko) Chrome/68.0.3440.106 Safari/537.36"}}, "observation": {"11": {"stimulus": 14, "trial": 11, "rt": 2381}, "10": {"stimulus": 32, "trial": 10, "rt": 2540}, "1": {"stimulus": 12, "trial": 1, "rt": 2998}, "0": {"stimulus": 30, "trial": 0, "rt": 9198}, "3": {"stimulus": 14, "trial": 3, "rt": 2470}, "2": {"stimulus": 32, "trial": 2, "rt": 2350}, "5": {"stimulus": 14, "trial": 5, "rt": 2101}, "4": {"stimulus": 32, "trial": 4, "rt": 2509}, "7": {"stimulus": 30, "trial": 7, "rt": 4163}, "6": {"stimulus": 12, "trial": 6, "rt": 2162}, "9": {"stimulus": 12, "trial": 9, "rt": 3053}, "8": {"stimulus": 30, "trial": 8, "rt": 2178}}, "generation": {"1": {"category": "Beta", "trial": 1, "stimulus": 71, "rt": 7392}, "0": {"category": "Beta", "trial": 0, "stimulus": 80, "rt": 14039}, "3": {"category": "Beta", "trial": 3, "stimulus": 53, "rt": 5686}, "2": {"category": "Beta", "trial": 2, "stimulus": 62, "rt": 13949}, "5": {"category": "Beta", "trial": 5, "stimulus": 26, "rt": 4391}, "4": {"category": "Beta", "trial": 4, "stimulus": 44, "rt": 19199}, "7": {"category": "Beta", "trial": 7, "stimulus": 8, "rt": 6988}, "6": {"category": "Beta", "trial": 6, "stimulus": 17, "rt": 4462}}, "generalization": {"56": {"stimulus": 6, "trial": 56, "rt": 3591, "response": "Alpha"}, "77": {"stimulus": 53, "trial": 77, "rt": 1694, "response": "Beta"}, "54": {"stimulus": 0, "trial": 54, "rt": 1063, "response": "Alpha"}, "42": {"stimulus": 1, "trial": 42, "rt": 1015, "response": "Alpha"}, "48": {"stimulus": 79, "trial": 48, "rt": 1388, "response": "Beta"}, "43": {"stimulus": 4, "trial": 43, "rt": 958, "response": "Alpha"}, "60": {"stimulus": 10, "trial": 60, "rt": 3578, "response": "Alpha"}, "61": {"stimulus": 56, "trial": 61, "rt": 1903, "response": "Beta"}, "62": {"stimulus": 49, "trial": 62, "rt": 2071, "response": "Alpha"}, "63": {"stimulus": 3, "trial": 63, "rt": 3358, "response": "Alpha"}, "64": {"stimulus": 43, "trial": 64, "rt": 2799, "response": "Beta"}, "49": {"stimulus": 76, "trial": 49, "rt": 950, "response": "Beta"}, "66": {"stimulus": 64, "trial": 66, "rt": 1249, "response": "Beta"}, "67": {"stimulus": 26, "trial": 67, "rt": 4639, "response": "Beta"}, "68": {"stimulus": 30, "trial": 68, "rt": 3589, "response": "Alpha"}, "69": {"stimulus": 55, "trial": 69, "rt": 4367, "response": "Beta"}, "80": {"stimulus": 75, "trial": 80, "rt": 1070, "response": "Beta"}, "52": {"stimulus": 65, "trial": 52, "rt": 1215, "response": "Alpha"}, "53": {"stimulus": 44, "trial": 53, "rt": 797, "response": "Beta"}, "24": {"stimulus": 11, "trial": 24, "rt": 2378, "response": "Alpha"}, "25": {"stimulus": 33, "trial": 25, "rt": 5270, "response": "Alpha"}, "26": {"stimulus": 2, "trial": 26, "rt": 2456, "response": "Alpha"}, "27": {"stimulus": 61, "trial": 27, "rt": 2247, "response": "Beta"}, "20": {"stimulus": 46, "trial": 20, "rt": 4543, "response": "Alpha"}, "21": {"stimulus": 63, "trial": 21, "rt": 1015, "response": "Beta"}, "22": {"stimulus": 12, "trial": 22, "rt": 1646, "response": "Alpha"}, "23": {"stimulus": 52, "trial": 23, "rt": 6806, "response": "Beta"}, "46": {"stimulus": 9, "trial": 46, "rt": 1050, "response": "Beta"}, "47": {"stimulus": 40, "trial": 47, "rt": 1884, "response": "Alpha"}, "44": {"stimulus": 62, "trial": 44, "rt": 1775, "response": "Beta"}, "45": {"stimulus": 21, "trial": 45, "rt": 1279, "response": "Alpha"}, "28": {"stimulus": 34, "trial": 28, "rt": 1640, "response": "Beta"}, "29": {"stimulus": 69, "trial": 29, "rt": 1294, "response": "Beta"}, "40": {"stimulus": 48, "trial": 40, "rt": 739, "response": "Alpha"}, "41": {"stimulus": 70, "trial": 41, "rt": 1402, "response": "Beta"}, "1": {"stimulus": 7, "trial": 1, "rt": 1606, "response": "Beta"}, "0": {"stimulus": 57, "trial": 0, "rt": 1899, "response": "Alpha"}, "3": {"stimulus": 22, "trial": 3, "rt": 743, "response": "Alpha"}, "2": {"stimulus": 51, "trial": 2, "rt": 2486, "response": "Alpha"}, "5": {"stimulus": 29, "trial": 5, "rt": 846, "response": "Alpha"}, "4": {"stimulus": 73, "trial": 4, "rt": 1608, "response": "Alpha"}, "7": {"stimulus": 54, "trial": 7, "rt": 1517, "response": "Alpha"}, "6": {"stimulus": 42, "trial": 6, "rt": 4336, "response": "Alpha"}, "9": {"stimulus": 25, "trial": 9, "rt": 1045, "response": "Beta"}, "8": {"stimulus": 20, "trial": 8, "rt": 1071, "response": "Alpha"}, "78": {"stimulus": 37, "trial": 78, "rt": 1736, "response": "Beta"}, "51": {"stimulus": 17, "trial": 51, "rt": 2150, "response": "Beta"}, "39": {"stimulus": 32, "trial": 39, "rt": 839, "response": "Alpha"}, "65": {"stimulus": 66, "trial": 65, "rt": 5222, "response": "Beta"}, "76": {"stimulus": 78, "trial": 76, "rt": 1648, "response": "Beta"}, "75": {"stimulus": 15, "trial": 75, "rt": 2638, "response": "Alpha"}, "38": {"stimulus": 68, "trial": 38, "rt": 1453, "response": "Beta"}, "73": {"stimulus": 45, "trial": 73, "rt": 2346, "response": "Beta"}, "72": {"stimulus": 23, "trial": 72, "rt": 587, "response": "Alpha"}, "71": {"stimulus": 47, "trial": 71, "rt": 916, "response": "Beta"}, "70": {"stimulus": 38, "trial": 70, "rt": 5259, "response": "Alpha"}, "59": {"stimulus": 16, "trial": 59, "rt": 5502, "response": "Beta"}, "79": {"stimulus": 72, "trial": 79, "rt": 1222, "response": "Beta"}, "58": {"stimulus": 80, "trial": 58, "rt": 2390, "response": "Beta"}, "11": {"stimulus": 58, "trial": 11, "rt": 1097, "response": "Alpha"}, "10": {"stimulus": 39, "trial": 10, "rt": 1695, "response": "Alpha"}, "13": {"stimulus": 50, "trial": 13, "rt": 788, "response": "Alpha"}, "12": {"stimulus": 36, "trial": 12, "rt": 2008, "response": "Beta"}, "15": {"stimulus": 77, "trial": 15, "rt": 1692, "response": "Beta"}, "14": {"stimulus": 41, "trial": 14, "rt": 1140, "response": "Alpha"}, "17": {"stimulus": 59, "trial": 17, "rt": 1872, "response": "Beta"}, "16": {"stimulus": 27, "trial": 16, "rt": 645, "response": "Alpha"}, "19": {"stimulus": 35, "trial": 19, "rt": 3799, "response": "Beta"}, "18": {"stimulus": 5, "trial": 18, "rt": 997, "response": "Alpha"}, "31": {"stimulus": 14, "trial": 31, "rt": 1116, "response": "Alpha"}, "30": {"stimulus": 19, "trial": 30, "rt": 1768, "response": "Alpha"}, "37": {"stimulus": 71, "trial": 37, "rt": 2439, "response": "Beta"}, "36": {"stimulus": 31, "trial": 36, "rt": 8575, "response": "Alpha"}, "35": {"stimulus": 60, "trial": 35, "rt": 6167, "response": "Beta"}, "34": {"stimulus": 13, "trial": 34, "rt": 3823, "response": "Alpha"}, "33": {"stimulus": 18, "trial": 33, "rt": 1083, "response": "Beta"}, "55": {"stimulus": 74, "trial": 55, "rt": 1606, "response": "Beta"}, "74": {"stimulus": 28, "trial": 74, "rt": 5416, "response": "Alpha"}, "32": {"stimulus": 67, "trial": 32, "rt": 1560, "response": "Beta"}, "57": {"stimulus": 8, "trial": 57, "rt": 4062, "response": "Beta"}, "50": {"stimulus": 24, "trial": 50, "rt": 2094, "response": "Alpha"}}, "experiment": {"Paradigm": "TACL", "Stimuli": "Size-Color Squares", "Experiment": "Generating-Multiple-Categories"}, "submit": {"timeTotal": 440754, "age": "31", "comments": ".", "sex": "female"}}