{"info": {"finish": 1535389325045, "participant": 149, "exposed": true, "lab": false, "start": 1535388882370, "counterbalance": 2, "gentype": 2, "condition": "Middle", "browser": {"platform": "Win32", "userAgent": "Mozilla/5.0 (Windows NT 10.0; Win64; x64) AppleWebKit/537.36 (KHTML, like Gecko) Chrome/68.0.3440.106 Safari/537.36"}}, "observation": {"11": {"stimulus": 50, "trial": 11, "rt": 1479}, "10": {"stimulus": 32, "trial": 10, "rt": 1566}, "1": {"stimulus": 32, "trial": 1, "rt": 2157}, "0": {"stimulus": 30, "trial": 0, "rt": 2796}, "3": {"stimulus": 48, "trial": 3, "rt": 1616}, "2": {"stimulus": 50, "trial": 2, "rt": 1871}, "5": {"stimulus": 30, "trial": 5, "rt": 1943}, "4": {"stimulus": 32, "trial": 4, "rt": 2031}, "7": {"stimulus": 48, "trial": 7, "rt": 1550}, "6": {"stimulus": 50, "trial": 6, "rt": 1750}, "9": {"stimulus": 30, "trial": 9, "rt": 1510}, "8": {"stimulus": 48, "trial": 8, "rt": 2703}}, "generation": {"1": {"category": "Beta", "trial": 1, "stimulus": 19, "rt": 7838}, "0": {"category": "Beta", "trial": 0, "stimulus": 0, "rt": 11815}, "3": {"category": "Beta", "trial": 3, "stimulus": 9, "rt": 6574}, "2": {"category": "Beta", "trial": 2, "stimulus": 18, "rt": 5910}, "5": {"category": "Gamma", "trial": 5, "stimulus": 71, "rt": 4478}, "4": {"category": "Gamma", "trial": 4, "stimulus": 80, "rt": 4942}, "7": {"category": "Gamma", "trial": 7, "stimulus": 70, "rt": 7589}, "6": {"category": "Gamma", "trial": 6, "stimulus": 79, "rt": 4014}}, "generalization": {"56": {"stimulus": 47, "trial": 56, "rt": 1374, "response": "Beta"}, "77": {"stimulus": 78, "trial": 77, "rt": 1359, "response": "Gamma"}, "54": {"stimulus": 80, "trial": 54, "rt": 1184, "response": "Gamma"}, "42": {"stimulus": 6, "trial": 42, "rt": 727, "response": "Beta"}, "48": {"stimulus": 28, "trial": 48, "rt": 783, "response": "Beta"}, "43": {"stimulus": 32, "trial": 43, "rt": 767, "response": "Beta"}, "60": {"stimulus": 26, "trial": 60, "rt": 855, "response": "Beta"}, "61": {"stimulus": 72, "trial": 61, "rt": 1878, "response": "Alpha"}, "62": {"stimulus": 37, "trial": 62, "rt": 1231, "response": "Beta"}, "63": {"stimulus": 11, "trial": 63, "rt": 703, "response": "Beta"}, "64": {"stimulus": 27, "trial": 64, "rt": 895, "response": "Beta"}, "49": {"stimulus": 40, "trial": 49, "rt": 975, "response": "Beta"}, "66": {"stimulus": 44, "trial": 66, "rt": 2046, "response": "Alpha"}, "67": {"stimulus": 56, "trial": 67, "rt": 1623, "response": "Alpha"}, "68": {"stimulus": 77, "trial": 68, "rt": 999, "response": "Gamma"}, "69": {"stimulus": 19, "trial": 69, "rt": 1094, "response": "Beta"}, "80": {"stimulus": 63, "trial": 80, "rt": 1312, "response": "Alpha"}, "52": {"stimulus": 49, "trial": 52, "rt": 1204, "response": "Beta"}, "53": {"stimulus": 46, "trial": 53, "rt": 1527, "response": "Alpha"}, "24": {"stimulus": 22, "trial": 24, "rt": 727, "response": "Beta"}, "25": {"stimulus": 62, "trial": 25, "rt": 2583, "response": "Alpha"}, "26": {"stimulus": 25, "trial": 26, "rt": 767, "response": "Beta"}, "27": {"stimulus": 41, "trial": 27, "rt": 1135, "response": "Beta"}, "20": {"stimulus": 65, "trial": 20, "rt": 1887, "response": "Alpha"}, "21": {"stimulus": 61, "trial": 21, "rt": 3039, "response": "Alpha"}, "22": {"stimulus": 79, "trial": 22, "rt": 1118, "response": "Gamma"}, "23": {"stimulus": 8, "trial": 23, "rt": 927, "response": "Beta"}, "46": {"stimulus": 45, "trial": 46, "rt": 1214, "response": "Beta"}, "47": {"stimulus": 70, "trial": 47, "rt": 1808, "response": "Gamma"}, "44": {"stimulus": 24, "trial": 44, "rt": 575, "response": "Beta"}, "45": {"stimulus": 18, "trial": 45, "rt": 670, "response": "Beta"}, "28": {"stimulus": 1, "trial": 28, "rt": 646, "response": "Beta"}, "29": {"stimulus": 67, "trial": 29, "rt": 2191, "response": "Alpha"}, "40": {"stimulus": 54, "trial": 40, "rt": 1382, "response": "Alpha"}, "41": {"stimulus": 71, "trial": 41, "rt": 1479, "response": "Gamma"}, "1": {"stimulus": 7, "trial": 1, "rt": 2078, "response": "Beta"}, "0": {"stimulus": 58, "trial": 0, "rt": 3645, "response": "Alpha"}, "3": {"stimulus": 50, "trial": 3, "rt": 1047, "response": "Alpha"}, "2": {"stimulus": 59, "trial": 2, "rt": 1438, "response": "Alpha"}, "5": {"stimulus": 60, "trial": 5, "rt": 3382, "response": "Alpha"}, "4": {"stimulus": 39, "trial": 4, "rt": 998, "response": "Beta"}, "7": {"stimulus": 12, "trial": 7, "rt": 830, "response": "Beta"}, "6": {"stimulus": 21, "trial": 6, "rt": 1039, "response": "Beta"}, "9": {"stimulus": 16, "trial": 9, "rt": 862, "response": "Beta"}, "8": {"stimulus": 74, "trial": 8, "rt": 1183, "response": "Gamma"}, "78": {"stimulus": 30, "trial": 78, "rt": 999, "response": "Beta"}, "51": {"stimulus": 10, "trial": 51, "rt": 650, "response": "Beta"}, "39": {"stimulus": 42, "trial": 39, "rt": 1152, "response": "Beta"}, "65": {"stimulus": 33, "trial": 65, "rt": 1679, "response": "Alpha"}, "76": {"stimulus": 15, "trial": 76, "rt": 2391, "response": "Alpha"}, "75": {"stimulus": 29, "trial": 75, "rt": 879, "response": "Beta"}, "38": {"stimulus": 17, "trial": 38, "rt": 664, "response": "Beta"}, "73": {"stimulus": 57, "trial": 73, "rt": 3772, "response": "Alpha"}, "72": {"stimulus": 0, "trial": 72, "rt": 895, "response": "Beta"}, "71": {"stimulus": 68, "trial": 71, "rt": 1816, "response": "Alpha"}, "70": {"stimulus": 38, "trial": 70, "rt": 919, "response": "Beta"}, "59": {"stimulus": 55, "trial": 59, "rt": 1886, "response": "Alpha"}, "79": {"stimulus": 9, "trial": 79, "rt": 647, "response": "Beta"}, "58": {"stimulus": 52, "trial": 58, "rt": 1143, "response": "Alpha"}, "11": {"stimulus": 36, "trial": 11, "rt": 2390, "response": "Beta"}, "10": {"stimulus": 5, "trial": 10, "rt": 743, "response": "Beta"}, "13": {"stimulus": 64, "trial": 13, "rt": 1518, "response": "Gamma"}, "12": {"stimulus": 76, "trial": 12, "rt": 1614, "response": "Gamma"}, "15": {"stimulus": 3, "trial": 15, "rt": 829, "response": "Beta"}, "14": {"stimulus": 31, "trial": 14, "rt": 862, "response": "Beta"}, "17": {"stimulus": 53, "trial": 17, "rt": 2688, "response": "Alpha"}, "16": {"stimulus": 69, "trial": 16, "rt": 2511, "response": "Alpha"}, "19": {"stimulus": 48, "trial": 19, "rt": 1567, "response": "Beta"}, "18": {"stimulus": 73, "trial": 18, "rt": 2350, "response": "Alpha"}, "31": {"stimulus": 2, "trial": 31, "rt": 936, "response": "Beta"}, "30": {"stimulus": 66, "trial": 30, "rt": 869, "response": "Alpha"}, "37": {"stimulus": 34, "trial": 37, "rt": 823, "response": "Beta"}, "36": {"stimulus": 20, "trial": 36, "rt": 814, "response": "Beta"}, "35": {"stimulus": 75, "trial": 35, "rt": 1653, "response": "Alpha"}, "34": {"stimulus": 43, "trial": 34, "rt": 1167, "response": "Beta"}, "33": {"stimulus": 23, "trial": 33, "rt": 598, "response": "Beta"}, "55": {"stimulus": 35, "trial": 55, "rt": 919, "response": "Beta"}, "74": {"stimulus": 14, "trial": 74, "rt": 774, "response": "Beta"}, "32": {"stimulus": 13, "trial": 32, "rt": 726, "response": "Beta"}, "57": {"stimulus": 51, "trial": 57, "rt": 1359, "response": "Alpha"}, "50": {"stimulus": 4, "trial": 50, "rt": 543, "response": "Beta"}}, "experiment": {"Paradigm": "TACL", "Stimuli": "Size-Color Squares", "Experiment": "Generating-Multiple-Categories"}, "submit": {"timeTotal": 442782, "age": "35", "comments": "", "sex": "male"}}