{"info": {"finish": 1534980712457, "participant": 15, "exposed": true, "lab": true, "start": 1534980377010, "counterbalance": 3, "gentype": 2, "condition": "Bottom", "browser": {"platform": "MacIntel", "userAgent": "Mozilla/5.0 (Macintosh; Intel Mac OS X 10.13; rv:61.0) Gecko/20100101 Firefox/61.0"}}, "observation": {"11": {"stimulus": 12, "trial": 11, "rt": 1339}, "10": {"stimulus": 14, "trial": 10, "rt": 1313}, "1": {"stimulus": 12, "trial": 1, "rt": 1364}, "0": {"stimulus": 30, "trial": 0, "rt": 1644}, "3": {"stimulus": 32, "trial": 3, "rt": 1382}, "2": {"stimulus": 14, "trial": 2, "rt": 1681}, "5": {"stimulus": 12, "trial": 5, "rt": 1618}, "4": {"stimulus": 14, "trial": 4, "rt": 1854}, "7": {"stimulus": 32, "trial": 7, "rt": 1760}, "6": {"stimulus": 30, "trial": 6, "rt": 1387}, "9": {"stimulus": 30, "trial": 9, "rt": 1348}, "8": {"stimulus": 32, "trial": 8, "rt": 1358}}, "generation": {"1": {"category": "Beta", "trial": 1, "stimulus": 57, "rt": 1351}, "0": {"category": "Beta", "trial": 0, "stimulus": 66, "rt": 2910}, "3": {"category": "Beta", "trial": 3, "stimulus": 48, "rt": 4669}, "2": {"category": "Beta", "trial": 2, "stimulus": 75, "rt": 1226}, "5": {"category": "Gamma", "trial": 5, "stimulus": 12, "rt": 2282}, "4": {"category": "Gamma", "trial": 4, "stimulus": 21, "rt": 1722}, "7": {"category": "Gamma", "trial": 7, "stimulus": 66, "rt": 3395}, "6": {"category": "Gamma", "trial": 6, "stimulus": 3, "rt": 3651}}, "generalization": {"56": {"stimulus": 66, "trial": 56, "rt": 755, "response": "Alpha"}, "77": {"stimulus": 47, "trial": 77, "rt": 12370, "response": "Alpha"}, "54": {"stimulus": 38, "trial": 54, "rt": 3169, "response": "Alpha"}, "42": {"stimulus": 30, "trial": 42, "rt": 1140, "response": "Alpha"}, "48": {"stimulus": 14, "trial": 48, "rt": 2879, "response": "Alpha"}, "43": {"stimulus": 79, "trial": 43, "rt": 1304, "response": "Alpha"}, "60": {"stimulus": 57, "trial": 60, "rt": 894, "response": "Alpha"}, "61": {"stimulus": 74, "trial": 61, "rt": 1444, "response": "Alpha"}, "62": {"stimulus": 52, "trial": 62, "rt": 1203, "response": "Alpha"}, "63": {"stimulus": 60, "trial": 63, "rt": 3804, "response": "Alpha"}, "64": {"stimulus": 22, "trial": 64, "rt": 3041, "response": "Alpha"}, "49": {"stimulus": 43, "trial": 49, "rt": 1349, "response": "Alpha"}, "66": {"stimulus": 4, "trial": 66, "rt": 2059, "response": "Alpha"}, "67": {"stimulus": 59, "trial": 67, "rt": 2440, "response": "Alpha"}, "68": {"stimulus": 31, "trial": 68, "rt": 8409, "response": "Alpha"}, "69": {"stimulus": 56, "trial": 69, "rt": 11916, "response": "Alpha"}, "80": {"stimulus": 77, "trial": 80, "rt": 689, "response": "Alpha"}, "52": {"stimulus": 65, "trial": 52, "rt": 2380, "response": "Alpha"}, "53": {"stimulus": 62, "trial": 53, "rt": 1945, "response": "Alpha"}, "24": {"stimulus": 70, "trial": 24, "rt": 1704, "response": "Alpha"}, "25": {"stimulus": 24, "trial": 25, "rt": 2662, "response": "Alpha"}, "26": {"stimulus": 11, "trial": 26, "rt": 4076, "response": "Alpha"}, "27": {"stimulus": 42, "trial": 27, "rt": 1662, "response": "Alpha"}, "20": {"stimulus": 53, "trial": 20, "rt": 415, "response": "Alpha"}, "21": {"stimulus": 23, "trial": 21, "rt": 384, "response": "Alpha"}, "22": {"stimulus": 41, "trial": 22, "rt": 4709, "response": "Alpha"}, "23": {"stimulus": 10, "trial": 23, "rt": 1630, "response": "Alpha"}, "46": {"stimulus": 80, "trial": 46, "rt": 1116, "response": "Alpha"}, "47": {"stimulus": 51, "trial": 47, "rt": 706, "response": "Alpha"}, "44": {"stimulus": 29, "trial": 44, "rt": 646, "response": "Alpha"}, "45": {"stimulus": 17, "trial": 45, "rt": 1019, "response": "Alpha"}, "28": {"stimulus": 36, "trial": 28, "rt": 1835, "response": "Alpha"}, "29": {"stimulus": 15, "trial": 29, "rt": 2388, "response": "Alpha"}, "40": {"stimulus": 64, "trial": 40, "rt": 579, "response": "Alpha"}, "41": {"stimulus": 67, "trial": 41, "rt": 809, "response": "Alpha"}, "1": {"stimulus": 68, "trial": 1, "rt": 3489, "response": "Alpha"}, "0": {"stimulus": 8, "trial": 0, "rt": 896, "response": "Alpha"}, "3": {"stimulus": 0, "trial": 3, "rt": 849, "response": "Alpha"}, "2": {"stimulus": 26, "trial": 2, "rt": 1974, "response": "Alpha"}, "5": {"stimulus": 27, "trial": 5, "rt": 167, "response": "Alpha"}, "4": {"stimulus": 76, "trial": 4, "rt": 537, "response": "Alpha"}, "7": {"stimulus": 35, "trial": 7, "rt": 398, "response": "Alpha"}, "6": {"stimulus": 73, "trial": 6, "rt": 477, "response": "Alpha"}, "9": {"stimulus": 71, "trial": 9, "rt": 912, "response": "Alpha"}, "8": {"stimulus": 54, "trial": 8, "rt": 3651, "response": "Alpha"}, "78": {"stimulus": 50, "trial": 78, "rt": 713, "response": "Alpha"}, "51": {"stimulus": 39, "trial": 51, "rt": 2838, "response": "Alpha"}, "39": {"stimulus": 58, "trial": 39, "rt": 1172, "response": "Alpha"}, "65": {"stimulus": 9, "trial": 65, "rt": 8233, "response": "Alpha"}, "76": {"stimulus": 63, "trial": 76, "rt": 1086, "response": "Alpha"}, "75": {"stimulus": 25, "trial": 75, "rt": 2329, "response": "Alpha"}, "38": {"stimulus": 49, "trial": 38, "rt": 1239, "response": "Alpha"}, "73": {"stimulus": 12, "trial": 73, "rt": 1763, "response": "Alpha"}, "72": {"stimulus": 34, "trial": 72, "rt": 2776, "response": "Alpha"}, "71": {"stimulus": 55, "trial": 71, "rt": 466, "response": "Alpha"}, "70": {"stimulus": 13, "trial": 70, "rt": 4651, "response": "Alpha"}, "59": {"stimulus": 32, "trial": 59, "rt": 680, "response": "Alpha"}, "79": {"stimulus": 44, "trial": 79, "rt": 392, "response": "Alpha"}, "58": {"stimulus": 69, "trial": 58, "rt": 617, "response": "Alpha"}, "11": {"stimulus": 78, "trial": 11, "rt": 1669, "response": "Alpha"}, "10": {"stimulus": 28, "trial": 10, "rt": 347, "response": "Alpha"}, "13": {"stimulus": 20, "trial": 13, "rt": 1686, "response": "Alpha"}, "12": {"stimulus": 45, "trial": 12, "rt": 2346, "response": "Alpha"}, "15": {"stimulus": 46, "trial": 15, "rt": 694, "response": "Alpha"}, "14": {"stimulus": 72, "trial": 14, "rt": 2040, "response": "Alpha"}, "17": {"stimulus": 5, "trial": 17, "rt": 3048, "response": "Alpha"}, "16": {"stimulus": 75, "trial": 16, "rt": 2012, "response": "Alpha"}, "19": {"stimulus": 21, "trial": 19, "rt": 666, "response": "Alpha"}, "18": {"stimulus": 6, "trial": 18, "rt": 2700, "response": "Alpha"}, "31": {"stimulus": 3, "trial": 31, "rt": 429, "response": "Alpha"}, "30": {"stimulus": 16, "trial": 30, "rt": 123, "response": "Alpha"}, "37": {"stimulus": 2, "trial": 37, "rt": 2397, "response": "Alpha"}, "36": {"stimulus": 48, "trial": 36, "rt": 1816, "response": "Alpha"}, "35": {"stimulus": 1, "trial": 35, "rt": 900, "response": "Alpha"}, "34": {"stimulus": 33, "trial": 34, "rt": 1068, "response": "Alpha"}, "33": {"stimulus": 61, "trial": 33, "rt": 2455, "response": "Alpha"}, "55": {"stimulus": 40, "trial": 55, "rt": 816, "response": "Alpha"}, "74": {"stimulus": 37, "trial": 74, "rt": 2383, "response": "Alpha"}, "32": {"stimulus": 19, "trial": 32, "rt": 1582, "response": "Alpha"}, "57": {"stimulus": 18, "trial": 57, "rt": 859, "response": "Alpha"}, "50": {"stimulus": 7, "trial": 50, "rt": 3516, "response": "Alpha"}}, "experiment": {"Paradigm": "TACL", "Stimuli": "Size-Color Squares", "Experiment": "Generating-Multiple-Categories"}, "submit": {"timeTotal": 335548, "age": "18", "comments": "2312", "sex": "23"}}