{"info": {"finish": 1535390066600, "participant": 150, "exposed": true, "lab": false, "start": 1535389628259, "counterbalance": 6, "gentype": 1, "condition": "Bottom", "browser": {"platform": "Win32", "userAgent": "Mozilla/5.0 (Windows NT 10.0; Win64; x64) AppleWebKit/537.36 (KHTML, like Gecko) Chrome/68.0.3440.106 Safari/537.36"}}, "observation": {"11": {"stimulus": 12, "trial": 11, "rt": 2644}, "10": {"stimulus": 32, "trial": 10, "rt": 4543}, "1": {"stimulus": 12, "trial": 1, "rt": 7525}, "0": {"stimulus": 14, "trial": 0, "rt": 11593}, "3": {"stimulus": 32, "trial": 3, "rt": 3525}, "2": {"stimulus": 30, "trial": 2, "rt": 5868}, "5": {"stimulus": 30, "trial": 5, "rt": 28949}, "4": {"stimulus": 14, "trial": 4, "rt": 2825}, "7": {"stimulus": 12, "trial": 7, "rt": 3068}, "6": {"stimulus": 32, "trial": 6, "rt": 2015}, "9": {"stimulus": 14, "trial": 9, "rt": 6534}, "8": {"stimulus": 30, "trial": 8, "rt": 2206}}, "generation": {"1": {"category": "Beta", "trial": 1, "stimulus": 73, "rt": 12570}, "0": {"category": "Beta", "trial": 0, "stimulus": 72, "rt": 21646}, "3": {"category": "Beta", "trial": 3, "stimulus": 10, "rt": 5692}, "2": {"category": "Beta", "trial": 2, "stimulus": 0, "rt": 7333}, "5": {"category": "Beta", "trial": 5, "stimulus": 27, "rt": 5198}, "4": {"category": "Beta", "trial": 4, "stimulus": 18, "rt": 6275}, "7": {"category": "Beta", "trial": 7, "stimulus": 54, "rt": 3900}, "6": {"category": "Beta", "trial": 6, "stimulus": 36, "rt": 2772}}, "generalization": {"56": {"stimulus": 63, "trial": 56, "rt": 677, "response": "Beta"}, "77": {"stimulus": 29, "trial": 77, "rt": 691, "response": "Beta"}, "54": {"stimulus": 37, "trial": 54, "rt": 1384, "response": "Beta"}, "42": {"stimulus": 15, "trial": 42, "rt": 1749, "response": "Alpha"}, "48": {"stimulus": 71, "trial": 48, "rt": 757, "response": "Alpha"}, "43": {"stimulus": 16, "trial": 43, "rt": 653, "response": "Alpha"}, "60": {"stimulus": 7, "trial": 60, "rt": 1191, "response": "Alpha"}, "61": {"stimulus": 2, "trial": 61, "rt": 819, "response": "Beta"}, "62": {"stimulus": 36, "trial": 62, "rt": 523, "response": "Beta"}, "63": {"stimulus": 27, "trial": 63, "rt": 558, "response": "Beta"}, "64": {"stimulus": 39, "trial": 64, "rt": 591, "response": "Beta"}, "49": {"stimulus": 20, "trial": 49, "rt": 697, "response": "Beta"}, "66": {"stimulus": 32, "trial": 66, "rt": 913, "response": "Alpha"}, "67": {"stimulus": 24, "trial": 67, "rt": 1077, "response": "Alpha"}, "68": {"stimulus": 59, "trial": 68, "rt": 758, "response": "Alpha"}, "69": {"stimulus": 28, "trial": 69, "rt": 855, "response": "Beta"}, "80": {"stimulus": 67, "trial": 80, "rt": 1277, "response": "Beta"}, "52": {"stimulus": 77, "trial": 52, "rt": 2822, "response": "Beta"}, "53": {"stimulus": 48, "trial": 53, "rt": 958, "response": "Beta"}, "24": {"stimulus": 61, "trial": 24, "rt": 770, "response": "Alpha"}, "25": {"stimulus": 11, "trial": 25, "rt": 881, "response": "Beta"}, "26": {"stimulus": 0, "trial": 26, "rt": 709, "response": "Beta"}, "27": {"stimulus": 22, "trial": 27, "rt": 846, "response": "Beta"}, "20": {"stimulus": 50, "trial": 20, "rt": 959, "response": "Beta"}, "21": {"stimulus": 53, "trial": 21, "rt": 767, "response": "Alpha"}, "22": {"stimulus": 4, "trial": 22, "rt": 1598, "response": "Beta"}, "23": {"stimulus": 46, "trial": 23, "rt": 808, "response": "Beta"}, "46": {"stimulus": 60, "trial": 46, "rt": 1255, "response": "Alpha"}, "47": {"stimulus": 79, "trial": 47, "rt": 801, "response": "Alpha"}, "44": {"stimulus": 62, "trial": 44, "rt": 657, "response": "Alpha"}, "45": {"stimulus": 72, "trial": 45, "rt": 1068, "response": "Beta"}, "28": {"stimulus": 43, "trial": 28, "rt": 761, "response": "Alpha"}, "29": {"stimulus": 47, "trial": 29, "rt": 1339, "response": "Beta"}, "40": {"stimulus": 33, "trial": 40, "rt": 966, "response": "Alpha"}, "41": {"stimulus": 55, "trial": 41, "rt": 726, "response": "Beta"}, "1": {"stimulus": 80, "trial": 1, "rt": 1094, "response": "Alpha"}, "0": {"stimulus": 34, "trial": 0, "rt": 1862, "response": "Alpha"}, "3": {"stimulus": 19, "trial": 3, "rt": 1958, "response": "Beta"}, "2": {"stimulus": 8, "trial": 2, "rt": 3197, "response": "Alpha"}, "5": {"stimulus": 69, "trial": 5, "rt": 1889, "response": "Alpha"}, "4": {"stimulus": 76, "trial": 4, "rt": 2669, "response": "Alpha"}, "7": {"stimulus": 3, "trial": 7, "rt": 4541, "response": "Beta"}, "6": {"stimulus": 25, "trial": 6, "rt": 1434, "response": "Alpha"}, "9": {"stimulus": 31, "trial": 9, "rt": 9071, "response": "Alpha"}, "8": {"stimulus": 56, "trial": 8, "rt": 1452, "response": "Beta"}, "78": {"stimulus": 51, "trial": 78, "rt": 1096, "response": "Alpha"}, "51": {"stimulus": 1, "trial": 51, "rt": 621, "response": "Beta"}, "39": {"stimulus": 41, "trial": 39, "rt": 1063, "response": "Alpha"}, "65": {"stimulus": 42, "trial": 65, "rt": 861, "response": "Alpha"}, "76": {"stimulus": 14, "trial": 76, "rt": 2433, "response": "Alpha"}, "75": {"stimulus": 74, "trial": 75, "rt": 542, "response": "Beta"}, "38": {"stimulus": 64, "trial": 38, "rt": 925, "response": "Beta"}, "73": {"stimulus": 45, "trial": 73, "rt": 550, "response": "Beta"}, "72": {"stimulus": 49, "trial": 72, "rt": 1207, "response": "Beta"}, "71": {"stimulus": 23, "trial": 71, "rt": 1542, "response": "Alpha"}, "70": {"stimulus": 9, "trial": 70, "rt": 1596, "response": "Beta"}, "59": {"stimulus": 73, "trial": 59, "rt": 615, "response": "Beta"}, "79": {"stimulus": 5, "trial": 79, "rt": 623, "response": "Alpha"}, "58": {"stimulus": 66, "trial": 58, "rt": 1022, "response": "Beta"}, "11": {"stimulus": 13, "trial": 11, "rt": 4279, "response": "Beta"}, "10": {"stimulus": 65, "trial": 10, "rt": 1190, "response": "Beta"}, "13": {"stimulus": 10, "trial": 13, "rt": 1077, "response": "Beta"}, "12": {"stimulus": 17, "trial": 12, "rt": 1076, "response": "Alpha"}, "15": {"stimulus": 52, "trial": 15, "rt": 871, "response": "Alpha"}, "14": {"stimulus": 58, "trial": 14, "rt": 1329, "response": "Beta"}, "17": {"stimulus": 21, "trial": 17, "rt": 757, "response": "Beta"}, "16": {"stimulus": 70, "trial": 16, "rt": 717, "response": "Alpha"}, "19": {"stimulus": 40, "trial": 19, "rt": 1125, "response": "Beta"}, "18": {"stimulus": 35, "trial": 18, "rt": 648, "response": "Alpha"}, "31": {"stimulus": 12, "trial": 31, "rt": 863, "response": "Beta"}, "30": {"stimulus": 44, "trial": 30, "rt": 752, "response": "Alpha"}, "37": {"stimulus": 38, "trial": 37, "rt": 964, "response": "Beta"}, "36": {"stimulus": 78, "trial": 36, "rt": 665, "response": "Alpha"}, "35": {"stimulus": 26, "trial": 35, "rt": 870, "response": "Alpha"}, "34": {"stimulus": 57, "trial": 34, "rt": 758, "response": "Beta"}, "33": {"stimulus": 18, "trial": 33, "rt": 769, "response": "Beta"}, "55": {"stimulus": 30, "trial": 55, "rt": 1717, "response": "Beta"}, "74": {"stimulus": 54, "trial": 74, "rt": 559, "response": "Beta"}, "32": {"stimulus": 6, "trial": 32, "rt": 1349, "response": "Alpha"}, "57": {"stimulus": 68, "trial": 57, "rt": 3807, "response": "Alpha"}, "50": {"stimulus": 75, "trial": 50, "rt": 750, "response": "Beta"}}, "experiment": {"Paradigm": "TACL", "Stimuli": "Size-Color Squares", "Experiment": "Generating-Multiple-Categories"}, "submit": {"timeTotal": 438786, "age": "28", "comments": "It was interesting, I thought alpha was the brighter shades of grey to white and beta was darker colors. I dont think the size of them mattered. ", "sex": "Male"}}