{"info": {"finish": 1535391482285, "participant": 151, "exposed": true, "lab": false, "start": 1535390371682, "counterbalance": 5, "gentype": 2, "condition": "Bottom", "browser": {"platform": "Win32", "userAgent": "Mozilla/5.0 (Windows NT 10.0; Win64; x64) AppleWebKit/537.36 (KHTML, like Gecko) Chrome/68.0.3440.106 Safari/537.36"}}, "observation": {"11": {"stimulus": 30, "trial": 11, "rt": 2325}, "10": {"stimulus": 12, "trial": 10, "rt": 2012}, "1": {"stimulus": 14, "trial": 1, "rt": 2737}, "0": {"stimulus": 32, "trial": 0, "rt": 4968}, "3": {"stimulus": 30, "trial": 3, "rt": 2109}, "2": {"stimulus": 12, "trial": 2, "rt": 2248}, "5": {"stimulus": 30, "trial": 5, "rt": 2145}, "4": {"stimulus": 12, "trial": 4, "rt": 2094}, "7": {"stimulus": 14, "trial": 7, "rt": 1973}, "6": {"stimulus": 32, "trial": 6, "rt": 2014}, "9": {"stimulus": 14, "trial": 9, "rt": 1846}, "8": {"stimulus": 32, "trial": 8, "rt": 1838}}, "generation": {"1": {"category": "Beta", "trial": 1, "stimulus": 16, "rt": 30602}, "0": {"category": "Beta", "trial": 0, "stimulus": 8, "rt": 49935}, "3": {"category": "Beta", "trial": 3, "stimulus": 35, "rt": 5873}, "2": {"category": "Beta", "trial": 2, "stimulus": 25, "rt": 8146}, "5": {"category": "Gamma", "trial": 5, "stimulus": 63, "rt": 4574}, "4": {"category": "Gamma", "trial": 4, "stimulus": 72, "rt": 8122}, "7": {"category": "Gamma", "trial": 7, "stimulus": 45, "rt": 12074}, "6": {"category": "Gamma", "trial": 6, "stimulus": 54, "rt": 4472}}, "generalization": {"56": {"stimulus": 58, "trial": 56, "rt": 1105, "response": "Alpha"}, "77": {"stimulus": 64, "trial": 77, "rt": 1958, "response": "Gamma"}, "54": {"stimulus": 17, "trial": 54, "rt": 1206, "response": "Beta"}, "42": {"stimulus": 24, "trial": 42, "rt": 1663, "response": "Beta"}, "48": {"stimulus": 38, "trial": 48, "rt": 1058, "response": "Gamma"}, "43": {"stimulus": 27, "trial": 43, "rt": 1348, "response": "Gamma"}, "60": {"stimulus": 48, "trial": 60, "rt": 1316, "response": "Alpha"}, "61": {"stimulus": 11, "trial": 61, "rt": 1038, "response": "Alpha"}, "62": {"stimulus": 49, "trial": 62, "rt": 932, "response": "Alpha"}, "63": {"stimulus": 0, "trial": 63, "rt": 1326, "response": "Gamma"}, "64": {"stimulus": 41, "trial": 64, "rt": 1204, "response": "Beta"}, "49": {"stimulus": 40, "trial": 49, "rt": 1806, "response": "Beta"}, "66": {"stimulus": 9, "trial": 66, "rt": 2251, "response": "Gamma"}, "67": {"stimulus": 35, "trial": 67, "rt": 1268, "response": "Beta"}, "68": {"stimulus": 37, "trial": 68, "rt": 2150, "response": "Gamma"}, "69": {"stimulus": 22, "trial": 69, "rt": 1705, "response": "Alpha"}, "80": {"stimulus": 63, "trial": 80, "rt": 1191, "response": "Gamma"}, "52": {"stimulus": 5, "trial": 52, "rt": 1300, "response": "Beta"}, "53": {"stimulus": 4, "trial": 53, "rt": 1748, "response": "Beta"}, "24": {"stimulus": 31, "trial": 24, "rt": 1642, "response": "Alpha"}, "25": {"stimulus": 71, "trial": 25, "rt": 11996, "response": "Beta"}, "26": {"stimulus": 69, "trial": 26, "rt": 6867, "response": "Alpha"}, "27": {"stimulus": 32, "trial": 27, "rt": 1125, "response": "Alpha"}, "20": {"stimulus": 18, "trial": 20, "rt": 1656, "response": "Gamma"}, "21": {"stimulus": 10, "trial": 21, "rt": 1128, "response": "Gamma"}, "22": {"stimulus": 34, "trial": 22, "rt": 1613, "response": "Beta"}, "23": {"stimulus": 46, "trial": 23, "rt": 2454, "response": "Gamma"}, "46": {"stimulus": 19, "trial": 46, "rt": 918, "response": "Gamma"}, "47": {"stimulus": 3, "trial": 47, "rt": 938, "response": "Gamma"}, "44": {"stimulus": 65, "trial": 44, "rt": 1047, "response": "Gamma"}, "45": {"stimulus": 36, "trial": 45, "rt": 1195, "response": "Gamma"}, "28": {"stimulus": 68, "trial": 28, "rt": 1201, "response": "Alpha"}, "29": {"stimulus": 45, "trial": 29, "rt": 1370, "response": "Gamma"}, "40": {"stimulus": 75, "trial": 40, "rt": 3173, "response": "Alpha"}, "41": {"stimulus": 21, "trial": 41, "rt": 1119, "response": "Alpha"}, "1": {"stimulus": 50, "trial": 1, "rt": 4330, "response": "Alpha"}, "0": {"stimulus": 67, "trial": 0, "rt": 5254, "response": "Alpha"}, "3": {"stimulus": 2, "trial": 3, "rt": 2100, "response": "Gamma"}, "2": {"stimulus": 60, "trial": 2, "rt": 3487, "response": "Alpha"}, "5": {"stimulus": 20, "trial": 5, "rt": 1296, "response": "Gamma"}, "4": {"stimulus": 66, "trial": 4, "rt": 1248, "response": "Gamma"}, "7": {"stimulus": 16, "trial": 7, "rt": 1042, "response": "Beta"}, "6": {"stimulus": 15, "trial": 6, "rt": 3404, "response": "Beta"}, "9": {"stimulus": 52, "trial": 9, "rt": 958, "response": "Beta"}, "8": {"stimulus": 62, "trial": 8, "rt": 1266, "response": "Beta"}, "78": {"stimulus": 59, "trial": 78, "rt": 1739, "response": "Alpha"}, "51": {"stimulus": 30, "trial": 51, "rt": 1160, "response": "Gamma"}, "39": {"stimulus": 7, "trial": 39, "rt": 2396, "response": "Beta"}, "65": {"stimulus": 33, "trial": 65, "rt": 1228, "response": "Beta"}, "76": {"stimulus": 23, "trial": 76, "rt": 1500, "response": "Alpha"}, "75": {"stimulus": 26, "trial": 75, "rt": 1748, "response": "Gamma"}, "38": {"stimulus": 6, "trial": 38, "rt": 1932, "response": "Beta"}, "73": {"stimulus": 53, "trial": 73, "rt": 949, "response": "Gamma"}, "72": {"stimulus": 8, "trial": 72, "rt": 1358, "response": "Gamma"}, "71": {"stimulus": 76, "trial": 71, "rt": 948, "response": "Alpha"}, "70": {"stimulus": 77, "trial": 70, "rt": 1404, "response": "Alpha"}, "59": {"stimulus": 61, "trial": 59, "rt": 916, "response": "Beta"}, "79": {"stimulus": 1, "trial": 79, "rt": 1580, "response": "Gamma"}, "58": {"stimulus": 51, "trial": 58, "rt": 1469, "response": "Beta"}, "11": {"stimulus": 72, "trial": 11, "rt": 1494, "response": "Gamma"}, "10": {"stimulus": 25, "trial": 10, "rt": 1158, "response": "Beta"}, "13": {"stimulus": 73, "trial": 13, "rt": 2660, "response": "Alpha"}, "12": {"stimulus": 79, "trial": 12, "rt": 1509, "response": "Beta"}, "15": {"stimulus": 39, "trial": 15, "rt": 916, "response": "Alpha"}, "14": {"stimulus": 57, "trial": 14, "rt": 1488, "response": "Alpha"}, "17": {"stimulus": 43, "trial": 17, "rt": 2627, "response": "Beta"}, "16": {"stimulus": 14, "trial": 16, "rt": 3127, "response": "Alpha"}, "19": {"stimulus": 78, "trial": 19, "rt": 2236, "response": "Alpha"}, "18": {"stimulus": 80, "trial": 18, "rt": 5209, "response": "Beta"}, "31": {"stimulus": 70, "trial": 31, "rt": 1596, "response": "Beta"}, "30": {"stimulus": 29, "trial": 30, "rt": 1021, "response": "Gamma"}, "37": {"stimulus": 12, "trial": 37, "rt": 3942, "response": "Alpha"}, "36": {"stimulus": 44, "trial": 36, "rt": 1280, "response": "Beta"}, "35": {"stimulus": 54, "trial": 35, "rt": 1467, "response": "Gamma"}, "34": {"stimulus": 28, "trial": 34, "rt": 1615, "response": "Alpha"}, "33": {"stimulus": 42, "trial": 33, "rt": 1369, "response": "Beta"}, "55": {"stimulus": 47, "trial": 55, "rt": 1287, "response": "Alpha"}, "74": {"stimulus": 13, "trial": 74, "rt": 1649, "response": "Alpha"}, "32": {"stimulus": 56, "trial": 32, "rt": 3065, "response": "Alpha"}, "57": {"stimulus": 74, "trial": 57, "rt": 1374, "response": "Alpha"}, "50": {"stimulus": 55, "trial": 50, "rt": 1368, "response": "Gamma"}}, "experiment": {"Paradigm": "TACL", "Stimuli": "Size-Color Squares", "Experiment": "Generating-Multiple-Categories"}, "submit": {"timeTotal": 1110943, "age": "42", "comments": "Thank you.", "sex": "Male"}}