{"info": {"finish": 1535391623013, "participant": 154, "exposed": true, "lab": false, "start": 1535391235819, "counterbalance": 1, "gentype": 1, "condition": "Middle", "browser": {"platform": "Win32", "userAgent": "Mozilla/5.0 (Windows NT 10.0; Win64; x64) AppleWebKit/537.36 (KHTML, like Gecko) Chrome/68.0.3440.106 Safari/537.36"}}, "observation": {"11": {"stimulus": 50, "trial": 11, "rt": 5353}, "10": {"stimulus": 48, "trial": 10, "rt": 1522}, "1": {"stimulus": 30, "trial": 1, "rt": 3313}, "0": {"stimulus": 32, "trial": 0, "rt": 5357}, "3": {"stimulus": 48, "trial": 3, "rt": 2491}, "2": {"stimulus": 50, "trial": 2, "rt": 3068}, "5": {"stimulus": 50, "trial": 5, "rt": 2397}, "4": {"stimulus": 32, "trial": 4, "rt": 2209}, "7": {"stimulus": 30, "trial": 7, "rt": 1861}, "6": {"stimulus": 48, "trial": 6, "rt": 1999}, "9": {"stimulus": 32, "trial": 9, "rt": 1576}, "8": {"stimulus": 30, "trial": 8, "rt": 1918}}, "generation": {"1": {"category": "Beta", "trial": 1, "stimulus": 75, "rt": 14382}, "0": {"category": "Beta", "trial": 0, "stimulus": 76, "rt": 12196}, "3": {"category": "Beta", "trial": 3, "stimulus": 67, "rt": 13259}, "2": {"category": "Beta", "trial": 2, "stimulus": 65, "rt": 6683}, "5": {"category": "Beta", "trial": 5, "stimulus": 72, "rt": 7426}, "4": {"category": "Beta", "trial": 4, "stimulus": 66, "rt": 7114}, "7": {"category": "Beta", "trial": 7, "stimulus": 26, "rt": 5285}, "6": {"category": "Beta", "trial": 6, "stimulus": 8, "rt": 10537}}, "generalization": {"56": {"stimulus": 4, "trial": 56, "rt": 1212, "response": "Alpha"}, "77": {"stimulus": 46, "trial": 77, "rt": 1041, "response": "Alpha"}, "54": {"stimulus": 59, "trial": 54, "rt": 1177, "response": "Beta"}, "42": {"stimulus": 34, "trial": 42, "rt": 1098, "response": "Beta"}, "48": {"stimulus": 39, "trial": 48, "rt": 1263, "response": "Alpha"}, "43": {"stimulus": 54, "trial": 43, "rt": 2784, "response": "Beta"}, "60": {"stimulus": 1, "trial": 60, "rt": 1150, "response": "Alpha"}, "61": {"stimulus": 6, "trial": 61, "rt": 1654, "response": "Alpha"}, "62": {"stimulus": 23, "trial": 62, "rt": 1039, "response": "Alpha"}, "63": {"stimulus": 17, "trial": 63, "rt": 1092, "response": "Beta"}, "64": {"stimulus": 33, "trial": 64, "rt": 1273, "response": "Alpha"}, "49": {"stimulus": 80, "trial": 49, "rt": 1214, "response": "Beta"}, "66": {"stimulus": 18, "trial": 66, "rt": 991, "response": "Alpha"}, "67": {"stimulus": 8, "trial": 67, "rt": 1284, "response": "Beta"}, "68": {"stimulus": 22, "trial": 68, "rt": 1167, "response": "Alpha"}, "69": {"stimulus": 31, "trial": 69, "rt": 903, "response": "Alpha"}, "80": {"stimulus": 45, "trial": 80, "rt": 1041, "response": "Alpha"}, "52": {"stimulus": 67, "trial": 52, "rt": 1404, "response": "Beta"}, "53": {"stimulus": 69, "trial": 53, "rt": 1137, "response": "Beta"}, "24": {"stimulus": 41, "trial": 24, "rt": 1332, "response": "Alpha"}, "25": {"stimulus": 60, "trial": 25, "rt": 1123, "response": "Beta"}, "26": {"stimulus": 32, "trial": 26, "rt": 1130, "response": "Alpha"}, "27": {"stimulus": 57, "trial": 27, "rt": 2420, "response": "Beta"}, "20": {"stimulus": 12, "trial": 20, "rt": 1122, "response": "Alpha"}, "21": {"stimulus": 3, "trial": 21, "rt": 942, "response": "Alpha"}, "22": {"stimulus": 65, "trial": 22, "rt": 1724, "response": "Beta"}, "23": {"stimulus": 13, "trial": 23, "rt": 1010, "response": "Alpha"}, "46": {"stimulus": 63, "trial": 46, "rt": 1290, "response": "Beta"}, "47": {"stimulus": 27, "trial": 47, "rt": 1148, "response": "Beta"}, "44": {"stimulus": 35, "trial": 44, "rt": 1277, "response": "Beta"}, "45": {"stimulus": 19, "trial": 45, "rt": 932, "response": "Alpha"}, "28": {"stimulus": 79, "trial": 28, "rt": 1286, "response": "Beta"}, "29": {"stimulus": 77, "trial": 29, "rt": 2053, "response": "Beta"}, "40": {"stimulus": 51, "trial": 40, "rt": 1225, "response": "Alpha"}, "41": {"stimulus": 53, "trial": 41, "rt": 1078, "response": "Beta"}, "1": {"stimulus": 74, "trial": 1, "rt": 1640, "response": "Beta"}, "0": {"stimulus": 11, "trial": 0, "rt": 2000, "response": "Alpha"}, "3": {"stimulus": 25, "trial": 3, "rt": 788, "response": "Alpha"}, "2": {"stimulus": 50, "trial": 2, "rt": 1700, "response": "Alpha"}, "5": {"stimulus": 62, "trial": 5, "rt": 1954, "response": "Beta"}, "4": {"stimulus": 76, "trial": 4, "rt": 1060, "response": "Beta"}, "7": {"stimulus": 26, "trial": 7, "rt": 952, "response": "Beta"}, "6": {"stimulus": 10, "trial": 6, "rt": 1159, "response": "Alpha"}, "9": {"stimulus": 44, "trial": 9, "rt": 996, "response": "Beta"}, "8": {"stimulus": 30, "trial": 8, "rt": 1155, "response": "Alpha"}, "78": {"stimulus": 0, "trial": 78, "rt": 1036, "response": "Alpha"}, "51": {"stimulus": 5, "trial": 51, "rt": 972, "response": "Alpha"}, "39": {"stimulus": 73, "trial": 39, "rt": 1218, "response": "Beta"}, "65": {"stimulus": 24, "trial": 65, "rt": 1042, "response": "Alpha"}, "76": {"stimulus": 40, "trial": 76, "rt": 1571, "response": "Alpha"}, "75": {"stimulus": 9, "trial": 75, "rt": 1113, "response": "Alpha"}, "38": {"stimulus": 20, "trial": 38, "rt": 987, "response": "Alpha"}, "73": {"stimulus": 21, "trial": 73, "rt": 1351, "response": "Alpha"}, "72": {"stimulus": 58, "trial": 72, "rt": 1938, "response": "Beta"}, "71": {"stimulus": 72, "trial": 71, "rt": 1306, "response": "Alpha"}, "70": {"stimulus": 16, "trial": 70, "rt": 1288, "response": "Alpha"}, "59": {"stimulus": 61, "trial": 59, "rt": 1563, "response": "Beta"}, "79": {"stimulus": 7, "trial": 79, "rt": 1365, "response": "Beta"}, "58": {"stimulus": 15, "trial": 58, "rt": 1343, "response": "Alpha"}, "11": {"stimulus": 68, "trial": 11, "rt": 1506, "response": "Beta"}, "10": {"stimulus": 14, "trial": 10, "rt": 1005, "response": "Alpha"}, "13": {"stimulus": 75, "trial": 13, "rt": 1463, "response": "Beta"}, "12": {"stimulus": 49, "trial": 12, "rt": 1060, "response": "Alpha"}, "15": {"stimulus": 64, "trial": 15, "rt": 1379, "response": "Beta"}, "14": {"stimulus": 71, "trial": 14, "rt": 1207, "response": "Beta"}, "17": {"stimulus": 70, "trial": 17, "rt": 1141, "response": "Beta"}, "16": {"stimulus": 36, "trial": 16, "rt": 1121, "response": "Alpha"}, "19": {"stimulus": 37, "trial": 19, "rt": 953, "response": "Alpha"}, "18": {"stimulus": 2, "trial": 18, "rt": 957, "response": "Alpha"}, "31": {"stimulus": 52, "trial": 31, "rt": 1189, "response": "Beta"}, "30": {"stimulus": 48, "trial": 30, "rt": 1330, "response": "Alpha"}, "37": {"stimulus": 55, "trial": 37, "rt": 1120, "response": "Beta"}, "36": {"stimulus": 78, "trial": 36, "rt": 1639, "response": "Beta"}, "35": {"stimulus": 66, "trial": 35, "rt": 1178, "response": "Beta"}, "34": {"stimulus": 47, "trial": 34, "rt": 1266, "response": "Beta"}, "33": {"stimulus": 56, "trial": 33, "rt": 2042, "response": "Beta"}, "55": {"stimulus": 42, "trial": 55, "rt": 2060, "response": "Alpha"}, "74": {"stimulus": 43, "trial": 74, "rt": 1949, "response": "Alpha"}, "32": {"stimulus": 38, "trial": 32, "rt": 1121, "response": "Alpha"}, "57": {"stimulus": 29, "trial": 57, "rt": 1141, "response": "Alpha"}, "50": {"stimulus": 28, "trial": 50, "rt": 959, "response": "Alpha"}}, "experiment": {"Paradigm": "TACL", "Stimuli": "Size-Color Squares", "Experiment": "Generating-Multiple-Categories"}, "submit": {"timeTotal": 388851, "age": "61", "comments": "none", "sex": "male"}}