{"info": {"finish": 1535396094984, "participant": 160, "exposed": true, "lab": false, "start": 1535395532710, "counterbalance": 1, "gentype": 1, "condition": "Middle", "browser": {"platform": "Win32", "userAgent": "Mozilla/5.0 (Windows NT 10.0; Win64; x64) AppleWebKit/537.36 (KHTML, like Gecko) Chrome/68.0.3440.106 Safari/537.36"}}, "observation": {"11": {"stimulus": 32, "trial": 11, "rt": 1381}, "10": {"stimulus": 50, "trial": 10, "rt": 1656}, "1": {"stimulus": 50, "trial": 1, "rt": 55381}, "0": {"stimulus": 30, "trial": 0, "rt": 2281}, "3": {"stimulus": 32, "trial": 3, "rt": 2141}, "2": {"stimulus": 48, "trial": 2, "rt": 2039}, "5": {"stimulus": 48, "trial": 5, "rt": 1961}, "4": {"stimulus": 32, "trial": 4, "rt": 3106}, "7": {"stimulus": 50, "trial": 7, "rt": 1487}, "6": {"stimulus": 30, "trial": 6, "rt": 1944}, "9": {"stimulus": 30, "trial": 9, "rt": 1549}, "8": {"stimulus": 48, "trial": 8, "rt": 1480}}, "generation": {"1": {"category": "Beta", "trial": 1, "stimulus": 46, "rt": 3341}, "0": {"category": "Beta", "trial": 0, "stimulus": 24, "rt": 13292}, "3": {"category": "Beta", "trial": 3, "stimulus": 3, "rt": 3863}, "2": {"category": "Beta", "trial": 2, "stimulus": 61, "rt": 8684}, "5": {"category": "Beta", "trial": 5, "stimulus": 12, "rt": 2779}, "4": {"category": "Beta", "trial": 4, "stimulus": 47, "rt": 3237}, "7": {"category": "Beta", "trial": 7, "stimulus": 52, "rt": 7049}, "6": {"category": "Beta", "trial": 6, "stimulus": 51, "rt": 2925}}, "generalization": {"56": {"stimulus": 75, "trial": 56, "rt": 447, "response": "Beta"}, "77": {"stimulus": 52, "trial": 77, "rt": 391, "response": "Beta"}, "54": {"stimulus": 73, "trial": 54, "rt": 103, "response": "Beta"}, "42": {"stimulus": 29, "trial": 42, "rt": 828, "response": "Beta"}, "48": {"stimulus": 32, "trial": 48, "rt": 5105, "response": "Alpha"}, "43": {"stimulus": 11, "trial": 43, "rt": 2147, "response": "Beta"}, "60": {"stimulus": 28, "trial": 60, "rt": 414, "response": "Alpha"}, "61": {"stimulus": 47, "trial": 61, "rt": 408, "response": "Alpha"}, "62": {"stimulus": 2, "trial": 62, "rt": 573, "response": "Alpha"}, "63": {"stimulus": 23, "trial": 63, "rt": 238, "response": "Beta"}, "64": {"stimulus": 62, "trial": 64, "rt": 292, "response": "Alpha"}, "49": {"stimulus": 72, "trial": 49, "rt": 515, "response": "Beta"}, "66": {"stimulus": 33, "trial": 66, "rt": 10126, "response": "Beta"}, "67": {"stimulus": 27, "trial": 67, "rt": 313, "response": "Alpha"}, "68": {"stimulus": 54, "trial": 68, "rt": 551, "response": "Alpha"}, "69": {"stimulus": 4, "trial": 69, "rt": 630, "response": "Alpha"}, "80": {"stimulus": 45, "trial": 80, "rt": 1053, "response": "Beta"}, "52": {"stimulus": 48, "trial": 52, "rt": 398, "response": "Beta"}, "53": {"stimulus": 10, "trial": 53, "rt": 366, "response": "Alpha"}, "24": {"stimulus": 77, "trial": 24, "rt": 933, "response": "Alpha"}, "25": {"stimulus": 21, "trial": 25, "rt": 831, "response": "Alpha"}, "26": {"stimulus": 39, "trial": 26, "rt": 448, "response": "Alpha"}, "27": {"stimulus": 60, "trial": 27, "rt": 1086, "response": "Beta"}, "20": {"stimulus": 40, "trial": 20, "rt": 2239, "response": "Beta"}, "21": {"stimulus": 5, "trial": 21, "rt": 486, "response": "Alpha"}, "22": {"stimulus": 66, "trial": 22, "rt": 509, "response": "Alpha"}, "23": {"stimulus": 7, "trial": 23, "rt": 893, "response": "Alpha"}, "46": {"stimulus": 76, "trial": 46, "rt": 22693, "response": "Beta"}, "47": {"stimulus": 0, "trial": 47, "rt": 393, "response": "Alpha"}, "44": {"stimulus": 41, "trial": 44, "rt": 1022, "response": "Alpha"}, "45": {"stimulus": 69, "trial": 45, "rt": 7472, "response": "Alpha"}, "28": {"stimulus": 57, "trial": 28, "rt": 4247, "response": "Beta"}, "29": {"stimulus": 36, "trial": 29, "rt": 221, "response": "Beta"}, "40": {"stimulus": 71, "trial": 40, "rt": 1717, "response": "Alpha"}, "41": {"stimulus": 8, "trial": 41, "rt": 2823, "response": "Beta"}, "1": {"stimulus": 56, "trial": 1, "rt": 404, "response": "Alpha"}, "0": {"stimulus": 31, "trial": 0, "rt": 899, "response": "Alpha"}, "3": {"stimulus": 34, "trial": 3, "rt": 309, "response": "Beta"}, "2": {"stimulus": 61, "trial": 2, "rt": 391, "response": "Beta"}, "5": {"stimulus": 19, "trial": 5, "rt": 1502, "response": "Beta"}, "4": {"stimulus": 68, "trial": 4, "rt": 990, "response": "Alpha"}, "7": {"stimulus": 46, "trial": 7, "rt": 1260, "response": "Alpha"}, "6": {"stimulus": 17, "trial": 6, "rt": 4423, "response": "Alpha"}, "9": {"stimulus": 50, "trial": 9, "rt": 350, "response": "Alpha"}, "8": {"stimulus": 35, "trial": 8, "rt": 493, "response": "Alpha"}, "78": {"stimulus": 43, "trial": 78, "rt": 109, "response": "Beta"}, "51": {"stimulus": 9, "trial": 51, "rt": 5916, "response": "Beta"}, "39": {"stimulus": 78, "trial": 39, "rt": 33064, "response": "Beta"}, "65": {"stimulus": 14, "trial": 65, "rt": 135, "response": "Alpha"}, "76": {"stimulus": 55, "trial": 76, "rt": 143, "response": "Beta"}, "75": {"stimulus": 37, "trial": 75, "rt": 350, "response": "Beta"}, "38": {"stimulus": 58, "trial": 38, "rt": 3124, "response": "Alpha"}, "73": {"stimulus": 74, "trial": 73, "rt": 1302, "response": "Beta"}, "72": {"stimulus": 63, "trial": 72, "rt": 806, "response": "Alpha"}, "71": {"stimulus": 13, "trial": 71, "rt": 905, "response": "Alpha"}, "70": {"stimulus": 51, "trial": 70, "rt": 670, "response": "Alpha"}, "59": {"stimulus": 64, "trial": 59, "rt": 447, "response": "Alpha"}, "79": {"stimulus": 42, "trial": 79, "rt": 857, "response": "Beta"}, "58": {"stimulus": 53, "trial": 58, "rt": 230, "response": "Beta"}, "11": {"stimulus": 18, "trial": 11, "rt": 364, "response": "Alpha"}, "10": {"stimulus": 3, "trial": 10, "rt": 3429, "response": "Alpha"}, "13": {"stimulus": 67, "trial": 13, "rt": 383, "response": "Alpha"}, "12": {"stimulus": 65, "trial": 12, "rt": 324, "response": "Alpha"}, "15": {"stimulus": 44, "trial": 15, "rt": 33992, "response": "Beta"}, "14": {"stimulus": 6, "trial": 14, "rt": 394, "response": "Alpha"}, "17": {"stimulus": 26, "trial": 17, "rt": 418, "response": "Alpha"}, "16": {"stimulus": 1, "trial": 16, "rt": 4201, "response": "Beta"}, "19": {"stimulus": 59, "trial": 19, "rt": 204, "response": "Alpha"}, "18": {"stimulus": 79, "trial": 18, "rt": 427, "response": "Alpha"}, "31": {"stimulus": 20, "trial": 31, "rt": 292, "response": "Alpha"}, "30": {"stimulus": 15, "trial": 30, "rt": 199, "response": "Beta"}, "37": {"stimulus": 30, "trial": 37, "rt": 22289, "response": "Alpha"}, "36": {"stimulus": 16, "trial": 36, "rt": 2373, "response": "Beta"}, "35": {"stimulus": 25, "trial": 35, "rt": 113, "response": "Alpha"}, "34": {"stimulus": 70, "trial": 34, "rt": 375, "response": "Beta"}, "33": {"stimulus": 12, "trial": 33, "rt": 840, "response": "Alpha"}, "55": {"stimulus": 38, "trial": 55, "rt": 238, "response": "Alpha"}, "74": {"stimulus": 49, "trial": 74, "rt": 214, "response": "Beta"}, "32": {"stimulus": 22, "trial": 32, "rt": 557, "response": "Beta"}, "57": {"stimulus": 80, "trial": 57, "rt": 286, "response": "Alpha"}, "50": {"stimulus": 24, "trial": 50, "rt": 639, "response": "Alpha"}}, "experiment": {"Paradigm": "TACL", "Stimuli": "Size-Color Squares", "Experiment": "Generating-Multiple-Categories"}, "submit": {"timeTotal": 562486, "age": "32", "comments": "", "sex": "f"}}