{"info": {"finish": 1535395996685, "participant": 161, "exposed": true, "lab": false, "start": 1535395607700, "counterbalance": 7, "gentype": 0, "condition": "Middle", "browser": {"platform": "Win32", "userAgent": "Mozilla/5.0 (Windows NT 6.1; Win64; x64) AppleWebKit/537.36 (KHTML, like Gecko) Chrome/68.0.3440.106 Safari/537.36"}}, "observation": {"11": {"stimulus": 50, "trial": 11, "rt": 1989}, "10": {"stimulus": 32, "trial": 10, "rt": 2040}, "1": {"stimulus": 50, "trial": 1, "rt": 7798}, "0": {"stimulus": 32, "trial": 0, "rt": 3232}, "3": {"stimulus": 48, "trial": 3, "rt": 1806}, "2": {"stimulus": 30, "trial": 2, "rt": 2742}, "5": {"stimulus": 50, "trial": 5, "rt": 1997}, "4": {"stimulus": 30, "trial": 4, "rt": 1871}, "7": {"stimulus": 48, "trial": 7, "rt": 2384}, "6": {"stimulus": 32, "trial": 6, "rt": 3244}, "9": {"stimulus": 48, "trial": 9, "rt": 1590}, "8": {"stimulus": 30, "trial": 8, "rt": 1659}}, "generation": {"1": {"category": "Not-Alpha", "trial": 1, "stimulus": 44, "rt": 9054}, "0": {"category": "Not-Alpha", "trial": 0, "stimulus": 27, "rt": 25357}, "3": {"category": "Not-Alpha", "trial": 3, "stimulus": 8, "rt": 6174}, "2": {"category": "Not-Alpha", "trial": 2, "stimulus": 71, "rt": 5396}, "5": {"category": "Not-Alpha", "trial": 5, "stimulus": 61, "rt": 11585}, "4": {"category": "Not-Alpha", "trial": 4, "stimulus": 25, "rt": 4838}, "7": {"category": "Not-Alpha", "trial": 7, "stimulus": 80, "rt": 9428}, "6": {"category": "Not-Alpha", "trial": 6, "stimulus": 26, "rt": 4950}}, "generalization": {"56": {"stimulus": 41, "trial": 56, "rt": 2519, "response": "Beta"}, "77": {"stimulus": 22, "trial": 77, "rt": 1423, "response": "Alpha"}, "54": {"stimulus": 66, "trial": 54, "rt": 566, "response": "Alpha"}, "42": {"stimulus": 59, "trial": 42, "rt": 820, "response": "Beta"}, "48": {"stimulus": 72, "trial": 48, "rt": 662, "response": "Alpha"}, "43": {"stimulus": 17, "trial": 43, "rt": 591, "response": "Beta"}, "60": {"stimulus": 8, "trial": 60, "rt": 1166, "response": "Beta"}, "61": {"stimulus": 39, "trial": 61, "rt": 1128, "response": "Alpha"}, "62": {"stimulus": 4, "trial": 62, "rt": 2413, "response": "Alpha"}, "63": {"stimulus": 2, "trial": 63, "rt": 599, "response": "Alpha"}, "64": {"stimulus": 74, "trial": 64, "rt": 591, "response": "Alpha"}, "49": {"stimulus": 68, "trial": 49, "rt": 2022, "response": "Alpha"}, "66": {"stimulus": 47, "trial": 66, "rt": 590, "response": "Alpha"}, "67": {"stimulus": 18, "trial": 67, "rt": 496, "response": "Alpha"}, "68": {"stimulus": 65, "trial": 68, "rt": 487, "response": "Alpha"}, "69": {"stimulus": 33, "trial": 69, "rt": 1008, "response": "Beta"}, "80": {"stimulus": 48, "trial": 80, "rt": 583, "response": "Alpha"}, "52": {"stimulus": 63, "trial": 52, "rt": 565, "response": "Alpha"}, "53": {"stimulus": 28, "trial": 53, "rt": 559, "response": "Alpha"}, "24": {"stimulus": 60, "trial": 24, "rt": 1110, "response": "Beta"}, "25": {"stimulus": 31, "trial": 25, "rt": 1094, "response": "Alpha"}, "26": {"stimulus": 54, "trial": 26, "rt": 600, "response": "Alpha"}, "27": {"stimulus": 78, "trial": 27, "rt": 942, "response": "Beta"}, "20": {"stimulus": 3, "trial": 20, "rt": 903, "response": "Alpha"}, "21": {"stimulus": 23, "trial": 21, "rt": 1675, "response": "Alpha"}, "22": {"stimulus": 70, "trial": 22, "rt": 1215, "response": "Beta"}, "23": {"stimulus": 0, "trial": 23, "rt": 1342, "response": "Alpha"}, "46": {"stimulus": 55, "trial": 46, "rt": 902, "response": "Alpha"}, "47": {"stimulus": 38, "trial": 47, "rt": 1142, "response": "Alpha"}, "44": {"stimulus": 64, "trial": 44, "rt": 918, "response": "Alpha"}, "45": {"stimulus": 26, "trial": 45, "rt": 949, "response": "Beta"}, "28": {"stimulus": 50, "trial": 28, "rt": 815, "response": "Beta"}, "29": {"stimulus": 40, "trial": 29, "rt": 1999, "response": "Beta"}, "40": {"stimulus": 6, "trial": 40, "rt": 827, "response": "Beta"}, "41": {"stimulus": 43, "trial": 41, "rt": 555, "response": "Beta"}, "1": {"stimulus": 79, "trial": 1, "rt": 1326, "response": "Beta"}, "0": {"stimulus": 19, "trial": 0, "rt": 2622, "response": "Beta"}, "3": {"stimulus": 45, "trial": 3, "rt": 2455, "response": "Alpha"}, "2": {"stimulus": 25, "trial": 2, "rt": 758, "response": "Beta"}, "5": {"stimulus": 24, "trial": 5, "rt": 584, "response": "Beta"}, "4": {"stimulus": 51, "trial": 4, "rt": 1269, "response": "Beta"}, "7": {"stimulus": 15, "trial": 7, "rt": 718, "response": "Beta"}, "6": {"stimulus": 58, "trial": 6, "rt": 1166, "response": "Beta"}, "9": {"stimulus": 42, "trial": 9, "rt": 1269, "response": "Beta"}, "8": {"stimulus": 21, "trial": 8, "rt": 1831, "response": "Alpha"}, "78": {"stimulus": 76, "trial": 78, "rt": 623, "response": "Alpha"}, "51": {"stimulus": 10, "trial": 51, "rt": 543, "response": "Alpha"}, "39": {"stimulus": 14, "trial": 39, "rt": 521, "response": "Beta"}, "65": {"stimulus": 11, "trial": 65, "rt": 565, "response": "Alpha"}, "76": {"stimulus": 62, "trial": 76, "rt": 637, "response": "Beta"}, "75": {"stimulus": 7, "trial": 75, "rt": 573, "response": "Beta"}, "38": {"stimulus": 16, "trial": 38, "rt": 603, "response": "Beta"}, "73": {"stimulus": 77, "trial": 73, "rt": 1415, "response": "Beta"}, "72": {"stimulus": 36, "trial": 72, "rt": 894, "response": "Alpha"}, "71": {"stimulus": 49, "trial": 71, "rt": 550, "response": "Beta"}, "70": {"stimulus": 44, "trial": 70, "rt": 719, "response": "Beta"}, "59": {"stimulus": 1, "trial": 59, "rt": 1310, "response": "Alpha"}, "79": {"stimulus": 57, "trial": 79, "rt": 584, "response": "Alpha"}, "58": {"stimulus": 52, "trial": 58, "rt": 1013, "response": "Beta"}, "11": {"stimulus": 75, "trial": 11, "rt": 654, "response": "Alpha"}, "10": {"stimulus": 13, "trial": 10, "rt": 2184, "response": "Alpha"}, "13": {"stimulus": 73, "trial": 13, "rt": 591, "response": "Alpha"}, "12": {"stimulus": 46, "trial": 12, "rt": 598, "response": "Alpha"}, "15": {"stimulus": 12, "trial": 15, "rt": 574, "response": "Alpha"}, "14": {"stimulus": 29, "trial": 14, "rt": 607, "response": "Alpha"}, "17": {"stimulus": 32, "trial": 17, "rt": 1023, "response": "Beta"}, "16": {"stimulus": 53, "trial": 16, "rt": 1159, "response": "Beta"}, "19": {"stimulus": 67, "trial": 19, "rt": 4855, "response": "Alpha"}, "18": {"stimulus": 80, "trial": 18, "rt": 1077, "response": "Beta"}, "31": {"stimulus": 34, "trial": 31, "rt": 548, "response": "Beta"}, "30": {"stimulus": 61, "trial": 30, "rt": 776, "response": "Beta"}, "37": {"stimulus": 71, "trial": 37, "rt": 887, "response": "Beta"}, "36": {"stimulus": 30, "trial": 36, "rt": 967, "response": "Alpha"}, "35": {"stimulus": 69, "trial": 35, "rt": 948, "response": "Beta"}, "34": {"stimulus": 37, "trial": 34, "rt": 1029, "response": "Alpha"}, "33": {"stimulus": 5, "trial": 33, "rt": 1550, "response": "Alpha"}, "55": {"stimulus": 20, "trial": 55, "rt": 527, "response": "Alpha"}, "74": {"stimulus": 35, "trial": 74, "rt": 623, "response": "Beta"}, "32": {"stimulus": 27, "trial": 32, "rt": 1037, "response": "Alpha"}, "57": {"stimulus": 56, "trial": 57, "rt": 1296, "response": "Alpha"}, "50": {"stimulus": 9, "trial": 50, "rt": 661, "response": "Alpha"}}, "experiment": {"Paradigm": "TACL", "Stimuli": "Size-Color Squares", "Experiment": "Generating-Multiple-Categories"}, "submit": {"timeTotal": 389256, "age": "72", "comments": "fun", "sex": "F"}}