{"info": {"finish": 1535397403041, "participant": 166, "exposed": true, "lab": false, "start": 1535397184188, "counterbalance": 4, "gentype": 0, "condition": "Middle", "browser": {"platform": "Win32", "userAgent": "Mozilla/5.0 (Windows NT 10.0; Win64; x64) AppleWebKit/537.36 (KHTML, like Gecko) Chrome/68.0.3440.106 Safari/537.36"}}, "observation": {"11": {"stimulus": 32, "trial": 11, "rt": 1662}, "10": {"stimulus": 50, "trial": 10, "rt": 1759}, "1": {"stimulus": 48, "trial": 1, "rt": 2103}, "0": {"stimulus": 32, "trial": 0, "rt": 1750}, "3": {"stimulus": 50, "trial": 3, "rt": 1666}, "2": {"stimulus": 30, "trial": 2, "rt": 1880}, "5": {"stimulus": 50, "trial": 5, "rt": 9572}, "4": {"stimulus": 48, "trial": 4, "rt": 4215}, "7": {"stimulus": 30, "trial": 7, "rt": 2139}, "6": {"stimulus": 32, "trial": 6, "rt": 1838}, "9": {"stimulus": 48, "trial": 9, "rt": 2166}, "8": {"stimulus": 30, "trial": 8, "rt": 1802}}, "generation": {"1": {"category": "Not-Alpha", "trial": 1, "stimulus": 50, "rt": 33539}, "0": {"category": "Not-Alpha", "trial": 0, "stimulus": 37, "rt": 4174}, "3": {"category": "Not-Alpha", "trial": 3, "stimulus": 45, "rt": 1455}, "2": {"category": "Not-Alpha", "trial": 2, "stimulus": 48, "rt": 2130}, "5": {"category": "Not-Alpha", "trial": 5, "stimulus": 33, "rt": 4263}, "4": {"category": "Not-Alpha", "trial": 4, "stimulus": 53, "rt": 3096}, "7": {"category": "Not-Alpha", "trial": 7, "stimulus": 32, "rt": 5517}, "6": {"category": "Not-Alpha", "trial": 6, "stimulus": 34, "rt": 3494}}, "generalization": {"56": {"stimulus": 22, "trial": 56, "rt": 185, "response": "Alpha"}, "77": {"stimulus": 42, "trial": 77, "rt": 215, "response": "Beta"}, "54": {"stimulus": 18, "trial": 54, "rt": 480, "response": "Alpha"}, "42": {"stimulus": 27, "trial": 42, "rt": 447, "response": "Alpha"}, "48": {"stimulus": 1, "trial": 48, "rt": 261, "response": "Alpha"}, "43": {"stimulus": 36, "trial": 43, "rt": 444, "response": "Alpha"}, "60": {"stimulus": 38, "trial": 60, "rt": 390, "response": "Alpha"}, "61": {"stimulus": 67, "trial": 61, "rt": 231, "response": "Beta"}, "62": {"stimulus": 9, "trial": 62, "rt": 134, "response": "Alpha"}, "63": {"stimulus": 7, "trial": 63, "rt": 831, "response": "Beta"}, "64": {"stimulus": 2, "trial": 64, "rt": 134, "response": "Alpha"}, "49": {"stimulus": 65, "trial": 49, "rt": 253, "response": "Alpha"}, "66": {"stimulus": 46, "trial": 66, "rt": 238, "response": "Alpha"}, "67": {"stimulus": 44, "trial": 67, "rt": 275, "response": "Beta"}, "68": {"stimulus": 8, "trial": 68, "rt": 203, "response": "Beta"}, "69": {"stimulus": 59, "trial": 69, "rt": 326, "response": "Beta"}, "80": {"stimulus": 0, "trial": 80, "rt": 239, "response": "Alpha"}, "52": {"stimulus": 41, "trial": 52, "rt": 136, "response": "Alpha"}, "53": {"stimulus": 24, "trial": 53, "rt": 203, "response": "Beta"}, "24": {"stimulus": 10, "trial": 24, "rt": 238, "response": "Beta"}, "25": {"stimulus": 64, "trial": 25, "rt": 254, "response": "Beta"}, "26": {"stimulus": 50, "trial": 26, "rt": 243, "response": "Beta"}, "27": {"stimulus": 23, "trial": 27, "rt": 253, "response": "Alpha"}, "20": {"stimulus": 78, "trial": 20, "rt": 167, "response": "Beta"}, "21": {"stimulus": 16, "trial": 21, "rt": 117, "response": "Beta"}, "22": {"stimulus": 69, "trial": 22, "rt": 279, "response": "Beta"}, "23": {"stimulus": 32, "trial": 23, "rt": 160, "response": "Beta"}, "46": {"stimulus": 6, "trial": 46, "rt": 308, "response": "Alpha"}, "47": {"stimulus": 73, "trial": 47, "rt": 309, "response": "Alpha"}, "44": {"stimulus": 40, "trial": 44, "rt": 135, "response": "Alpha"}, "45": {"stimulus": 72, "trial": 45, "rt": 310, "response": "Alpha"}, "28": {"stimulus": 80, "trial": 28, "rt": 232, "response": "Alpha"}, "29": {"stimulus": 5, "trial": 29, "rt": 221, "response": "Alpha"}, "40": {"stimulus": 4, "trial": 40, "rt": 206, "response": "Alpha"}, "41": {"stimulus": 34, "trial": 41, "rt": 207, "response": "Alpha"}, "1": {"stimulus": 29, "trial": 1, "rt": 204, "response": "Alpha"}, "0": {"stimulus": 75, "trial": 0, "rt": 557, "response": "Beta"}, "3": {"stimulus": 62, "trial": 3, "rt": 230, "response": "Alpha"}, "2": {"stimulus": 52, "trial": 2, "rt": 359, "response": "Beta"}, "5": {"stimulus": 51, "trial": 5, "rt": 567, "response": "Alpha"}, "4": {"stimulus": 70, "trial": 4, "rt": 333, "response": "Beta"}, "7": {"stimulus": 26, "trial": 7, "rt": 125, "response": "Alpha"}, "6": {"stimulus": 56, "trial": 6, "rt": 184, "response": "Alpha"}, "9": {"stimulus": 47, "trial": 9, "rt": 191, "response": "Alpha"}, "8": {"stimulus": 31, "trial": 8, "rt": 342, "response": "Alpha"}, "78": {"stimulus": 79, "trial": 78, "rt": 198, "response": "Beta"}, "51": {"stimulus": 30, "trial": 51, "rt": 150, "response": "Beta"}, "39": {"stimulus": 33, "trial": 39, "rt": 217, "response": "Alpha"}, "65": {"stimulus": 57, "trial": 65, "rt": 400, "response": "Beta"}, "76": {"stimulus": 37, "trial": 76, "rt": 150, "response": "Alpha"}, "75": {"stimulus": 45, "trial": 75, "rt": 122, "response": "Alpha"}, "38": {"stimulus": 20, "trial": 38, "rt": 293, "response": "Alpha"}, "73": {"stimulus": 28, "trial": 73, "rt": 280, "response": "Alpha"}, "72": {"stimulus": 12, "trial": 72, "rt": 306, "response": "Beta"}, "71": {"stimulus": 21, "trial": 71, "rt": 354, "response": "Beta"}, "70": {"stimulus": 3, "trial": 70, "rt": 324, "response": "Beta"}, "59": {"stimulus": 19, "trial": 59, "rt": 150, "response": "Beta"}, "79": {"stimulus": 71, "trial": 79, "rt": 244, "response": "Beta"}, "58": {"stimulus": 48, "trial": 58, "rt": 135, "response": "Alpha"}, "11": {"stimulus": 68, "trial": 11, "rt": 222, "response": "Alpha"}, "10": {"stimulus": 11, "trial": 10, "rt": 123, "response": "Alpha"}, "13": {"stimulus": 76, "trial": 13, "rt": 195, "response": "Alpha"}, "12": {"stimulus": 54, "trial": 12, "rt": 315, "response": "Alpha"}, "15": {"stimulus": 74, "trial": 15, "rt": 343, "response": "Beta"}, "14": {"stimulus": 58, "trial": 14, "rt": 366, "response": "Beta"}, "17": {"stimulus": 25, "trial": 17, "rt": 180, "response": "Beta"}, "16": {"stimulus": 63, "trial": 16, "rt": 168, "response": "Beta"}, "19": {"stimulus": 15, "trial": 19, "rt": 260, "response": "Beta"}, "18": {"stimulus": 14, "trial": 18, "rt": 187, "response": "Beta"}, "31": {"stimulus": 61, "trial": 31, "rt": 135, "response": "Alpha"}, "30": {"stimulus": 35, "trial": 30, "rt": 504, "response": "Alpha"}, "37": {"stimulus": 60, "trial": 37, "rt": 135, "response": "Alpha"}, "36": {"stimulus": 49, "trial": 36, "rt": 208, "response": "Alpha"}, "35": {"stimulus": 55, "trial": 35, "rt": 347, "response": "Alpha"}, "34": {"stimulus": 43, "trial": 34, "rt": 159, "response": "Alpha"}, "33": {"stimulus": 13, "trial": 33, "rt": 390, "response": "Beta"}, "55": {"stimulus": 66, "trial": 55, "rt": 830, "response": "Beta"}, "74": {"stimulus": 77, "trial": 74, "rt": 289, "response": "Alpha"}, "32": {"stimulus": 17, "trial": 32, "rt": 310, "response": "Alpha"}, "57": {"stimulus": 39, "trial": 57, "rt": 309, "response": "Beta"}, "50": {"stimulus": 53, "trial": 50, "rt": 303, "response": "Alpha"}}, "experiment": {"Paradigm": "TACL", "Stimuli": "Size-Color Squares", "Experiment": "Generating-Multiple-Categories"}, "submit": {"timeTotal": 219096, "age": "25", "comments": "", "sex": "m"}}