{"info": {"finish": 1535401888090, "participant": 173, "exposed": true, "lab": false, "start": 1535401605570, "counterbalance": 4, "gentype": 0, "condition": "Middle", "browser": {"platform": "Win32", "userAgent": "Mozilla/5.0 (Windows NT 10.0; Win64; x64) AppleWebKit/537.36 (KHTML, like Gecko) Chrome/68.0.3440.106 Safari/537.36"}}, "observation": {"11": {"stimulus": 50, "trial": 11, "rt": 1537}, "10": {"stimulus": 30, "trial": 10, "rt": 1419}, "1": {"stimulus": 50, "trial": 1, "rt": 2044}, "0": {"stimulus": 32, "trial": 0, "rt": 2885}, "3": {"stimulus": 48, "trial": 3, "rt": 1377}, "2": {"stimulus": 30, "trial": 2, "rt": 1444}, "5": {"stimulus": 30, "trial": 5, "rt": 1358}, "4": {"stimulus": 48, "trial": 4, "rt": 1374}, "7": {"stimulus": 32, "trial": 7, "rt": 1370}, "6": {"stimulus": 50, "trial": 6, "rt": 1376}, "9": {"stimulus": 32, "trial": 9, "rt": 1305}, "8": {"stimulus": 48, "trial": 8, "rt": 1294}}, "generation": {"1": {"category": "Not-Alpha", "trial": 1, "stimulus": 46, "rt": 2945}, "0": {"category": "Not-Alpha", "trial": 0, "stimulus": 32, "rt": 7524}, "3": {"category": "Not-Alpha", "trial": 3, "stimulus": 70, "rt": 6445}, "2": {"category": "Not-Alpha", "trial": 2, "stimulus": 53, "rt": 2033}, "5": {"category": "Not-Alpha", "trial": 5, "stimulus": 1, "rt": 3369}, "4": {"category": "Not-Alpha", "trial": 4, "stimulus": 75, "rt": 4534}, "7": {"category": "Not-Alpha", "trial": 7, "stimulus": 20, "rt": 7518}, "6": {"category": "Not-Alpha", "trial": 6, "stimulus": 8, "rt": 6501}}, "generalization": {"56": {"stimulus": 13, "trial": 56, "rt": 702, "response": "Beta"}, "77": {"stimulus": 44, "trial": 77, "rt": 677, "response": "Beta"}, "54": {"stimulus": 50, "trial": 54, "rt": 988, "response": "Alpha"}, "42": {"stimulus": 33, "trial": 42, "rt": 1170, "response": "Alpha"}, "48": {"stimulus": 3, "trial": 48, "rt": 889, "response": "Beta"}, "43": {"stimulus": 26, "trial": 43, "rt": 896, "response": "Beta"}, "60": {"stimulus": 54, "trial": 60, "rt": 539, "response": "Beta"}, "61": {"stimulus": 49, "trial": 61, "rt": 613, "response": "Beta"}, "62": {"stimulus": 22, "trial": 62, "rt": 699, "response": "Beta"}, "63": {"stimulus": 69, "trial": 63, "rt": 1105, "response": "Beta"}, "64": {"stimulus": 24, "trial": 64, "rt": 1332, "response": "Beta"}, "49": {"stimulus": 29, "trial": 49, "rt": 1427, "response": "Beta"}, "66": {"stimulus": 53, "trial": 66, "rt": 637, "response": "Alpha"}, "67": {"stimulus": 28, "trial": 67, "rt": 1512, "response": "Beta"}, "68": {"stimulus": 46, "trial": 68, "rt": 685, "response": "Alpha"}, "69": {"stimulus": 70, "trial": 69, "rt": 1023, "response": "Beta"}, "80": {"stimulus": 45, "trial": 80, "rt": 601, "response": "Beta"}, "52": {"stimulus": 39, "trial": 52, "rt": 1536, "response": "Alpha"}, "53": {"stimulus": 63, "trial": 53, "rt": 680, "response": "Beta"}, "24": {"stimulus": 19, "trial": 24, "rt": 798, "response": "Beta"}, "25": {"stimulus": 56, "trial": 25, "rt": 747, "response": "Beta"}, "26": {"stimulus": 0, "trial": 26, "rt": 594, "response": "Beta"}, "27": {"stimulus": 67, "trial": 27, "rt": 1831, "response": "Alpha"}, "20": {"stimulus": 48, "trial": 20, "rt": 1542, "response": "Alpha"}, "21": {"stimulus": 42, "trial": 21, "rt": 998, "response": "Alpha"}, "22": {"stimulus": 61, "trial": 22, "rt": 1235, "response": "Beta"}, "23": {"stimulus": 4, "trial": 23, "rt": 1358, "response": "Beta"}, "46": {"stimulus": 79, "trial": 46, "rt": 1037, "response": "Beta"}, "47": {"stimulus": 2, "trial": 47, "rt": 2141, "response": "Beta"}, "44": {"stimulus": 23, "trial": 44, "rt": 2656, "response": "Alpha"}, "45": {"stimulus": 64, "trial": 45, "rt": 715, "response": "Beta"}, "28": {"stimulus": 66, "trial": 28, "rt": 1393, "response": "Alpha"}, "29": {"stimulus": 11, "trial": 29, "rt": 795, "response": "Beta"}, "40": {"stimulus": 30, "trial": 40, "rt": 659, "response": "Beta"}, "41": {"stimulus": 32, "trial": 41, "rt": 3126, "response": "Alpha"}, "1": {"stimulus": 52, "trial": 1, "rt": 2463, "response": "Beta"}, "0": {"stimulus": 73, "trial": 0, "rt": 1490, "response": "Beta"}, "3": {"stimulus": 16, "trial": 3, "rt": 987, "response": "Beta"}, "2": {"stimulus": 25, "trial": 2, "rt": 1806, "response": "Beta"}, "5": {"stimulus": 41, "trial": 5, "rt": 1452, "response": "Alpha"}, "4": {"stimulus": 51, "trial": 4, "rt": 1064, "response": "Alpha"}, "7": {"stimulus": 15, "trial": 7, "rt": 881, "response": "Beta"}, "6": {"stimulus": 80, "trial": 6, "rt": 979, "response": "Beta"}, "9": {"stimulus": 59, "trial": 9, "rt": 998, "response": "Alpha"}, "8": {"stimulus": 68, "trial": 8, "rt": 2487, "response": "Beta"}, "78": {"stimulus": 21, "trial": 78, "rt": 649, "response": "Beta"}, "51": {"stimulus": 17, "trial": 51, "rt": 709, "response": "Beta"}, "39": {"stimulus": 78, "trial": 39, "rt": 1095, "response": "Beta"}, "65": {"stimulus": 76, "trial": 65, "rt": 666, "response": "Beta"}, "76": {"stimulus": 38, "trial": 76, "rt": 617, "response": "Beta"}, "75": {"stimulus": 6, "trial": 75, "rt": 637, "response": "Beta"}, "38": {"stimulus": 5, "trial": 38, "rt": 1568, "response": "Beta"}, "73": {"stimulus": 71, "trial": 73, "rt": 789, "response": "Beta"}, "72": {"stimulus": 40, "trial": 72, "rt": 720, "response": "Beta"}, "71": {"stimulus": 35, "trial": 71, "rt": 1461, "response": "Beta"}, "70": {"stimulus": 37, "trial": 70, "rt": 893, "response": "Beta"}, "59": {"stimulus": 34, "trial": 59, "rt": 645, "response": "Beta"}, "79": {"stimulus": 77, "trial": 79, "rt": 730, "response": "Beta"}, "58": {"stimulus": 43, "trial": 58, "rt": 814, "response": "Alpha"}, "11": {"stimulus": 27, "trial": 11, "rt": 643, "response": "Beta"}, "10": {"stimulus": 14, "trial": 10, "rt": 891, "response": "Beta"}, "13": {"stimulus": 9, "trial": 13, "rt": 662, "response": "Beta"}, "12": {"stimulus": 20, "trial": 12, "rt": 930, "response": "Beta"}, "15": {"stimulus": 62, "trial": 15, "rt": 1149, "response": "Alpha"}, "14": {"stimulus": 58, "trial": 14, "rt": 1451, "response": "Alpha"}, "17": {"stimulus": 31, "trial": 17, "rt": 796, "response": "Beta"}, "16": {"stimulus": 1, "trial": 16, "rt": 725, "response": "Beta"}, "19": {"stimulus": 18, "trial": 19, "rt": 682, "response": "Beta"}, "18": {"stimulus": 36, "trial": 18, "rt": 1041, "response": "Beta"}, "31": {"stimulus": 57, "trial": 31, "rt": 1190, "response": "Beta"}, "30": {"stimulus": 65, "trial": 30, "rt": 1169, "response": "Beta"}, "37": {"stimulus": 12, "trial": 37, "rt": 913, "response": "Beta"}, "36": {"stimulus": 74, "trial": 36, "rt": 879, "response": "Beta"}, "35": {"stimulus": 72, "trial": 35, "rt": 762, "response": "Beta"}, "34": {"stimulus": 10, "trial": 34, "rt": 886, "response": "Beta"}, "33": {"stimulus": 60, "trial": 33, "rt": 2068, "response": "Alpha"}, "55": {"stimulus": 75, "trial": 55, "rt": 746, "response": "Beta"}, "74": {"stimulus": 7, "trial": 74, "rt": 734, "response": "Beta"}, "32": {"stimulus": 55, "trial": 32, "rt": 830, "response": "Beta"}, "57": {"stimulus": 47, "trial": 57, "rt": 1243, "response": "Beta"}, "50": {"stimulus": 8, "trial": 50, "rt": 1612, "response": "Beta"}}, "experiment": {"Paradigm": "TACL", "Stimuli": "Size-Color Squares", "Experiment": "Generating-Multiple-Categories"}, "submit": {"timeTotal": 282904, "age": "29", "comments": "", "sex": "male"}}