{"info": {"participant": 176, "exposed": true, "lab": false, "start": 1535402371283, "counterbalance": 1, "gentype": 2, "condition": "Bottom", "browser": {"platform": "Win32", "userAgent": "Mozilla/5.0 (Windows NT 10.0; Win64; x64) AppleWebKit/537.36 (KHTML, like Gecko) Chrome/68.0.3440.106 Safari/537.36"}}, "observation": {"11": {"stimulus": 30, "trial": 11, "rt": 2238}, "10": {"stimulus": 12, "trial": 10, "rt": 2247}, "1": {"stimulus": 12, "trial": 1, "rt": 2648}, "0": {"stimulus": 32, "trial": 0, "rt": 2739}, "3": {"stimulus": 14, "trial": 3, "rt": 4660}, "2": {"stimulus": 30, "trial": 2, "rt": 2977}, "5": {"stimulus": 30, "trial": 5, "rt": 2535}, "4": {"stimulus": 12, "trial": 4, "rt": 5355}, "7": {"stimulus": 32, "trial": 7, "rt": 2034}, "6": {"stimulus": 14, "trial": 6, "rt": 2518}, "9": {"stimulus": 14, "trial": 9, "rt": 2512}, "8": {"stimulus": 32, "trial": 8, "rt": 2837}}, "generation": {"1": {"category": "Beta", "trial": 1, "stimulus": 63, "rt": 8277}, "0": {"category": "Beta", "trial": 0, "stimulus": 72, "rt": 17299}, "3": {"category": "Beta", "trial": 3, "stimulus": 36, "rt": 7802}, "2": {"category": "Beta", "trial": 2, "stimulus": 54, "rt": 6570}, "5": {"category": "Gamma", "trial": 5, "stimulus": 17, "rt": 6327}, "4": {"category": "Gamma", "trial": 4, "stimulus": 8, "rt": 7913}, "7": {"category": "Gamma", "trial": 7, "stimulus": 44, "rt": 6932}, "6": {"category": "Gamma", "trial": 6, "stimulus": 35, "rt": 5937}}, "generalization": {"56": {"stimulus": 14, "trial": 56, "rt": 1328, "response": "Alpha"}, "77": {"stimulus": 70, "trial": 77, "rt": 1122, "response": "Alpha"}, "54": {"stimulus": 46, "trial": 54, "rt": 1766, "response": "Beta"}, "42": {"stimulus": 52, "trial": 42, "rt": 2378, "response": "Gamma"}, "48": {"stimulus": 62, "trial": 48, "rt": 1466, "response": "Gamma"}, "43": {"stimulus": 0, "trial": 43, "rt": 1274, "response": "Beta"}, "60": {"stimulus": 18, "trial": 60, "rt": 1292, "response": "Beta"}, "61": {"stimulus": 30, "trial": 61, "rt": 4453, "response": "Alpha"}, "62": {"stimulus": 45, "trial": 62, "rt": 1383, "response": "Beta"}, "63": {"stimulus": 23, "trial": 63, "rt": 1929, "response": "Alpha"}, "64": {"stimulus": 59, "trial": 64, "rt": 1071, "response": "Alpha"}, "49": {"stimulus": 76, "trial": 49, "rt": 1668, "response": "Alpha"}, "66": {"stimulus": 80, "trial": 66, "rt": 1496, "response": "Gamma"}, "67": {"stimulus": 41, "trial": 67, "rt": 2082, "response": "Alpha"}, "68": {"stimulus": 20, "trial": 68, "rt": 1305, "response": "Beta"}, "69": {"stimulus": 51, "trial": 69, "rt": 1542, "response": "Alpha"}, "80": {"stimulus": 1, "trial": 80, "rt": 1103, "response": "Beta"}, "52": {"stimulus": 27, "trial": 52, "rt": 2796, "response": "Beta"}, "53": {"stimulus": 42, "trial": 53, "rt": 2621, "response": "Alpha"}, "24": {"stimulus": 79, "trial": 24, "rt": 1220, "response": "Gamma"}, "25": {"stimulus": 5, "trial": 25, "rt": 904, "response": "Gamma"}, "26": {"stimulus": 74, "trial": 26, "rt": 2012, "response": "Beta"}, "27": {"stimulus": 24, "trial": 27, "rt": 1303, "response": "Gamma"}, "20": {"stimulus": 10, "trial": 20, "rt": 1067, "response": "Beta"}, "21": {"stimulus": 66, "trial": 21, "rt": 1276, "response": "Alpha"}, "22": {"stimulus": 21, "trial": 22, "rt": 1808, "response": "Gamma"}, "23": {"stimulus": 3, "trial": 23, "rt": 1179, "response": "Alpha"}, "46": {"stimulus": 19, "trial": 46, "rt": 1215, "response": "Beta"}, "47": {"stimulus": 68, "trial": 47, "rt": 2106, "response": "Alpha"}, "44": {"stimulus": 32, "trial": 44, "rt": 3964, "response": "Alpha"}, "45": {"stimulus": 44, "trial": 45, "rt": 1513, "response": "Gamma"}, "28": {"stimulus": 8, "trial": 28, "rt": 1433, "response": "Gamma"}, "29": {"stimulus": 36, "trial": 29, "rt": 1251, "response": "Beta"}, "40": {"stimulus": 17, "trial": 40, "rt": 2635, "response": "Gamma"}, "41": {"stimulus": 64, "trial": 41, "rt": 1548, "response": "Beta"}, "1": {"stimulus": 49, "trial": 1, "rt": 4572, "response": "Beta"}, "0": {"stimulus": 40, "trial": 0, "rt": 4756, "response": "Alpha"}, "3": {"stimulus": 26, "trial": 3, "rt": 1456, "response": "Gamma"}, "2": {"stimulus": 31, "trial": 2, "rt": 1744, "response": "Alpha"}, "5": {"stimulus": 29, "trial": 5, "rt": 1465, "response": "Beta"}, "4": {"stimulus": 7, "trial": 4, "rt": 1560, "response": "Gamma"}, "7": {"stimulus": 25, "trial": 7, "rt": 1566, "response": "Gamma"}, "6": {"stimulus": 63, "trial": 6, "rt": 1194, "response": "Beta"}, "9": {"stimulus": 55, "trial": 9, "rt": 1586, "response": "Beta"}, "8": {"stimulus": 71, "trial": 8, "rt": 1109, "response": "Gamma"}, "78": {"stimulus": 39, "trial": 78, "rt": 1487, "response": "Beta"}, "51": {"stimulus": 2, "trial": 51, "rt": 1677, "response": "Beta"}, "39": {"stimulus": 16, "trial": 39, "rt": 4568, "response": "Gamma"}, "65": {"stimulus": 57, "trial": 65, "rt": 3112, "response": "Alpha"}, "76": {"stimulus": 69, "trial": 76, "rt": 1292, "response": "Alpha"}, "75": {"stimulus": 73, "trial": 75, "rt": 2462, "response": "Beta"}, "38": {"stimulus": 78, "trial": 38, "rt": 2240, "response": "Gamma"}, "73": {"stimulus": 58, "trial": 73, "rt": 2729, "response": "Alpha"}, "72": {"stimulus": 56, "trial": 72, "rt": 1513, "response": "Alpha"}, "71": {"stimulus": 33, "trial": 71, "rt": 1749, "response": "Alpha"}, "70": {"stimulus": 61, "trial": 70, "rt": 2277, "response": "Gamma"}, "59": {"stimulus": 60, "trial": 59, "rt": 1711, "response": "Alpha"}, "79": {"stimulus": 65, "trial": 79, "rt": 854, "response": "Beta"}, "58": {"stimulus": 48, "trial": 58, "rt": 1560, "response": "Alpha"}, "11": {"stimulus": 38, "trial": 11, "rt": 1657, "response": "Alpha"}, "10": {"stimulus": 35, "trial": 10, "rt": 1245, "response": "Gamma"}, "13": {"stimulus": 47, "trial": 13, "rt": 1367, "response": "Beta"}, "12": {"stimulus": 13, "trial": 12, "rt": 2325, "response": "Beta"}, "15": {"stimulus": 12, "trial": 15, "rt": 2622, "response": "Alpha"}, "14": {"stimulus": 4, "trial": 14, "rt": 2221, "response": "Gamma"}, "17": {"stimulus": 37, "trial": 17, "rt": 1132, "response": "Beta"}, "16": {"stimulus": 28, "trial": 16, "rt": 1666, "response": "Beta"}, "19": {"stimulus": 72, "trial": 19, "rt": 1058, "response": "Beta"}, "18": {"stimulus": 11, "trial": 18, "rt": 1607, "response": "Beta"}, "31": {"stimulus": 9, "trial": 31, "rt": 1196, "response": "Beta"}, "30": {"stimulus": 54, "trial": 30, "rt": 1114, "response": "Beta"}, "37": {"stimulus": 50, "trial": 37, "rt": 1582, "response": "Alpha"}, "36": {"stimulus": 43, "trial": 36, "rt": 1795, "response": "Gamma"}, "35": {"stimulus": 67, "trial": 35, "rt": 1039, "response": "Alpha"}, "34": {"stimulus": 6, "trial": 34, "rt": 866, "response": "Alpha"}, "33": {"stimulus": 22, "trial": 33, "rt": 1349, "response": "Alpha"}, "55": {"stimulus": 77, "trial": 55, "rt": 2400, "response": "Alpha"}, "74": {"stimulus": 15, "trial": 74, "rt": 1146, "response": "Alpha"}, "32": {"stimulus": 53, "trial": 32, "rt": 1233, "response": "Gamma"}, "57": {"stimulus": 34, "trial": 57, "rt": 1462, "response": "Gamma"}, "50": {"stimulus": 75, "trial": 50, "rt": 4405, "response": "Beta"}}, "experiment": {"Paradigm": "TACL", "Stimuli": "Size-Color Squares", "Experiment": "Generating-Multiple-Categories"}, "submit": {}}tegories"}, "submit": {}}