{"info": {"finish": 1535402753520, "participant": 177, "exposed": true, "lab": false, "start": 1535402411656, "counterbalance": 1, "gentype": 1, "condition": "Bottom", "browser": {"platform": "Win32", "userAgent": "Mozilla/5.0 (Windows NT 10.0; Win64; x64) AppleWebKit/537.36 (KHTML, like Gecko) Chrome/68.0.3440.106 Safari/537.36"}}, "observation": {"11": {"stimulus": 12, "trial": 11, "rt": 1352}, "10": {"stimulus": 30, "trial": 10, "rt": 1785}, "1": {"stimulus": 12, "trial": 1, "rt": 2240}, "0": {"stimulus": 32, "trial": 0, "rt": 4288}, "3": {"stimulus": 14, "trial": 3, "rt": 2005}, "2": {"stimulus": 30, "trial": 2, "rt": 1908}, "5": {"stimulus": 32, "trial": 5, "rt": 1567}, "4": {"stimulus": 12, "trial": 4, "rt": 2673}, "7": {"stimulus": 14, "trial": 7, "rt": 1623}, "6": {"stimulus": 30, "trial": 6, "rt": 1453}, "9": {"stimulus": 32, "trial": 9, "rt": 13464}, "8": {"stimulus": 14, "trial": 8, "rt": 5745}}, "generation": {"1": {"category": "Beta", "trial": 1, "stimulus": 45, "rt": 6713}, "0": {"category": "Beta", "trial": 0, "stimulus": 55, "rt": 15319}, "3": {"category": "Beta", "trial": 3, "stimulus": 0, "rt": 8245}, "2": {"category": "Beta", "trial": 2, "stimulus": 1, "rt": 5397}, "5": {"category": "Beta", "trial": 5, "stimulus": 63, "rt": 3365}, "4": {"category": "Beta", "trial": 4, "stimulus": 73, "rt": 4542}, "7": {"category": "Beta", "trial": 7, "stimulus": 54, "rt": 5208}, "6": {"category": "Beta", "trial": 6, "stimulus": 64, "rt": 6292}}, "generalization": {"56": {"stimulus": 74, "trial": 56, "rt": 748, "response": "Beta"}, "77": {"stimulus": 22, "trial": 77, "rt": 997, "response": "Alpha"}, "54": {"stimulus": 10, "trial": 54, "rt": 1101, "response": "Alpha"}, "42": {"stimulus": 52, "trial": 42, "rt": 742, "response": "Beta"}, "48": {"stimulus": 34, "trial": 48, "rt": 855, "response": "Beta"}, "43": {"stimulus": 47, "trial": 43, "rt": 879, "response": "Alpha"}, "60": {"stimulus": 11, "trial": 60, "rt": 946, "response": "Alpha"}, "61": {"stimulus": 76, "trial": 61, "rt": 766, "response": "Beta"}, "62": {"stimulus": 35, "trial": 62, "rt": 872, "response": "Beta"}, "63": {"stimulus": 12, "trial": 63, "rt": 1177, "response": "Alpha"}, "64": {"stimulus": 58, "trial": 64, "rt": 902, "response": "Alpha"}, "49": {"stimulus": 0, "trial": 49, "rt": 1493, "response": "Alpha"}, "66": {"stimulus": 50, "trial": 66, "rt": 830, "response": "Alpha"}, "67": {"stimulus": 63, "trial": 67, "rt": 638, "response": "Beta"}, "68": {"stimulus": 64, "trial": 68, "rt": 640, "response": "Beta"}, "69": {"stimulus": 9, "trial": 69, "rt": 674, "response": "Beta"}, "80": {"stimulus": 25, "trial": 80, "rt": 585, "response": "Beta"}, "52": {"stimulus": 8, "trial": 52, "rt": 646, "response": "Beta"}, "53": {"stimulus": 77, "trial": 53, "rt": 1215, "response": "Beta"}, "24": {"stimulus": 30, "trial": 24, "rt": 852, "response": "Alpha"}, "25": {"stimulus": 21, "trial": 25, "rt": 705, "response": "Alpha"}, "26": {"stimulus": 72, "trial": 26, "rt": 823, "response": "Beta"}, "27": {"stimulus": 26, "trial": 27, "rt": 1513, "response": "Beta"}, "20": {"stimulus": 71, "trial": 20, "rt": 799, "response": "Beta"}, "21": {"stimulus": 5, "trial": 21, "rt": 1062, "response": "Beta"}, "22": {"stimulus": 27, "trial": 22, "rt": 1020, "response": "Alpha"}, "23": {"stimulus": 68, "trial": 23, "rt": 995, "response": "Beta"}, "46": {"stimulus": 78, "trial": 46, "rt": 705, "response": "Beta"}, "47": {"stimulus": 18, "trial": 47, "rt": 1060, "response": "Alpha"}, "44": {"stimulus": 59, "trial": 44, "rt": 621, "response": "Beta"}, "45": {"stimulus": 6, "trial": 45, "rt": 605, "response": "Beta"}, "28": {"stimulus": 41, "trial": 28, "rt": 999, "response": "Beta"}, "29": {"stimulus": 19, "trial": 29, "rt": 835, "response": "Alpha"}, "40": {"stimulus": 36, "trial": 40, "rt": 1610, "response": "Beta"}, "41": {"stimulus": 29, "trial": 41, "rt": 998, "response": "Alpha"}, "1": {"stimulus": 53, "trial": 1, "rt": 1219, "response": "Beta"}, "0": {"stimulus": 37, "trial": 0, "rt": 5081, "response": "Alpha"}, "3": {"stimulus": 62, "trial": 3, "rt": 809, "response": "Beta"}, "2": {"stimulus": 17, "trial": 2, "rt": 813, "response": "Beta"}, "5": {"stimulus": 44, "trial": 5, "rt": 2392, "response": "Beta"}, "4": {"stimulus": 16, "trial": 4, "rt": 1107, "response": "Beta"}, "7": {"stimulus": 23, "trial": 7, "rt": 1843, "response": "Beta"}, "6": {"stimulus": 28, "trial": 6, "rt": 1184, "response": "Alpha"}, "9": {"stimulus": 15, "trial": 9, "rt": 802, "response": "Alpha"}, "8": {"stimulus": 31, "trial": 8, "rt": 879, "response": "Alpha"}, "78": {"stimulus": 40, "trial": 78, "rt": 667, "response": "Alpha"}, "51": {"stimulus": 20, "trial": 51, "rt": 971, "response": "Alpha"}, "39": {"stimulus": 7, "trial": 39, "rt": 1266, "response": "Beta"}, "65": {"stimulus": 4, "trial": 65, "rt": 735, "response": "Alpha"}, "76": {"stimulus": 3, "trial": 76, "rt": 1070, "response": "Alpha"}, "75": {"stimulus": 60, "trial": 75, "rt": 639, "response": "Beta"}, "38": {"stimulus": 73, "trial": 38, "rt": 769, "response": "Beta"}, "73": {"stimulus": 45, "trial": 73, "rt": 883, "response": "Beta"}, "72": {"stimulus": 43, "trial": 72, "rt": 658, "response": "Beta"}, "71": {"stimulus": 13, "trial": 71, "rt": 787, "response": "Alpha"}, "70": {"stimulus": 66, "trial": 70, "rt": 618, "response": "Beta"}, "59": {"stimulus": 33, "trial": 59, "rt": 1027, "response": "Alpha"}, "79": {"stimulus": 80, "trial": 79, "rt": 583, "response": "Beta"}, "58": {"stimulus": 32, "trial": 58, "rt": 736, "response": "Alpha"}, "11": {"stimulus": 54, "trial": 11, "rt": 1338, "response": "Beta"}, "10": {"stimulus": 57, "trial": 10, "rt": 1166, "response": "Alpha"}, "13": {"stimulus": 1, "trial": 13, "rt": 782, "response": "Alpha"}, "12": {"stimulus": 24, "trial": 12, "rt": 1093, "response": "Beta"}, "15": {"stimulus": 61, "trial": 15, "rt": 843, "response": "Beta"}, "14": {"stimulus": 65, "trial": 14, "rt": 1076, "response": "Beta"}, "17": {"stimulus": 48, "trial": 17, "rt": 1239, "response": "Beta"}, "16": {"stimulus": 2, "trial": 16, "rt": 827, "response": "Alpha"}, "19": {"stimulus": 67, "trial": 19, "rt": 786, "response": "Beta"}, "18": {"stimulus": 70, "trial": 18, "rt": 825, "response": "Beta"}, "31": {"stimulus": 49, "trial": 31, "rt": 1779, "response": "Alpha"}, "30": {"stimulus": 51, "trial": 30, "rt": 1061, "response": "Beta"}, "37": {"stimulus": 56, "trial": 37, "rt": 1387, "response": "Beta"}, "36": {"stimulus": 42, "trial": 36, "rt": 1027, "response": "Beta"}, "35": {"stimulus": 39, "trial": 35, "rt": 817, "response": "Alpha"}, "34": {"stimulus": 55, "trial": 34, "rt": 1293, "response": "Beta"}, "33": {"stimulus": 75, "trial": 33, "rt": 940, "response": "Beta"}, "55": {"stimulus": 38, "trial": 55, "rt": 1433, "response": "Alpha"}, "74": {"stimulus": 79, "trial": 74, "rt": 780, "response": "Beta"}, "32": {"stimulus": 46, "trial": 32, "rt": 1495, "response": "Beta"}, "57": {"stimulus": 14, "trial": 57, "rt": 840, "response": "Alpha"}, "50": {"stimulus": 69, "trial": 50, "rt": 707, "response": "Beta"}}, "experiment": {"Paradigm": "TACL", "Stimuli": "Size-Color Squares", "Experiment": "Generating-Multiple-Categories"}, "submit": {"timeTotal": 342309, "age": "38", "comments": "", "sex": "male"}}