{"info": {"finish": 1535406042572, "participant": 182, "exposed": true, "lab": false, "start": 1535405700875, "counterbalance": 3, "gentype": 0, "condition": "Bottom", "browser": {"platform": "MacIntel", "userAgent": "Mozilla/5.0 (Macintosh; Intel Mac OS X 10.11; rv:61.0) Gecko/20100101 Firefox/61.0"}}, "observation": {"11": {"stimulus": 12, "trial": 11, "rt": 1700}, "10": {"stimulus": 14, "trial": 10, "rt": 1549}, "1": {"stimulus": 32, "trial": 1, "rt": 1962}, "0": {"stimulus": 12, "trial": 0, "rt": 2135}, "3": {"stimulus": 14, "trial": 3, "rt": 1646}, "2": {"stimulus": 30, "trial": 2, "rt": 1879}, "5": {"stimulus": 30, "trial": 5, "rt": 1686}, "4": {"stimulus": 12, "trial": 4, "rt": 3216}, "7": {"stimulus": 14, "trial": 7, "rt": 2273}, "6": {"stimulus": 32, "trial": 6, "rt": 1636}, "9": {"stimulus": 30, "trial": 9, "rt": 2005}, "8": {"stimulus": 32, "trial": 8, "rt": 2671}}, "generation": {"1": {"category": "Not-Alpha", "trial": 1, "stimulus": 61, "rt": 10331}, "0": {"category": "Not-Alpha", "trial": 0, "stimulus": 79, "rt": 13855}, "3": {"category": "Not-Alpha", "trial": 3, "stimulus": 8, "rt": 4184}, "2": {"category": "Not-Alpha", "trial": 2, "stimulus": 0, "rt": 4980}, "5": {"category": "Not-Alpha", "trial": 5, "stimulus": 80, "rt": 4397}, "4": {"category": "Not-Alpha", "trial": 4, "stimulus": 72, "rt": 6117}, "7": {"category": "Not-Alpha", "trial": 7, "stimulus": 53, "rt": 3551}, "6": {"category": "Not-Alpha", "trial": 6, "stimulus": 35, "rt": 2408}}, "generalization": {"56": {"stimulus": 24, "trial": 56, "rt": 1635, "response": "Beta"}, "77": {"stimulus": 0, "trial": 77, "rt": 837, "response": "Beta"}, "54": {"stimulus": 27, "trial": 54, "rt": 1275, "response": "Beta"}, "42": {"stimulus": 64, "trial": 42, "rt": 726, "response": "Beta"}, "48": {"stimulus": 22, "trial": 48, "rt": 603, "response": "Alpha"}, "43": {"stimulus": 29, "trial": 43, "rt": 1793, "response": "Beta"}, "60": {"stimulus": 78, "trial": 60, "rt": 634, "response": "Beta"}, "61": {"stimulus": 59, "trial": 61, "rt": 805, "response": "Beta"}, "62": {"stimulus": 31, "trial": 62, "rt": 1204, "response": "Alpha"}, "63": {"stimulus": 4, "trial": 63, "rt": 735, "response": "Alpha"}, "64": {"stimulus": 11, "trial": 64, "rt": 666, "response": "Alpha"}, "49": {"stimulus": 41, "trial": 49, "rt": 611, "response": "Alpha"}, "66": {"stimulus": 40, "trial": 66, "rt": 4904, "response": "Alpha"}, "67": {"stimulus": 46, "trial": 67, "rt": 945, "response": "Beta"}, "68": {"stimulus": 14, "trial": 68, "rt": 1065, "response": "Alpha"}, "69": {"stimulus": 73, "trial": 69, "rt": 742, "response": "Beta"}, "80": {"stimulus": 36, "trial": 80, "rt": 759, "response": "Beta"}, "52": {"stimulus": 33, "trial": 52, "rt": 1078, "response": "Alpha"}, "53": {"stimulus": 77, "trial": 53, "rt": 788, "response": "Beta"}, "24": {"stimulus": 18, "trial": 24, "rt": 946, "response": "Alpha"}, "25": {"stimulus": 45, "trial": 25, "rt": 2706, "response": "Beta"}, "26": {"stimulus": 12, "trial": 26, "rt": 1001, "response": "Alpha"}, "27": {"stimulus": 20, "trial": 27, "rt": 618, "response": "Alpha"}, "20": {"stimulus": 67, "trial": 20, "rt": 784, "response": "Beta"}, "21": {"stimulus": 74, "trial": 21, "rt": 770, "response": "Beta"}, "22": {"stimulus": 58, "trial": 22, "rt": 1137, "response": "Beta"}, "23": {"stimulus": 63, "trial": 23, "rt": 903, "response": "Beta"}, "46": {"stimulus": 30, "trial": 46, "rt": 995, "response": "Alpha"}, "47": {"stimulus": 32, "trial": 47, "rt": 797, "response": "Alpha"}, "44": {"stimulus": 50, "trial": 44, "rt": 2210, "response": "Alpha"}, "45": {"stimulus": 65, "trial": 45, "rt": 719, "response": "Beta"}, "28": {"stimulus": 70, "trial": 28, "rt": 866, "response": "Beta"}, "29": {"stimulus": 71, "trial": 29, "rt": 879, "response": "Beta"}, "40": {"stimulus": 60, "trial": 40, "rt": 1035, "response": "Beta"}, "41": {"stimulus": 80, "trial": 41, "rt": 586, "response": "Beta"}, "1": {"stimulus": 5, "trial": 1, "rt": 1023, "response": "Alpha"}, "0": {"stimulus": 44, "trial": 0, "rt": 1310, "response": "Beta"}, "3": {"stimulus": 43, "trial": 3, "rt": 1374, "response": "Beta"}, "2": {"stimulus": 53, "trial": 2, "rt": 1234, "response": "Beta"}, "5": {"stimulus": 2, "trial": 5, "rt": 955, "response": "Alpha"}, "4": {"stimulus": 48, "trial": 4, "rt": 2611, "response": "Beta"}, "7": {"stimulus": 3, "trial": 7, "rt": 694, "response": "Alpha"}, "6": {"stimulus": 21, "trial": 6, "rt": 649, "response": "Alpha"}, "9": {"stimulus": 28, "trial": 9, "rt": 1096, "response": "Alpha"}, "8": {"stimulus": 49, "trial": 8, "rt": 1033, "response": "Beta"}, "78": {"stimulus": 55, "trial": 78, "rt": 1033, "response": "Beta"}, "51": {"stimulus": 47, "trial": 51, "rt": 1029, "response": "Beta"}, "39": {"stimulus": 69, "trial": 39, "rt": 1516, "response": "Beta"}, "65": {"stimulus": 51, "trial": 65, "rt": 1440, "response": "Beta"}, "76": {"stimulus": 9, "trial": 76, "rt": 586, "response": "Alpha"}, "75": {"stimulus": 13, "trial": 75, "rt": 720, "response": "Alpha"}, "38": {"stimulus": 42, "trial": 38, "rt": 1065, "response": "Alpha"}, "73": {"stimulus": 34, "trial": 73, "rt": 901, "response": "Beta"}, "72": {"stimulus": 6, "trial": 72, "rt": 1460, "response": "Beta"}, "71": {"stimulus": 16, "trial": 71, "rt": 847, "response": "Beta"}, "70": {"stimulus": 19, "trial": 70, "rt": 1071, "response": "Alpha"}, "59": {"stimulus": 17, "trial": 59, "rt": 768, "response": "Beta"}, "79": {"stimulus": 39, "trial": 79, "rt": 1126, "response": "Beta"}, "58": {"stimulus": 56, "trial": 58, "rt": 821, "response": "Beta"}, "11": {"stimulus": 52, "trial": 11, "rt": 1388, "response": "Beta"}, "10": {"stimulus": 79, "trial": 10, "rt": 1013, "response": "Beta"}, "13": {"stimulus": 7, "trial": 13, "rt": 1236, "response": "Beta"}, "12": {"stimulus": 38, "trial": 12, "rt": 1057, "response": "Alpha"}, "15": {"stimulus": 62, "trial": 15, "rt": 1163, "response": "Beta"}, "14": {"stimulus": 8, "trial": 14, "rt": 1118, "response": "Beta"}, "17": {"stimulus": 15, "trial": 17, "rt": 1455, "response": "Beta"}, "16": {"stimulus": 37, "trial": 16, "rt": 3063, "response": "Alpha"}, "19": {"stimulus": 57, "trial": 19, "rt": 1094, "response": "Beta"}, "18": {"stimulus": 75, "trial": 18, "rt": 1892, "response": "Beta"}, "31": {"stimulus": 26, "trial": 31, "rt": 1112, "response": "Beta"}, "30": {"stimulus": 1, "trial": 30, "rt": 1447, "response": "Alpha"}, "37": {"stimulus": 35, "trial": 37, "rt": 1855, "response": "Beta"}, "36": {"stimulus": 76, "trial": 36, "rt": 1310, "response": "Beta"}, "35": {"stimulus": 10, "trial": 35, "rt": 1119, "response": "Alpha"}, "34": {"stimulus": 61, "trial": 34, "rt": 711, "response": "Beta"}, "33": {"stimulus": 66, "trial": 33, "rt": 636, "response": "Beta"}, "55": {"stimulus": 72, "trial": 55, "rt": 1176, "response": "Beta"}, "74": {"stimulus": 25, "trial": 74, "rt": 648, "response": "Beta"}, "32": {"stimulus": 54, "trial": 32, "rt": 910, "response": "Beta"}, "57": {"stimulus": 23, "trial": 57, "rt": 1775, "response": "Beta"}, "50": {"stimulus": 68, "trial": 50, "rt": 909, "response": "Beta"}}, "experiment": {"Paradigm": "TACL", "Stimuli": "Size-Color Squares", "Experiment": "Generating-Multiple-Categories"}, "submit": {"timeTotal": 342375, "age": "28", "comments": "", "sex": "female"}}