{"info": {"finish": 1534981733371, "participant": 19, "exposed": true, "lab": false, "start": 1534981513457, "counterbalance": 1, "gentype": 0, "condition": "Middle", "browser": {"platform": "Win32", "userAgent": "Mozilla/5.0 (Windows NT 10.0; Win64; x64) AppleWebKit/537.36 (KHTML, like Gecko) Chrome/68.0.3440.106 Safari/537.36"}}, "observation": {"11": {"stimulus": 30, "trial": 11, "rt": 1367}, "10": {"stimulus": 32, "trial": 10, "rt": 1115}, "1": {"stimulus": 32, "trial": 1, "rt": 1444}, "0": {"stimulus": 50, "trial": 0, "rt": 1646}, "3": {"stimulus": 48, "trial": 3, "rt": 1663}, "2": {"stimulus": 30, "trial": 2, "rt": 1107}, "5": {"stimulus": 48, "trial": 5, "rt": 1374}, "4": {"stimulus": 32, "trial": 4, "rt": 1834}, "7": {"stimulus": 30, "trial": 7, "rt": 1444}, "6": {"stimulus": 50, "trial": 6, "rt": 1187}, "9": {"stimulus": 48, "trial": 9, "rt": 1469}, "8": {"stimulus": 50, "trial": 8, "rt": 1272}}, "generation": {"1": {"category": "Not-Alpha", "trial": 1, "stimulus": 22, "rt": 6204}, "0": {"category": "Not-Alpha", "trial": 0, "stimulus": 31, "rt": 6192}, "3": {"category": "Not-Alpha", "trial": 3, "stimulus": 40, "rt": 6191}, "2": {"category": "Not-Alpha", "trial": 2, "stimulus": 49, "rt": 2679}, "5": {"category": "Not-Alpha", "trial": 5, "stimulus": 41, "rt": 4711}, "4": {"category": "Not-Alpha", "trial": 4, "stimulus": 39, "rt": 3749}, "7": {"category": "Not-Alpha", "trial": 7, "stimulus": 55, "rt": 5100}, "6": {"category": "Not-Alpha", "trial": 6, "stimulus": 2, "rt": 3310}}, "generalization": {"56": {"stimulus": 55, "trial": 56, "rt": 1281, "response": "Beta"}, "77": {"stimulus": 39, "trial": 77, "rt": 140, "response": "Alpha"}, "54": {"stimulus": 31, "trial": 54, "rt": 187, "response": "Beta"}, "42": {"stimulus": 32, "trial": 42, "rt": 3265, "response": "Beta"}, "48": {"stimulus": 46, "trial": 48, "rt": 1023, "response": "Alpha"}, "43": {"stimulus": 24, "trial": 43, "rt": 302, "response": "Alpha"}, "60": {"stimulus": 70, "trial": 60, "rt": 493, "response": "Beta"}, "61": {"stimulus": 15, "trial": 61, "rt": 1169, "response": "Beta"}, "62": {"stimulus": 47, "trial": 62, "rt": 884, "response": "Alpha"}, "63": {"stimulus": 35, "trial": 63, "rt": 764, "response": "Beta"}, "64": {"stimulus": 21, "trial": 64, "rt": 975, "response": "Alpha"}, "49": {"stimulus": 23, "trial": 49, "rt": 843, "response": "Beta"}, "66": {"stimulus": 5, "trial": 66, "rt": 865, "response": "Alpha"}, "67": {"stimulus": 2, "trial": 67, "rt": 270, "response": "Beta"}, "68": {"stimulus": 76, "trial": 68, "rt": 210, "response": "Beta"}, "69": {"stimulus": 6, "trial": 69, "rt": 249, "response": "Beta"}, "80": {"stimulus": 68, "trial": 80, "rt": 320, "response": "Alpha"}, "52": {"stimulus": 37, "trial": 52, "rt": 147, "response": "Alpha"}, "53": {"stimulus": 33, "trial": 53, "rt": 136, "response": "Beta"}, "24": {"stimulus": 7, "trial": 24, "rt": 523, "response": "Alpha"}, "25": {"stimulus": 60, "trial": 25, "rt": 671, "response": "Beta"}, "26": {"stimulus": 74, "trial": 26, "rt": 1325, "response": "Beta"}, "27": {"stimulus": 0, "trial": 27, "rt": 272, "response": "Alpha"}, "20": {"stimulus": 14, "trial": 20, "rt": 202, "response": "Beta"}, "21": {"stimulus": 54, "trial": 21, "rt": 257, "response": "Beta"}, "22": {"stimulus": 52, "trial": 22, "rt": 293, "response": "Alpha"}, "23": {"stimulus": 77, "trial": 23, "rt": 302, "response": "Beta"}, "46": {"stimulus": 9, "trial": 46, "rt": 124, "response": "Beta"}, "47": {"stimulus": 56, "trial": 47, "rt": 356, "response": "Beta"}, "44": {"stimulus": 41, "trial": 44, "rt": 258, "response": "Beta"}, "45": {"stimulus": 63, "trial": 45, "rt": 231, "response": "Alpha"}, "28": {"stimulus": 42, "trial": 28, "rt": 187, "response": "Beta"}, "29": {"stimulus": 1, "trial": 29, "rt": 265, "response": "Alpha"}, "40": {"stimulus": 12, "trial": 40, "rt": 514, "response": "Alpha"}, "41": {"stimulus": 65, "trial": 41, "rt": 117, "response": "Beta"}, "1": {"stimulus": 25, "trial": 1, "rt": 1856, "response": "Alpha"}, "0": {"stimulus": 29, "trial": 0, "rt": 1186, "response": "Alpha"}, "3": {"stimulus": 79, "trial": 3, "rt": 257, "response": "Alpha"}, "2": {"stimulus": 16, "trial": 2, "rt": 2958, "response": "Beta"}, "5": {"stimulus": 26, "trial": 5, "rt": 2083, "response": "Beta"}, "4": {"stimulus": 57, "trial": 4, "rt": 226, "response": "Alpha"}, "7": {"stimulus": 19, "trial": 7, "rt": 278, "response": "Beta"}, "6": {"stimulus": 18, "trial": 6, "rt": 117, "response": "Alpha"}, "9": {"stimulus": 45, "trial": 9, "rt": 271, "response": "Alpha"}, "8": {"stimulus": 51, "trial": 8, "rt": 71, "response": "Alpha"}, "78": {"stimulus": 53, "trial": 78, "rt": 300, "response": "Beta"}, "51": {"stimulus": 73, "trial": 51, "rt": 1523, "response": "Beta"}, "39": {"stimulus": 66, "trial": 39, "rt": 324, "response": "Beta"}, "65": {"stimulus": 50, "trial": 65, "rt": 311, "response": "Beta"}, "76": {"stimulus": 58, "trial": 76, "rt": 138, "response": "Beta"}, "75": {"stimulus": 4, "trial": 75, "rt": 179, "response": "Beta"}, "38": {"stimulus": 64, "trial": 38, "rt": 109, "response": "Alpha"}, "73": {"stimulus": 20, "trial": 73, "rt": 264, "response": "Beta"}, "72": {"stimulus": 13, "trial": 72, "rt": 122, "response": "Beta"}, "71": {"stimulus": 80, "trial": 71, "rt": 297, "response": "Alpha"}, "70": {"stimulus": 67, "trial": 70, "rt": 303, "response": "Beta"}, "59": {"stimulus": 22, "trial": 59, "rt": 490, "response": "Alpha"}, "79": {"stimulus": 10, "trial": 79, "rt": 711, "response": "Alpha"}, "58": {"stimulus": 11, "trial": 58, "rt": 287, "response": "Beta"}, "11": {"stimulus": 8, "trial": 11, "rt": 2598, "response": "Beta"}, "10": {"stimulus": 72, "trial": 10, "rt": 507, "response": "Alpha"}, "13": {"stimulus": 69, "trial": 13, "rt": 148, "response": "Alpha"}, "12": {"stimulus": 36, "trial": 12, "rt": 155, "response": "Beta"}, "15": {"stimulus": 43, "trial": 15, "rt": 288, "response": "Alpha"}, "14": {"stimulus": 17, "trial": 14, "rt": 952, "response": "Beta"}, "17": {"stimulus": 78, "trial": 17, "rt": 233, "response": "Beta"}, "16": {"stimulus": 44, "trial": 16, "rt": 185, "response": "Beta"}, "19": {"stimulus": 34, "trial": 19, "rt": 200, "response": "Beta"}, "18": {"stimulus": 48, "trial": 18, "rt": 273, "response": "Alpha"}, "31": {"stimulus": 75, "trial": 31, "rt": 669, "response": "Beta"}, "30": {"stimulus": 71, "trial": 30, "rt": 734, "response": "Beta"}, "37": {"stimulus": 27, "trial": 37, "rt": 294, "response": "Beta"}, "36": {"stimulus": 62, "trial": 36, "rt": 295, "response": "Beta"}, "35": {"stimulus": 61, "trial": 35, "rt": 108, "response": "Beta"}, "34": {"stimulus": 40, "trial": 34, "rt": 381, "response": "Alpha"}, "33": {"stimulus": 3, "trial": 33, "rt": 280, "response": "Beta"}, "55": {"stimulus": 49, "trial": 55, "rt": 1490, "response": "Alpha"}, "74": {"stimulus": 38, "trial": 74, "rt": 195, "response": "Alpha"}, "32": {"stimulus": 59, "trial": 32, "rt": 261, "response": "Alpha"}, "57": {"stimulus": 28, "trial": 57, "rt": 249, "response": "Alpha"}, "50": {"stimulus": 30, "trial": 50, "rt": 1164, "response": "Alpha"}}, "experiment": {"Paradigm": "TACL", "Stimuli": "Size-Color Squares", "Experiment": "Generating-Multiple-Categories"}, "submit": {"timeTotal": 220289, "age": "28", "comments": "", "sex": "m"}}