{"info": {"finish": 1534981792111, "participant": 20, "exposed": true, "lab": false, "start": 1534981515536, "counterbalance": 5, "gentype": 0, "condition": "Middle", "browser": {"platform": "Win64", "userAgent": "Mozilla/5.0 (Windows NT 6.1; Win64; x64; rv:61.0) Gecko/20100101 Firefox/61.0"}}, "observation": {"11": {"stimulus": 30, "trial": 11, "rt": 1574}, "10": {"stimulus": 50, "trial": 10, "rt": 2222}, "1": {"stimulus": 48, "trial": 1, "rt": 1734}, "0": {"stimulus": 50, "trial": 0, "rt": 2638}, "3": {"stimulus": 32, "trial": 3, "rt": 1423}, "2": {"stimulus": 30, "trial": 2, "rt": 1617}, "5": {"stimulus": 30, "trial": 5, "rt": 1397}, "4": {"stimulus": 50, "trial": 4, "rt": 1375}, "7": {"stimulus": 48, "trial": 7, "rt": 1376}, "6": {"stimulus": 32, "trial": 6, "rt": 1372}, "9": {"stimulus": 32, "trial": 9, "rt": 1519}, "8": {"stimulus": 48, "trial": 8, "rt": 1441}}, "generation": {"1": {"category": "Not-Alpha", "trial": 1, "stimulus": 62, "rt": 6103}, "0": {"category": "Not-Alpha", "trial": 0, "stimulus": 80, "rt": 19491}, "3": {"category": "Not-Alpha", "trial": 3, "stimulus": 44, "rt": 3406}, "2": {"category": "Not-Alpha", "trial": 2, "stimulus": 53, "rt": 3190}, "5": {"category": "Not-Alpha", "trial": 5, "stimulus": 26, "rt": 4732}, "4": {"category": "Not-Alpha", "trial": 4, "stimulus": 35, "rt": 3539}, "7": {"category": "Not-Alpha", "trial": 7, "stimulus": 8, "rt": 3238}, "6": {"category": "Not-Alpha", "trial": 6, "stimulus": 17, "rt": 3190}}, "generalization": {"56": {"stimulus": 63, "trial": 56, "rt": 580, "response": "Alpha"}, "77": {"stimulus": 2, "trial": 77, "rt": 446, "response": "Alpha"}, "54": {"stimulus": 13, "trial": 54, "rt": 612, "response": "Alpha"}, "42": {"stimulus": 50, "trial": 42, "rt": 1618, "response": "Alpha"}, "48": {"stimulus": 65, "trial": 48, "rt": 696, "response": "Alpha"}, "43": {"stimulus": 18, "trial": 43, "rt": 567, "response": "Alpha"}, "60": {"stimulus": 11, "trial": 60, "rt": 817, "response": "Alpha"}, "61": {"stimulus": 78, "trial": 61, "rt": 884, "response": "Beta"}, "62": {"stimulus": 42, "trial": 62, "rt": 866, "response": "Beta"}, "63": {"stimulus": 58, "trial": 63, "rt": 795, "response": "Alpha"}, "64": {"stimulus": 60, "trial": 64, "rt": 739, "response": "Beta"}, "49": {"stimulus": 48, "trial": 49, "rt": 494, "response": "Alpha"}, "66": {"stimulus": 79, "trial": 66, "rt": 729, "response": "Beta"}, "67": {"stimulus": 14, "trial": 67, "rt": 869, "response": "Alpha"}, "68": {"stimulus": 9, "trial": 68, "rt": 511, "response": "Alpha"}, "69": {"stimulus": 80, "trial": 69, "rt": 926, "response": "Beta"}, "80": {"stimulus": 3, "trial": 80, "rt": 480, "response": "Alpha"}, "52": {"stimulus": 26, "trial": 52, "rt": 699, "response": "Beta"}, "53": {"stimulus": 44, "trial": 53, "rt": 557, "response": "Beta"}, "24": {"stimulus": 20, "trial": 24, "rt": 479, "response": "Alpha"}, "25": {"stimulus": 54, "trial": 25, "rt": 549, "response": "Alpha"}, "26": {"stimulus": 12, "trial": 26, "rt": 597, "response": "Alpha"}, "27": {"stimulus": 64, "trial": 27, "rt": 532, "response": "Alpha"}, "20": {"stimulus": 59, "trial": 20, "rt": 1535, "response": "Alpha"}, "21": {"stimulus": 6, "trial": 21, "rt": 755, "response": "Beta"}, "22": {"stimulus": 66, "trial": 22, "rt": 658, "response": "Alpha"}, "23": {"stimulus": 41, "trial": 23, "rt": 1062, "response": "Beta"}, "46": {"stimulus": 10, "trial": 46, "rt": 1376, "response": "Alpha"}, "47": {"stimulus": 33, "trial": 47, "rt": 898, "response": "Beta"}, "44": {"stimulus": 21, "trial": 44, "rt": 659, "response": "Alpha"}, "45": {"stimulus": 75, "trial": 45, "rt": 464, "response": "Alpha"}, "28": {"stimulus": 15, "trial": 28, "rt": 1049, "response": "Beta"}, "29": {"stimulus": 19, "trial": 29, "rt": 758, "response": "Alpha"}, "40": {"stimulus": 17, "trial": 40, "rt": 719, "response": "Beta"}, "41": {"stimulus": 53, "trial": 41, "rt": 492, "response": "Beta"}, "1": {"stimulus": 25, "trial": 1, "rt": 1014, "response": "Beta"}, "0": {"stimulus": 56, "trial": 0, "rt": 1311, "response": "Alpha"}, "3": {"stimulus": 73, "trial": 3, "rt": 773, "response": "Alpha"}, "2": {"stimulus": 43, "trial": 2, "rt": 770, "response": "Beta"}, "5": {"stimulus": 47, "trial": 5, "rt": 584, "response": "Alpha"}, "4": {"stimulus": 67, "trial": 4, "rt": 1041, "response": "Alpha"}, "7": {"stimulus": 46, "trial": 7, "rt": 485, "response": "Alpha"}, "6": {"stimulus": 29, "trial": 6, "rt": 457, "response": "Alpha"}, "9": {"stimulus": 8, "trial": 9, "rt": 759, "response": "Beta"}, "8": {"stimulus": 22, "trial": 8, "rt": 1448, "response": "Alpha"}, "78": {"stimulus": 31, "trial": 78, "rt": 515, "response": "Alpha"}, "51": {"stimulus": 55, "trial": 51, "rt": 756, "response": "Alpha"}, "39": {"stimulus": 23, "trial": 39, "rt": 991, "response": "Alpha"}, "65": {"stimulus": 35, "trial": 65, "rt": 631, "response": "Beta"}, "76": {"stimulus": 72, "trial": 76, "rt": 700, "response": "Alpha"}, "75": {"stimulus": 34, "trial": 75, "rt": 507, "response": "Beta"}, "38": {"stimulus": 40, "trial": 38, "rt": 942, "response": "Alpha"}, "73": {"stimulus": 38, "trial": 73, "rt": 837, "response": "Alpha"}, "72": {"stimulus": 62, "trial": 72, "rt": 644, "response": "Beta"}, "71": {"stimulus": 52, "trial": 71, "rt": 822, "response": "Beta"}, "70": {"stimulus": 68, "trial": 70, "rt": 827, "response": "Alpha"}, "59": {"stimulus": 61, "trial": 59, "rt": 1012, "response": "Beta"}, "79": {"stimulus": 1, "trial": 79, "rt": 443, "response": "Alpha"}, "58": {"stimulus": 57, "trial": 58, "rt": 630, "response": "Alpha"}, "11": {"stimulus": 77, "trial": 11, "rt": 2285, "response": "Beta"}, "10": {"stimulus": 27, "trial": 10, "rt": 717, "response": "Alpha"}, "13": {"stimulus": 32, "trial": 13, "rt": 690, "response": "Beta"}, "12": {"stimulus": 69, "trial": 12, "rt": 784, "response": "Beta"}, "15": {"stimulus": 51, "trial": 15, "rt": 740, "response": "Beta"}, "14": {"stimulus": 39, "trial": 14, "rt": 968, "response": "Alpha"}, "17": {"stimulus": 28, "trial": 17, "rt": 735, "response": "Alpha"}, "16": {"stimulus": 5, "trial": 16, "rt": 802, "response": "Beta"}, "19": {"stimulus": 74, "trial": 19, "rt": 710, "response": "Alpha"}, "18": {"stimulus": 24, "trial": 18, "rt": 817, "response": "Beta"}, "31": {"stimulus": 36, "trial": 31, "rt": 494, "response": "Alpha"}, "30": {"stimulus": 45, "trial": 30, "rt": 518, "response": "Alpha"}, "37": {"stimulus": 71, "trial": 37, "rt": 525, "response": "Beta"}, "36": {"stimulus": 16, "trial": 36, "rt": 867, "response": "Beta"}, "35": {"stimulus": 37, "trial": 35, "rt": 517, "response": "Alpha"}, "34": {"stimulus": 49, "trial": 34, "rt": 635, "response": "Alpha"}, "33": {"stimulus": 30, "trial": 33, "rt": 496, "response": "Alpha"}, "55": {"stimulus": 0, "trial": 55, "rt": 849, "response": "Alpha"}, "74": {"stimulus": 70, "trial": 74, "rt": 715, "response": "Beta"}, "32": {"stimulus": 76, "trial": 32, "rt": 1155, "response": "Alpha"}, "57": {"stimulus": 4, "trial": 57, "rt": 912, "response": "Alpha"}, "50": {"stimulus": 7, "trial": 50, "rt": 777, "response": "Beta"}}, "experiment": {"Paradigm": "TACL", "Stimuli": "Size-Color Squares", "Experiment": "Generating-Multiple-Categories"}, "submit": {"timeTotal": 276756, "age": "31", "comments": "", "sex": "male"}}