{"info": {"finish": 1534982310034, "participant": 22, "exposed": true, "lab": false, "start": 1534981534042, "counterbalance": 3, "gentype": 0, "condition": "Middle", "browser": {"platform": "Win32", "userAgent": "Mozilla/5.0 (Windows NT 10.0; Win64; x64) AppleWebKit/537.36 (KHTML, like Gecko) Chrome/68.0.3440.106 Safari/537.36"}}, "observation": {"11": {"stimulus": 30, "trial": 11, "rt": 4442}, "10": {"stimulus": 48, "trial": 10, "rt": 29104}, "1": {"stimulus": 50, "trial": 1, "rt": 3051}, "0": {"stimulus": 30, "trial": 0, "rt": 3047}, "3": {"stimulus": 48, "trial": 3, "rt": 2544}, "2": {"stimulus": 32, "trial": 2, "rt": 2366}, "5": {"stimulus": 50, "trial": 5, "rt": 2452}, "4": {"stimulus": 48, "trial": 4, "rt": 2031}, "7": {"stimulus": 30, "trial": 7, "rt": 2053}, "6": {"stimulus": 32, "trial": 6, "rt": 2618}, "9": {"stimulus": 50, "trial": 9, "rt": 2058}, "8": {"stimulus": 32, "trial": 8, "rt": 2116}}, "generation": {"1": {"category": "Not-Alpha", "trial": 1, "stimulus": 8, "rt": 7397}, "0": {"category": "Not-Alpha", "trial": 0, "stimulus": 76, "rt": 22129}, "3": {"category": "Not-Alpha", "trial": 3, "stimulus": 58, "rt": 6854}, "2": {"category": "Not-Alpha", "trial": 2, "stimulus": 0, "rt": 3636}, "5": {"category": "Not-Alpha", "trial": 5, "stimulus": 54, "rt": 6570}, "4": {"category": "Not-Alpha", "trial": 4, "stimulus": 7, "rt": 7662}, "7": {"category": "Not-Alpha", "trial": 7, "stimulus": 77, "rt": 72337}, "6": {"category": "Not-Alpha", "trial": 6, "stimulus": 62, "rt": 6955}}, "generalization": {"56": {"stimulus": 78, "trial": 56, "rt": 795, "response": "Beta"}, "77": {"stimulus": 2, "trial": 77, "rt": 1001, "response": "Beta"}, "54": {"stimulus": 40, "trial": 54, "rt": 1615, "response": "Alpha"}, "42": {"stimulus": 66, "trial": 42, "rt": 3303, "response": "Alpha"}, "48": {"stimulus": 34, "trial": 48, "rt": 820, "response": "Alpha"}, "43": {"stimulus": 80, "trial": 43, "rt": 1081, "response": "Beta"}, "60": {"stimulus": 28, "trial": 60, "rt": 1103, "response": "Alpha"}, "61": {"stimulus": 67, "trial": 61, "rt": 8941, "response": "Beta"}, "62": {"stimulus": 72, "trial": 62, "rt": 1619, "response": "Beta"}, "63": {"stimulus": 13, "trial": 63, "rt": 1470, "response": "Beta"}, "64": {"stimulus": 73, "trial": 64, "rt": 1239, "response": "Beta"}, "49": {"stimulus": 55, "trial": 49, "rt": 1082, "response": "Alpha"}, "66": {"stimulus": 5, "trial": 66, "rt": 1004, "response": "Beta"}, "67": {"stimulus": 69, "trial": 67, "rt": 1683, "response": "Alpha"}, "68": {"stimulus": 10, "trial": 68, "rt": 910, "response": "Beta"}, "69": {"stimulus": 35, "trial": 69, "rt": 1399, "response": "Alpha"}, "80": {"stimulus": 57, "trial": 80, "rt": 1273, "response": "Alpha"}, "52": {"stimulus": 7, "trial": 52, "rt": 1123, "response": "Beta"}, "53": {"stimulus": 0, "trial": 53, "rt": 938, "response": "Beta"}, "24": {"stimulus": 27, "trial": 24, "rt": 959, "response": "Alpha"}, "25": {"stimulus": 47, "trial": 25, "rt": 1676, "response": "Alpha"}, "26": {"stimulus": 58, "trial": 26, "rt": 1595, "response": "Beta"}, "27": {"stimulus": 8, "trial": 27, "rt": 5416, "response": "Beta"}, "20": {"stimulus": 14, "trial": 20, "rt": 1062, "response": "Beta"}, "21": {"stimulus": 29, "trial": 21, "rt": 3905, "response": "Beta"}, "22": {"stimulus": 77, "trial": 22, "rt": 1530, "response": "Beta"}, "23": {"stimulus": 21, "trial": 23, "rt": 2710, "response": "Alpha"}, "46": {"stimulus": 76, "trial": 46, "rt": 893, "response": "Beta"}, "47": {"stimulus": 37, "trial": 47, "rt": 1396, "response": "Beta"}, "44": {"stimulus": 79, "trial": 44, "rt": 3390, "response": "Beta"}, "45": {"stimulus": 70, "trial": 45, "rt": 1143, "response": "Beta"}, "28": {"stimulus": 38, "trial": 28, "rt": 10435, "response": "Alpha"}, "29": {"stimulus": 45, "trial": 29, "rt": 1297, "response": "Alpha"}, "40": {"stimulus": 39, "trial": 40, "rt": 1208, "response": "Alpha"}, "41": {"stimulus": 16, "trial": 41, "rt": 4687, "response": "Alpha"}, "1": {"stimulus": 36, "trial": 1, "rt": 2252, "response": "Alpha"}, "0": {"stimulus": 75, "trial": 0, "rt": 155021, "response": "Beta"}, "3": {"stimulus": 32, "trial": 3, "rt": 2583, "response": "Alpha"}, "2": {"stimulus": 3, "trial": 2, "rt": 1299, "response": "Beta"}, "5": {"stimulus": 59, "trial": 5, "rt": 1604, "response": "Beta"}, "4": {"stimulus": 65, "trial": 4, "rt": 1238, "response": "Beta"}, "7": {"stimulus": 4, "trial": 7, "rt": 12985, "response": "Beta"}, "6": {"stimulus": 25, "trial": 6, "rt": 2039, "response": "Alpha"}, "9": {"stimulus": 31, "trial": 9, "rt": 1297, "response": "Alpha"}, "8": {"stimulus": 19, "trial": 8, "rt": 2024, "response": "Alpha"}, "78": {"stimulus": 61, "trial": 78, "rt": 1162, "response": "Alpha"}, "51": {"stimulus": 30, "trial": 51, "rt": 915, "response": "Beta"}, "39": {"stimulus": 11, "trial": 39, "rt": 1161, "response": "Beta"}, "65": {"stimulus": 68, "trial": 65, "rt": 2317, "response": "Beta"}, "76": {"stimulus": 9, "trial": 76, "rt": 1214, "response": "Beta"}, "75": {"stimulus": 15, "trial": 75, "rt": 6548, "response": "Beta"}, "38": {"stimulus": 1, "trial": 38, "rt": 889, "response": "Beta"}, "73": {"stimulus": 20, "trial": 73, "rt": 740, "response": "Beta"}, "72": {"stimulus": 74, "trial": 72, "rt": 935, "response": "Beta"}, "71": {"stimulus": 33, "trial": 71, "rt": 1049, "response": "Beta"}, "70": {"stimulus": 71, "trial": 70, "rt": 820, "response": "Beta"}, "59": {"stimulus": 22, "trial": 59, "rt": 2879, "response": "Alpha"}, "79": {"stimulus": 54, "trial": 79, "rt": 4038, "response": "Alpha"}, "58": {"stimulus": 50, "trial": 58, "rt": 1113, "response": "Alpha"}, "11": {"stimulus": 51, "trial": 11, "rt": 2850, "response": "Beta"}, "10": {"stimulus": 56, "trial": 10, "rt": 1151, "response": "Beta"}, "13": {"stimulus": 62, "trial": 13, "rt": 1036, "response": "Beta"}, "12": {"stimulus": 44, "trial": 12, "rt": 14297, "response": "Alpha"}, "15": {"stimulus": 63, "trial": 15, "rt": 35786, "response": "Beta"}, "14": {"stimulus": 48, "trial": 14, "rt": 1603, "response": "Beta"}, "17": {"stimulus": 43, "trial": 17, "rt": 934, "response": "Alpha"}, "16": {"stimulus": 49, "trial": 16, "rt": 905, "response": "Alpha"}, "19": {"stimulus": 53, "trial": 19, "rt": 1731, "response": "Alpha"}, "18": {"stimulus": 60, "trial": 18, "rt": 4694, "response": "Beta"}, "31": {"stimulus": 17, "trial": 31, "rt": 917, "response": "Beta"}, "30": {"stimulus": 64, "trial": 30, "rt": 926, "response": "Beta"}, "37": {"stimulus": 24, "trial": 37, "rt": 905, "response": "Alpha"}, "36": {"stimulus": 41, "trial": 36, "rt": 1600, "response": "Alpha"}, "35": {"stimulus": 12, "trial": 35, "rt": 1679, "response": "Beta"}, "34": {"stimulus": 42, "trial": 34, "rt": 1260, "response": "Alpha"}, "33": {"stimulus": 26, "trial": 33, "rt": 928, "response": "Beta"}, "55": {"stimulus": 52, "trial": 55, "rt": 2006, "response": "Alpha"}, "74": {"stimulus": 46, "trial": 74, "rt": 911, "response": "Alpha"}, "32": {"stimulus": 23, "trial": 32, "rt": 1161, "response": "Beta"}, "57": {"stimulus": 18, "trial": 57, "rt": 3300, "response": "Beta"}, "50": {"stimulus": 6, "trial": 50, "rt": 1239, "response": "Beta"}}, "experiment": {"Paradigm": "TACL", "Stimuli": "Size-Color Squares", "Experiment": "Generating-Multiple-Categories"}, "submit": {"timeTotal": 776231, "age": "27", "comments": "I'm pretty sure it was the darkest and lightest squares that weren't alphas.", "sex": "Female"}}