{"info": {"finish": 1534989722270, "participant": 26, "exposed": true, "lab": false, "start": 1534989442805, "counterbalance": 6, "gentype": 1, "condition": "Middle", "browser": {"platform": "Win32", "userAgent": "Mozilla/5.0 (Windows NT 6.1; Win64; x64) AppleWebKit/537.36 (KHTML, like Gecko) Chrome/68.0.3440.106 Safari/537.36"}}, "observation": {"11": {"stimulus": 32, "trial": 11, "rt": 1330}, "10": {"stimulus": 30, "trial": 10, "rt": 1314}, "1": {"stimulus": 48, "trial": 1, "rt": 1982}, "0": {"stimulus": 32, "trial": 0, "rt": 2185}, "3": {"stimulus": 30, "trial": 3, "rt": 1802}, "2": {"stimulus": 50, "trial": 2, "rt": 1895}, "5": {"stimulus": 48, "trial": 5, "rt": 1504}, "4": {"stimulus": 50, "trial": 4, "rt": 1440}, "7": {"stimulus": 30, "trial": 7, "rt": 1409}, "6": {"stimulus": 32, "trial": 6, "rt": 1728}, "9": {"stimulus": 50, "trial": 9, "rt": 1343}, "8": {"stimulus": 48, "trial": 8, "rt": 1354}}, "generation": {"1": {"category": "Beta", "trial": 1, "stimulus": 71, "rt": 5061}, "0": {"category": "Beta", "trial": 0, "stimulus": 80, "rt": 8729}, "3": {"category": "Beta", "trial": 3, "stimulus": 62, "rt": 4036}, "2": {"category": "Beta", "trial": 2, "stimulus": 8, "rt": 3305}, "5": {"category": "Beta", "trial": 5, "stimulus": 26, "rt": 10115}, "4": {"category": "Beta", "trial": 4, "stimulus": 44, "rt": 3429}, "7": {"category": "Beta", "trial": 7, "stimulus": 35, "rt": 9359}, "6": {"category": "Beta", "trial": 6, "stimulus": 17, "rt": 5139}}, "generalization": {"56": {"stimulus": 39, "trial": 56, "rt": 422, "response": "Alpha"}, "77": {"stimulus": 13, "trial": 77, "rt": 1139, "response": "Alpha"}, "54": {"stimulus": 28, "trial": 54, "rt": 410, "response": "Alpha"}, "42": {"stimulus": 80, "trial": 42, "rt": 1138, "response": "Beta"}, "48": {"stimulus": 33, "trial": 48, "rt": 676, "response": "Alpha"}, "43": {"stimulus": 65, "trial": 43, "rt": 354, "response": "Alpha"}, "60": {"stimulus": 57, "trial": 60, "rt": 431, "response": "Alpha"}, "61": {"stimulus": 6, "trial": 61, "rt": 1188, "response": "Alpha"}, "62": {"stimulus": 41, "trial": 62, "rt": 398, "response": "Alpha"}, "63": {"stimulus": 49, "trial": 63, "rt": 392, "response": "Alpha"}, "64": {"stimulus": 51, "trial": 64, "rt": 841, "response": "Alpha"}, "49": {"stimulus": 45, "trial": 49, "rt": 519, "response": "Alpha"}, "66": {"stimulus": 78, "trial": 66, "rt": 384, "response": "Alpha"}, "67": {"stimulus": 3, "trial": 67, "rt": 407, "response": "Alpha"}, "68": {"stimulus": 38, "trial": 68, "rt": 463, "response": "Alpha"}, "69": {"stimulus": 4, "trial": 69, "rt": 524, "response": "Alpha"}, "80": {"stimulus": 54, "trial": 80, "rt": 409, "response": "Alpha"}, "52": {"stimulus": 17, "trial": 52, "rt": 1227, "response": "Beta"}, "53": {"stimulus": 55, "trial": 53, "rt": 423, "response": "Alpha"}, "24": {"stimulus": 75, "trial": 24, "rt": 534, "response": "Alpha"}, "25": {"stimulus": 7, "trial": 25, "rt": 1431, "response": "Alpha"}, "26": {"stimulus": 34, "trial": 26, "rt": 787, "response": "Alpha"}, "27": {"stimulus": 25, "trial": 27, "rt": 1109, "response": "Alpha"}, "20": {"stimulus": 24, "trial": 20, "rt": 736, "response": "Alpha"}, "21": {"stimulus": 31, "trial": 21, "rt": 425, "response": "Alpha"}, "22": {"stimulus": 19, "trial": 22, "rt": 422, "response": "Alpha"}, "23": {"stimulus": 12, "trial": 23, "rt": 402, "response": "Alpha"}, "46": {"stimulus": 36, "trial": 46, "rt": 517, "response": "Alpha"}, "47": {"stimulus": 58, "trial": 47, "rt": 535, "response": "Alpha"}, "44": {"stimulus": 56, "trial": 44, "rt": 384, "response": "Alpha"}, "45": {"stimulus": 11, "trial": 45, "rt": 613, "response": "Alpha"}, "28": {"stimulus": 53, "trial": 28, "rt": 863, "response": "Beta"}, "29": {"stimulus": 1, "trial": 29, "rt": 629, "response": "Alpha"}, "40": {"stimulus": 61, "trial": 40, "rt": 753, "response": "Alpha"}, "41": {"stimulus": 64, "trial": 41, "rt": 408, "response": "Alpha"}, "1": {"stimulus": 76, "trial": 1, "rt": 825, "response": "Alpha"}, "0": {"stimulus": 15, "trial": 0, "rt": 1171, "response": "Alpha"}, "3": {"stimulus": 26, "trial": 3, "rt": 1203, "response": "Alpha"}, "2": {"stimulus": 40, "trial": 2, "rt": 544, "response": "Alpha"}, "5": {"stimulus": 60, "trial": 5, "rt": 669, "response": "Alpha"}, "4": {"stimulus": 47, "trial": 4, "rt": 621, "response": "Alpha"}, "7": {"stimulus": 67, "trial": 7, "rt": 575, "response": "Alpha"}, "6": {"stimulus": 74, "trial": 6, "rt": 524, "response": "Alpha"}, "9": {"stimulus": 5, "trial": 9, "rt": 802, "response": "Alpha"}, "8": {"stimulus": 71, "trial": 8, "rt": 1186, "response": "Beta"}, "78": {"stimulus": 70, "trial": 78, "rt": 887, "response": "Beta"}, "51": {"stimulus": 30, "trial": 51, "rt": 479, "response": "Alpha"}, "39": {"stimulus": 8, "trial": 39, "rt": 840, "response": "Beta"}, "65": {"stimulus": 68, "trial": 65, "rt": 431, "response": "Alpha"}, "76": {"stimulus": 35, "trial": 76, "rt": 811, "response": "Beta"}, "75": {"stimulus": 63, "trial": 75, "rt": 464, "response": "Alpha"}, "38": {"stimulus": 37, "trial": 38, "rt": 401, "response": "Alpha"}, "73": {"stimulus": 32, "trial": 73, "rt": 638, "response": "Alpha"}, "72": {"stimulus": 46, "trial": 72, "rt": 384, "response": "Alpha"}, "71": {"stimulus": 72, "trial": 71, "rt": 470, "response": "Alpha"}, "70": {"stimulus": 29, "trial": 70, "rt": 424, "response": "Alpha"}, "59": {"stimulus": 27, "trial": 59, "rt": 487, "response": "Alpha"}, "79": {"stimulus": 20, "trial": 79, "rt": 455, "response": "Alpha"}, "58": {"stimulus": 59, "trial": 58, "rt": 431, "response": "Alpha"}, "11": {"stimulus": 42, "trial": 11, "rt": 494, "response": "Alpha"}, "10": {"stimulus": 43, "trial": 10, "rt": 613, "response": "Alpha"}, "13": {"stimulus": 16, "trial": 13, "rt": 1069, "response": "Alpha"}, "12": {"stimulus": 77, "trial": 12, "rt": 505, "response": "Alpha"}, "15": {"stimulus": 14, "trial": 15, "rt": 398, "response": "Alpha"}, "14": {"stimulus": 22, "trial": 14, "rt": 526, "response": "Alpha"}, "17": {"stimulus": 62, "trial": 17, "rt": 959, "response": "Beta"}, "16": {"stimulus": 66, "trial": 16, "rt": 574, "response": "Alpha"}, "19": {"stimulus": 10, "trial": 19, "rt": 8665, "response": "Alpha"}, "18": {"stimulus": 9, "trial": 18, "rt": 494, "response": "Alpha"}, "31": {"stimulus": 18, "trial": 31, "rt": 432, "response": "Alpha"}, "30": {"stimulus": 0, "trial": 30, "rt": 446, "response": "Alpha"}, "37": {"stimulus": 21, "trial": 37, "rt": 384, "response": "Alpha"}, "36": {"stimulus": 73, "trial": 36, "rt": 423, "response": "Alpha"}, "35": {"stimulus": 52, "trial": 35, "rt": 1377, "response": "Alpha"}, "34": {"stimulus": 44, "trial": 34, "rt": 950, "response": "Beta"}, "33": {"stimulus": 23, "trial": 33, "rt": 566, "response": "Alpha"}, "55": {"stimulus": 69, "trial": 55, "rt": 550, "response": "Alpha"}, "74": {"stimulus": 48, "trial": 74, "rt": 408, "response": "Alpha"}, "32": {"stimulus": 2, "trial": 32, "rt": 707, "response": "Alpha"}, "57": {"stimulus": 50, "trial": 57, "rt": 401, "response": "Alpha"}, "50": {"stimulus": 79, "trial": 50, "rt": 809, "response": "Alpha"}}, "experiment": {"Paradigm": "TACL", "Stimuli": "Size-Color Squares", "Experiment": "Generating-Multiple-Categories"}, "submit": {"timeTotal": 279629, "age": "28", "comments": "It was fun and simple, thank you!", "sex": "Female"}}