{"info": {"finish": 1535052854252, "participant": 30, "exposed": true, "lab": false, "start": 1535052481670, "counterbalance": 1, "gentype": 2, "condition": "Middle", "browser": {"platform": "Win64", "userAgent": "Mozilla/5.0 (Windows NT 10.0; Win64; x64; rv:52.0) Gecko/20100101 Firefox/52.0"}}, "observation": {"11": {"stimulus": 50, "trial": 11, "rt": 1994}, "10": {"stimulus": 32, "trial": 10, "rt": 1830}, "1": {"stimulus": 30, "trial": 1, "rt": 2392}, "0": {"stimulus": 50, "trial": 0, "rt": 4430}, "3": {"stimulus": 48, "trial": 3, "rt": 3788}, "2": {"stimulus": 32, "trial": 2, "rt": 2280}, "5": {"stimulus": 50, "trial": 5, "rt": 3072}, "4": {"stimulus": 48, "trial": 4, "rt": 3138}, "7": {"stimulus": 30, "trial": 7, "rt": 2166}, "6": {"stimulus": 32, "trial": 6, "rt": 2040}, "9": {"stimulus": 30, "trial": 9, "rt": 1820}, "8": {"stimulus": 48, "trial": 8, "rt": 2056}}, "generation": {"1": {"category": "Beta", "trial": 1, "stimulus": 26, "rt": 6920}, "0": {"category": "Beta", "trial": 0, "stimulus": 8, "rt": 23668}, "3": {"category": "Beta", "trial": 3, "stimulus": 62, "rt": 6176}, "2": {"category": "Beta", "trial": 2, "stimulus": 53, "rt": 6112}, "5": {"category": "Gamma", "trial": 5, "stimulus": 18, "rt": 6210}, "4": {"category": "Gamma", "trial": 4, "stimulus": 0, "rt": 5802}, "7": {"category": "Gamma", "trial": 7, "stimulus": 63, "rt": 4360}, "6": {"category": "Gamma", "trial": 6, "stimulus": 36, "rt": 4474}}, "generalization": {"56": {"stimulus": 36, "trial": 56, "rt": 1232, "response": "Gamma"}, "77": {"stimulus": 68, "trial": 77, "rt": 686, "response": "Alpha"}, "54": {"stimulus": 7, "trial": 54, "rt": 1734, "response": "Alpha"}, "42": {"stimulus": 16, "trial": 42, "rt": 2910, "response": "Beta"}, "48": {"stimulus": 70, "trial": 48, "rt": 2476, "response": "Beta"}, "43": {"stimulus": 31, "trial": 43, "rt": 2272, "response": "Alpha"}, "60": {"stimulus": 57, "trial": 60, "rt": 1238, "response": "Alpha"}, "61": {"stimulus": 14, "trial": 61, "rt": 648, "response": "Alpha"}, "62": {"stimulus": 12, "trial": 62, "rt": 602, "response": "Alpha"}, "63": {"stimulus": 73, "trial": 63, "rt": 1402, "response": "Alpha"}, "64": {"stimulus": 48, "trial": 64, "rt": 662, "response": "Alpha"}, "49": {"stimulus": 64, "trial": 49, "rt": 1094, "response": "Gamma"}, "66": {"stimulus": 10, "trial": 66, "rt": 1100, "response": "Gamma"}, "67": {"stimulus": 8, "trial": 67, "rt": 1010, "response": "Beta"}, "68": {"stimulus": 26, "trial": 68, "rt": 640, "response": "Beta"}, "69": {"stimulus": 72, "trial": 69, "rt": 1154, "response": "Gamma"}, "80": {"stimulus": 42, "trial": 80, "rt": 1236, "response": "Alpha"}, "52": {"stimulus": 46, "trial": 52, "rt": 1014, "response": "Gamma"}, "53": {"stimulus": 2, "trial": 53, "rt": 978, "response": "Gamma"}, "24": {"stimulus": 43, "trial": 24, "rt": 984, "response": "Beta"}, "25": {"stimulus": 51, "trial": 25, "rt": 1628, "response": "Alpha"}, "26": {"stimulus": 47, "trial": 26, "rt": 2836, "response": "Gamma"}, "27": {"stimulus": 34, "trial": 27, "rt": 2602, "response": "Beta"}, "20": {"stimulus": 63, "trial": 20, "rt": 1110, "response": "Gamma"}, "21": {"stimulus": 1, "trial": 21, "rt": 1548, "response": "Gamma"}, "22": {"stimulus": 76, "trial": 22, "rt": 1072, "response": "Alpha"}, "23": {"stimulus": 32, "trial": 23, "rt": 1882, "response": "Beta"}, "46": {"stimulus": 55, "trial": 46, "rt": 1274, "response": "Gamma"}, "47": {"stimulus": 39, "trial": 47, "rt": 1562, "response": "Gamma"}, "44": {"stimulus": 15, "trial": 44, "rt": 2164, "response": "Alpha"}, "45": {"stimulus": 67, "trial": 45, "rt": 828, "response": "Beta"}, "28": {"stimulus": 53, "trial": 28, "rt": 766, "response": "Beta"}, "29": {"stimulus": 22, "trial": 29, "rt": 1090, "response": "Alpha"}, "40": {"stimulus": 37, "trial": 40, "rt": 1190, "response": "Gamma"}, "41": {"stimulus": 54, "trial": 41, "rt": 1086, "response": "Gamma"}, "1": {"stimulus": 25, "trial": 1, "rt": 1218, "response": "Beta"}, "0": {"stimulus": 33, "trial": 0, "rt": 4384, "response": "Beta"}, "3": {"stimulus": 44, "trial": 3, "rt": 1522, "response": "Beta"}, "2": {"stimulus": 41, "trial": 2, "rt": 1828, "response": "Beta"}, "5": {"stimulus": 77, "trial": 5, "rt": 2070, "response": "Alpha"}, "4": {"stimulus": 38, "trial": 4, "rt": 2202, "response": "Gamma"}, "7": {"stimulus": 4, "trial": 7, "rt": 848, "response": "Alpha"}, "6": {"stimulus": 24, "trial": 6, "rt": 1036, "response": "Alpha"}, "9": {"stimulus": 78, "trial": 9, "rt": 864, "response": "Alpha"}, "8": {"stimulus": 49, "trial": 8, "rt": 898, "response": "Alpha"}, "78": {"stimulus": 66, "trial": 78, "rt": 548, "response": "Alpha"}, "51": {"stimulus": 17, "trial": 51, "rt": 1050, "response": "Beta"}, "39": {"stimulus": 79, "trial": 39, "rt": 1750, "response": "Beta"}, "65": {"stimulus": 71, "trial": 65, "rt": 1154, "response": "Beta"}, "76": {"stimulus": 56, "trial": 76, "rt": 812, "response": "Alpha"}, "75": {"stimulus": 13, "trial": 75, "rt": 1084, "response": "Alpha"}, "38": {"stimulus": 59, "trial": 38, "rt": 1374, "response": "Alpha"}, "73": {"stimulus": 30, "trial": 73, "rt": 1248, "response": "Gamma"}, "72": {"stimulus": 9, "trial": 72, "rt": 1108, "response": "Gamma"}, "71": {"stimulus": 40, "trial": 71, "rt": 860, "response": "Alpha"}, "70": {"stimulus": 21, "trial": 70, "rt": 1032, "response": "Alpha"}, "59": {"stimulus": 61, "trial": 59, "rt": 1294, "response": "Beta"}, "79": {"stimulus": 27, "trial": 79, "rt": 1078, "response": "Gamma"}, "58": {"stimulus": 74, "trial": 58, "rt": 1024, "response": "Gamma"}, "11": {"stimulus": 52, "trial": 11, "rt": 1336, "response": "Beta"}, "10": {"stimulus": 65, "trial": 10, "rt": 2328, "response": "Gamma"}, "13": {"stimulus": 5, "trial": 13, "rt": 1046, "response": "Alpha"}, "12": {"stimulus": 60, "trial": 12, "rt": 1062, "response": "Beta"}, "15": {"stimulus": 23, "trial": 15, "rt": 1212, "response": "Alpha"}, "14": {"stimulus": 18, "trial": 14, "rt": 1264, "response": "Gamma"}, "17": {"stimulus": 50, "trial": 17, "rt": 2424, "response": "Beta"}, "16": {"stimulus": 19, "trial": 16, "rt": 1038, "response": "Gamma"}, "19": {"stimulus": 58, "trial": 19, "rt": 810, "response": "Alpha"}, "18": {"stimulus": 62, "trial": 18, "rt": 1148, "response": "Beta"}, "31": {"stimulus": 28, "trial": 31, "rt": 768, "response": "Gamma"}, "30": {"stimulus": 80, "trial": 30, "rt": 944, "response": "Beta"}, "37": {"stimulus": 0, "trial": 37, "rt": 948, "response": "Gamma"}, "36": {"stimulus": 45, "trial": 36, "rt": 822, "response": "Gamma"}, "35": {"stimulus": 75, "trial": 35, "rt": 944, "response": "Gamma"}, "34": {"stimulus": 29, "trial": 34, "rt": 930, "response": "Gamma"}, "33": {"stimulus": 20, "trial": 33, "rt": 1034, "response": "Gamma"}, "55": {"stimulus": 69, "trial": 55, "rt": 998, "response": "Alpha"}, "74": {"stimulus": 35, "trial": 74, "rt": 928, "response": "Beta"}, "32": {"stimulus": 11, "trial": 32, "rt": 1882, "response": "Gamma"}, "57": {"stimulus": 3, "trial": 57, "rt": 1300, "response": "Gamma"}, "50": {"stimulus": 6, "trial": 50, "rt": 1592, "response": "Alpha"}}, "experiment": {"Paradigm": "TACL", "Stimuli": "Size-Color Squares", "Experiment": "Generating-Multiple-Categories"}, "submit": {"timeTotal": 373524, "age": "38", "comments": "", "sex": "female"}}