{"info": {"finish": 1535053306944, "participant": 33, "exposed": true, "lab": false, "start": 1535052974398, "counterbalance": 7, "gentype": 1, "condition": "Middle", "browser": {"platform": "Win32", "userAgent": "Mozilla/5.0 (Windows NT 6.1; Win64; x64) AppleWebKit/537.36 (KHTML, like Gecko) Chrome/68.0.3440.106 Safari/537.36"}}, "observation": {"11": {"stimulus": 50, "trial": 11, "rt": 1420}, "10": {"stimulus": 32, "trial": 10, "rt": 3126}, "1": {"stimulus": 32, "trial": 1, "rt": 1344}, "0": {"stimulus": 50, "trial": 0, "rt": 1855}, "3": {"stimulus": 30, "trial": 3, "rt": 1552}, "2": {"stimulus": 48, "trial": 2, "rt": 1328}, "5": {"stimulus": 32, "trial": 5, "rt": 1335}, "4": {"stimulus": 48, "trial": 4, "rt": 1312}, "7": {"stimulus": 30, "trial": 7, "rt": 1765}, "6": {"stimulus": 50, "trial": 6, "rt": 1383}, "9": {"stimulus": 48, "trial": 9, "rt": 1712}, "8": {"stimulus": 30, "trial": 8, "rt": 1582}}, "generation": {"1": {"category": "Beta", "trial": 1, "stimulus": 63, "rt": 17241}, "0": {"category": "Beta", "trial": 0, "stimulus": 72, "rt": 11597}, "3": {"category": "Beta", "trial": 3, "stimulus": 45, "rt": 5024}, "2": {"category": "Beta", "trial": 2, "stimulus": 54, "rt": 11467}, "5": {"category": "Beta", "trial": 5, "stimulus": 64, "rt": 6588}, "4": {"category": "Beta", "trial": 4, "stimulus": 73, "rt": 6758}, "7": {"category": "Beta", "trial": 7, "stimulus": 46, "rt": 4862}, "6": {"category": "Beta", "trial": 6, "stimulus": 55, "rt": 6267}}, "generalization": {"56": {"stimulus": 5, "trial": 56, "rt": 405, "response": "Alpha"}, "77": {"stimulus": 66, "trial": 77, "rt": 1481, "response": "Alpha"}, "54": {"stimulus": 32, "trial": 54, "rt": 543, "response": "Alpha"}, "42": {"stimulus": 51, "trial": 42, "rt": 743, "response": "Alpha"}, "48": {"stimulus": 31, "trial": 48, "rt": 1695, "response": "Alpha"}, "43": {"stimulus": 55, "trial": 43, "rt": 1083, "response": "Beta"}, "60": {"stimulus": 68, "trial": 60, "rt": 389, "response": "Alpha"}, "61": {"stimulus": 22, "trial": 61, "rt": 390, "response": "Alpha"}, "62": {"stimulus": 75, "trial": 62, "rt": 430, "response": "Alpha"}, "63": {"stimulus": 38, "trial": 63, "rt": 668, "response": "Alpha"}, "64": {"stimulus": 20, "trial": 64, "rt": 451, "response": "Alpha"}, "49": {"stimulus": 18, "trial": 49, "rt": 4140, "response": "Alpha"}, "66": {"stimulus": 12, "trial": 66, "rt": 659, "response": "Alpha"}, "67": {"stimulus": 70, "trial": 67, "rt": 428, "response": "Alpha"}, "68": {"stimulus": 37, "trial": 68, "rt": 651, "response": "Alpha"}, "69": {"stimulus": 17, "trial": 69, "rt": 474, "response": "Alpha"}, "80": {"stimulus": 13, "trial": 80, "rt": 521, "response": "Alpha"}, "52": {"stimulus": 33, "trial": 52, "rt": 529, "response": "Alpha"}, "53": {"stimulus": 78, "trial": 53, "rt": 406, "response": "Alpha"}, "24": {"stimulus": 6, "trial": 24, "rt": 545, "response": "Alpha"}, "25": {"stimulus": 34, "trial": 25, "rt": 412, "response": "Alpha"}, "26": {"stimulus": 49, "trial": 26, "rt": 737, "response": "Alpha"}, "27": {"stimulus": 67, "trial": 27, "rt": 1512, "response": "Alpha"}, "20": {"stimulus": 72, "trial": 20, "rt": 6619, "response": "Beta"}, "21": {"stimulus": 45, "trial": 21, "rt": 981, "response": "Beta"}, "22": {"stimulus": 7, "trial": 22, "rt": 581, "response": "Alpha"}, "23": {"stimulus": 73, "trial": 23, "rt": 743, "response": "Beta"}, "46": {"stimulus": 57, "trial": 46, "rt": 1235, "response": "Alpha"}, "47": {"stimulus": 76, "trial": 47, "rt": 2373, "response": "Alpha"}, "44": {"stimulus": 48, "trial": 44, "rt": 673, "response": "Alpha"}, "45": {"stimulus": 10, "trial": 45, "rt": 1254, "response": "Alpha"}, "28": {"stimulus": 54, "trial": 28, "rt": 737, "response": "Beta"}, "29": {"stimulus": 44, "trial": 29, "rt": 615, "response": "Alpha"}, "40": {"stimulus": 35, "trial": 40, "rt": 736, "response": "Alpha"}, "41": {"stimulus": 36, "trial": 41, "rt": 3473, "response": "Beta"}, "1": {"stimulus": 69, "trial": 1, "rt": 997, "response": "Alpha"}, "0": {"stimulus": 39, "trial": 0, "rt": 2591, "response": "Alpha"}, "3": {"stimulus": 65, "trial": 3, "rt": 821, "response": "Beta"}, "2": {"stimulus": 16, "trial": 2, "rt": 467, "response": "Alpha"}, "5": {"stimulus": 74, "trial": 5, "rt": 772, "response": "Beta"}, "4": {"stimulus": 15, "trial": 4, "rt": 597, "response": "Alpha"}, "7": {"stimulus": 77, "trial": 7, "rt": 1142, "response": "Alpha"}, "6": {"stimulus": 29, "trial": 6, "rt": 2098, "response": "Alpha"}, "9": {"stimulus": 25, "trial": 9, "rt": 451, "response": "Alpha"}, "8": {"stimulus": 60, "trial": 8, "rt": 427, "response": "Alpha"}, "78": {"stimulus": 41, "trial": 78, "rt": 499, "response": "Alpha"}, "51": {"stimulus": 28, "trial": 51, "rt": 18324, "response": "Beta"}, "39": {"stimulus": 4, "trial": 39, "rt": 445, "response": "Alpha"}, "65": {"stimulus": 46, "trial": 65, "rt": 2579, "response": "Beta"}, "76": {"stimulus": 42, "trial": 76, "rt": 397, "response": "Alpha"}, "75": {"stimulus": 27, "trial": 75, "rt": 1327, "response": "Beta"}, "38": {"stimulus": 21, "trial": 38, "rt": 704, "response": "Alpha"}, "73": {"stimulus": 62, "trial": 73, "rt": 421, "response": "Alpha"}, "72": {"stimulus": 9, "trial": 72, "rt": 1418, "response": "Beta"}, "71": {"stimulus": 80, "trial": 71, "rt": 499, "response": "Alpha"}, "70": {"stimulus": 40, "trial": 70, "rt": 665, "response": "Alpha"}, "59": {"stimulus": 58, "trial": 59, "rt": 445, "response": "Alpha"}, "79": {"stimulus": 24, "trial": 79, "rt": 458, "response": "Alpha"}, "58": {"stimulus": 2, "trial": 58, "rt": 372, "response": "Alpha"}, "11": {"stimulus": 30, "trial": 11, "rt": 783, "response": "Alpha"}, "10": {"stimulus": 53, "trial": 10, "rt": 451, "response": "Alpha"}, "13": {"stimulus": 50, "trial": 13, "rt": 467, "response": "Alpha"}, "12": {"stimulus": 47, "trial": 12, "rt": 766, "response": "Alpha"}, "15": {"stimulus": 3, "trial": 15, "rt": 551, "response": "Alpha"}, "14": {"stimulus": 1, "trial": 14, "rt": 676, "response": "Alpha"}, "17": {"stimulus": 71, "trial": 17, "rt": 473, "response": "Alpha"}, "16": {"stimulus": 11, "trial": 16, "rt": 675, "response": "Alpha"}, "19": {"stimulus": 43, "trial": 19, "rt": 658, "response": "Alpha"}, "18": {"stimulus": 79, "trial": 18, "rt": 474, "response": "Alpha"}, "31": {"stimulus": 19, "trial": 31, "rt": 683, "response": "Alpha"}, "30": {"stimulus": 63, "trial": 30, "rt": 914, "response": "Beta"}, "37": {"stimulus": 59, "trial": 37, "rt": 675, "response": "Alpha"}, "36": {"stimulus": 26, "trial": 36, "rt": 584, "response": "Alpha"}, "35": {"stimulus": 64, "trial": 35, "rt": 1088, "response": "Beta"}, "34": {"stimulus": 0, "trial": 34, "rt": 467, "response": "Alpha"}, "33": {"stimulus": 14, "trial": 33, "rt": 434, "response": "Alpha"}, "55": {"stimulus": 52, "trial": 55, "rt": 460, "response": "Alpha"}, "74": {"stimulus": 8, "trial": 74, "rt": 421, "response": "Alpha"}, "32": {"stimulus": 56, "trial": 32, "rt": 1720, "response": "Beta"}, "57": {"stimulus": 61, "trial": 57, "rt": 406, "response": "Alpha"}, "50": {"stimulus": 23, "trial": 50, "rt": 7045, "response": "Alpha"}}, "experiment": {"Paradigm": "TACL", "Stimuli": "Size-Color Squares", "Experiment": "Generating-Multiple-Categories"}, "submit": {"timeTotal": 333365, "age": "24", "comments": "I thought it was very interesting.", "sex": "Female"}}