{"info": {"finish": 1535055075569, "participant": 39, "exposed": true, "lab": false, "start": 1535054783185, "counterbalance": 0, "gentype": 2, "condition": "Bottom", "browser": {"platform": "Win32", "userAgent": "Mozilla/5.0 (Windows NT 10.0; Win64; x64) AppleWebKit/537.36 (KHTML, like Gecko) Chrome/68.0.3440.106 Safari/537.36"}}, "observation": {"11": {"stimulus": 32, "trial": 11, "rt": 1517}, "10": {"stimulus": 12, "trial": 10, "rt": 1794}, "1": {"stimulus": 14, "trial": 1, "rt": 1694}, "0": {"stimulus": 12, "trial": 0, "rt": 1870}, "3": {"stimulus": 32, "trial": 3, "rt": 3669}, "2": {"stimulus": 30, "trial": 2, "rt": 1556}, "5": {"stimulus": 14, "trial": 5, "rt": 1440}, "4": {"stimulus": 30, "trial": 4, "rt": 1540}, "7": {"stimulus": 12, "trial": 7, "rt": 1387}, "6": {"stimulus": 32, "trial": 6, "rt": 1750}, "9": {"stimulus": 30, "trial": 9, "rt": 1321}, "8": {"stimulus": 14, "trial": 8, "rt": 1435}}, "generation": {"1": {"category": "Beta", "trial": 1, "stimulus": 68, "rt": 3103}, "0": {"category": "Beta", "trial": 0, "stimulus": 77, "rt": 9288}, "3": {"category": "Beta", "trial": 3, "stimulus": 50, "rt": 10352}, "2": {"category": "Beta", "trial": 2, "stimulus": 59, "rt": 4197}, "5": {"category": "Gamma", "trial": 5, "stimulus": 53, "rt": 2897}, "4": {"category": "Gamma", "trial": 4, "stimulus": 44, "rt": 5822}, "7": {"category": "Gamma", "trial": 7, "stimulus": 62, "rt": 4142}, "6": {"category": "Gamma", "trial": 6, "stimulus": 26, "rt": 4154}}, "generalization": {"56": {"stimulus": 44, "trial": 56, "rt": 1175, "response": "Alpha"}, "77": {"stimulus": 75, "trial": 77, "rt": 704, "response": "Beta"}, "54": {"stimulus": 7, "trial": 54, "rt": 2900, "response": "Alpha"}, "42": {"stimulus": 48, "trial": 42, "rt": 738, "response": "Beta"}, "48": {"stimulus": 66, "trial": 48, "rt": 782, "response": "Beta"}, "43": {"stimulus": 3, "trial": 43, "rt": 961, "response": "Alpha"}, "60": {"stimulus": 15, "trial": 60, "rt": 900, "response": "Gamma"}, "61": {"stimulus": 57, "trial": 61, "rt": 739, "response": "Beta"}, "62": {"stimulus": 34, "trial": 62, "rt": 751, "response": "Gamma"}, "63": {"stimulus": 2, "trial": 63, "rt": 987, "response": "Alpha"}, "64": {"stimulus": 58, "trial": 64, "rt": 570, "response": "Beta"}, "49": {"stimulus": 25, "trial": 49, "rt": 774, "response": "Gamma"}, "66": {"stimulus": 74, "trial": 66, "rt": 696, "response": "Beta"}, "67": {"stimulus": 4, "trial": 67, "rt": 1162, "response": "Alpha"}, "68": {"stimulus": 30, "trial": 68, "rt": 1150, "response": "Gamma"}, "69": {"stimulus": 31, "trial": 69, "rt": 1303, "response": "Gamma"}, "80": {"stimulus": 70, "trial": 80, "rt": 728, "response": "Beta"}, "52": {"stimulus": 42, "trial": 52, "rt": 658, "response": "Gamma"}, "53": {"stimulus": 22, "trial": 53, "rt": 888, "response": "Gamma"}, "24": {"stimulus": 38, "trial": 24, "rt": 1548, "response": "Beta"}, "25": {"stimulus": 50, "trial": 25, "rt": 1286, "response": "Gamma"}, "26": {"stimulus": 40, "trial": 26, "rt": 4087, "response": "Gamma"}, "27": {"stimulus": 59, "trial": 27, "rt": 626, "response": "Gamma"}, "20": {"stimulus": 36, "trial": 20, "rt": 680, "response": "Alpha"}, "21": {"stimulus": 12, "trial": 21, "rt": 563, "response": "Alpha"}, "22": {"stimulus": 16, "trial": 22, "rt": 481, "response": "Alpha"}, "23": {"stimulus": 54, "trial": 23, "rt": 2214, "response": "Beta"}, "46": {"stimulus": 35, "trial": 46, "rt": 788, "response": "Gamma"}, "47": {"stimulus": 45, "trial": 47, "rt": 2111, "response": "Beta"}, "44": {"stimulus": 71, "trial": 44, "rt": 1025, "response": "Gamma"}, "45": {"stimulus": 1, "trial": 45, "rt": 828, "response": "Alpha"}, "28": {"stimulus": 14, "trial": 28, "rt": 868, "response": "Gamma"}, "29": {"stimulus": 65, "trial": 29, "rt": 2940, "response": "Beta"}, "40": {"stimulus": 80, "trial": 40, "rt": 889, "response": "Gamma"}, "41": {"stimulus": 69, "trial": 41, "rt": 387, "response": "Gamma"}, "1": {"stimulus": 49, "trial": 1, "rt": 2458, "response": "Alpha"}, "0": {"stimulus": 60, "trial": 0, "rt": 4422, "response": "Beta"}, "3": {"stimulus": 21, "trial": 3, "rt": 1215, "response": "Alpha"}, "2": {"stimulus": 52, "trial": 2, "rt": 999, "response": "Alpha"}, "5": {"stimulus": 64, "trial": 5, "rt": 1781, "response": "Beta"}, "4": {"stimulus": 6, "trial": 4, "rt": 751, "response": "Alpha"}, "7": {"stimulus": 43, "trial": 7, "rt": 739, "response": "Gamma"}, "6": {"stimulus": 10, "trial": 6, "rt": 904, "response": "Alpha"}, "9": {"stimulus": 33, "trial": 9, "rt": 1876, "response": "Gamma"}, "8": {"stimulus": 5, "trial": 8, "rt": 1772, "response": "Alpha"}, "78": {"stimulus": 27, "trial": 78, "rt": 875, "response": "Alpha"}, "51": {"stimulus": 73, "trial": 51, "rt": 889, "response": "Beta"}, "39": {"stimulus": 29, "trial": 39, "rt": 675, "response": "Alpha"}, "65": {"stimulus": 13, "trial": 65, "rt": 621, "response": "Alpha"}, "76": {"stimulus": 53, "trial": 76, "rt": 624, "response": "Gamma"}, "75": {"stimulus": 20, "trial": 75, "rt": 537, "response": "Alpha"}, "38": {"stimulus": 28, "trial": 38, "rt": 637, "response": "Alpha"}, "73": {"stimulus": 17, "trial": 73, "rt": 638, "response": "Alpha"}, "72": {"stimulus": 41, "trial": 72, "rt": 2662, "response": "Gamma"}, "71": {"stimulus": 24, "trial": 71, "rt": 1350, "response": "Alpha"}, "70": {"stimulus": 56, "trial": 70, "rt": 2356, "response": "Beta"}, "59": {"stimulus": 11, "trial": 59, "rt": 882, "response": "Alpha"}, "79": {"stimulus": 26, "trial": 79, "rt": 633, "response": "Gamma"}, "58": {"stimulus": 32, "trial": 58, "rt": 1147, "response": "Gamma"}, "11": {"stimulus": 77, "trial": 11, "rt": 732, "response": "Beta"}, "10": {"stimulus": 47, "trial": 10, "rt": 753, "response": "Alpha"}, "13": {"stimulus": 68, "trial": 13, "rt": 527, "response": "Beta"}, "12": {"stimulus": 62, "trial": 12, "rt": 1105, "response": "Beta"}, "15": {"stimulus": 51, "trial": 15, "rt": 1173, "response": "Beta"}, "14": {"stimulus": 19, "trial": 14, "rt": 1175, "response": "Alpha"}, "17": {"stimulus": 61, "trial": 17, "rt": 3301, "response": "Beta"}, "16": {"stimulus": 67, "trial": 16, "rt": 850, "response": "Alpha"}, "19": {"stimulus": 46, "trial": 19, "rt": 2500, "response": "Alpha"}, "18": {"stimulus": 37, "trial": 18, "rt": 2483, "response": "Beta"}, "31": {"stimulus": 0, "trial": 31, "rt": 613, "response": "Alpha"}, "30": {"stimulus": 63, "trial": 30, "rt": 737, "response": "Alpha"}, "37": {"stimulus": 9, "trial": 37, "rt": 614, "response": "Alpha"}, "36": {"stimulus": 72, "trial": 36, "rt": 1349, "response": "Beta"}, "35": {"stimulus": 78, "trial": 35, "rt": 431, "response": "Gamma"}, "34": {"stimulus": 39, "trial": 34, "rt": 561, "response": "Gamma"}, "33": {"stimulus": 55, "trial": 33, "rt": 1037, "response": "Beta"}, "55": {"stimulus": 23, "trial": 55, "rt": 1059, "response": "Alpha"}, "74": {"stimulus": 76, "trial": 74, "rt": 634, "response": "Beta"}, "32": {"stimulus": 18, "trial": 32, "rt": 489, "response": "Alpha"}, "57": {"stimulus": 8, "trial": 57, "rt": 953, "response": "Alpha"}, "50": {"stimulus": 79, "trial": 50, "rt": 451, "response": "Gamma"}}, "experiment": {"Paradigm": "TACL", "Stimuli": "Size-Color Squares", "Experiment": "Generating-Multiple-Categories"}, "submit": {"timeTotal": 292502, "age": "23", "comments": "", "sex": "Male"}}