{"info": {"finish": 1535055176119, "participant": 40, "exposed": true, "lab": false, "start": 1535054844046, "counterbalance": 5, "gentype": 2, "condition": "Bottom", "browser": {"platform": "Win32", "userAgent": "Mozilla/5.0 (Windows NT 6.1; Win64; x64) AppleWebKit/537.36 (KHTML, like Gecko) Chrome/68.0.3440.106 Safari/537.36"}}, "observation": {"11": {"stimulus": 30, "trial": 11, "rt": 1200}, "10": {"stimulus": 14, "trial": 10, "rt": 1343}, "1": {"stimulus": 14, "trial": 1, "rt": 1507}, "0": {"stimulus": 30, "trial": 0, "rt": 2429}, "3": {"stimulus": 32, "trial": 3, "rt": 1367}, "2": {"stimulus": 12, "trial": 2, "rt": 1415}, "5": {"stimulus": 14, "trial": 5, "rt": 1380}, "4": {"stimulus": 30, "trial": 4, "rt": 1343}, "7": {"stimulus": 32, "trial": 7, "rt": 1325}, "6": {"stimulus": 12, "trial": 6, "rt": 1367}, "9": {"stimulus": 12, "trial": 9, "rt": 1233}, "8": {"stimulus": 32, "trial": 8, "rt": 1346}}, "generation": {"1": {"category": "Beta", "trial": 1, "stimulus": 6, "rt": 6736}, "0": {"category": "Beta", "trial": 0, "stimulus": 3, "rt": 22498}, "3": {"category": "Beta", "trial": 3, "stimulus": 5, "rt": 2891}, "2": {"category": "Beta", "trial": 2, "stimulus": 1, "rt": 5795}, "5": {"category": "Gamma", "trial": 5, "stimulus": 74, "rt": 5433}, "4": {"category": "Gamma", "trial": 4, "stimulus": 36, "rt": 4424}, "7": {"category": "Gamma", "trial": 7, "stimulus": 77, "rt": 3576}, "6": {"category": "Gamma", "trial": 6, "stimulus": 75, "rt": 2190}}, "generalization": {"56": {"stimulus": 50, "trial": 56, "rt": 539, "response": "Alpha"}, "77": {"stimulus": 65, "trial": 77, "rt": 1284, "response": "Alpha"}, "54": {"stimulus": 79, "trial": 54, "rt": 1151, "response": "Gamma"}, "42": {"stimulus": 77, "trial": 42, "rt": 738, "response": "Gamma"}, "48": {"stimulus": 73, "trial": 48, "rt": 909, "response": "Gamma"}, "43": {"stimulus": 52, "trial": 43, "rt": 1050, "response": "Alpha"}, "60": {"stimulus": 49, "trial": 60, "rt": 917, "response": "Alpha"}, "61": {"stimulus": 4, "trial": 61, "rt": 797, "response": "Beta"}, "62": {"stimulus": 21, "trial": 62, "rt": 412, "response": "Beta"}, "63": {"stimulus": 62, "trial": 63, "rt": 879, "response": "Alpha"}, "64": {"stimulus": 2, "trial": 64, "rt": 674, "response": "Beta"}, "49": {"stimulus": 46, "trial": 49, "rt": 979, "response": "Beta"}, "66": {"stimulus": 3, "trial": 66, "rt": 3497, "response": "Beta"}, "67": {"stimulus": 75, "trial": 67, "rt": 1061, "response": "Gamma"}, "68": {"stimulus": 20, "trial": 68, "rt": 696, "response": "Beta"}, "69": {"stimulus": 10, "trial": 69, "rt": 423, "response": "Beta"}, "80": {"stimulus": 63, "trial": 80, "rt": 1161, "response": "Gamma"}, "52": {"stimulus": 51, "trial": 52, "rt": 501, "response": "Beta"}, "53": {"stimulus": 26, "trial": 53, "rt": 774, "response": "Beta"}, "24": {"stimulus": 41, "trial": 24, "rt": 847, "response": "Alpha"}, "25": {"stimulus": 30, "trial": 25, "rt": 484, "response": "Alpha"}, "26": {"stimulus": 5, "trial": 26, "rt": 815, "response": "Beta"}, "27": {"stimulus": 33, "trial": 27, "rt": 943, "response": "Alpha"}, "20": {"stimulus": 60, "trial": 20, "rt": 1029, "response": "Gamma"}, "21": {"stimulus": 47, "trial": 21, "rt": 495, "response": "Gamma"}, "22": {"stimulus": 0, "trial": 22, "rt": 927, "response": "Beta"}, "23": {"stimulus": 71, "trial": 23, "rt": 872, "response": "Gamma"}, "46": {"stimulus": 13, "trial": 46, "rt": 486, "response": "Beta"}, "47": {"stimulus": 64, "trial": 47, "rt": 1375, "response": "Gamma"}, "44": {"stimulus": 16, "trial": 44, "rt": 1178, "response": "Beta"}, "45": {"stimulus": 18, "trial": 45, "rt": 563, "response": "Beta"}, "28": {"stimulus": 34, "trial": 28, "rt": 447, "response": "Alpha"}, "29": {"stimulus": 78, "trial": 29, "rt": 941, "response": "Gamma"}, "40": {"stimulus": 70, "trial": 40, "rt": 1080, "response": "Gamma"}, "41": {"stimulus": 55, "trial": 41, "rt": 1245, "response": "Gamma"}, "1": {"stimulus": 58, "trial": 1, "rt": 799, "response": "Gamma"}, "0": {"stimulus": 36, "trial": 0, "rt": 2990, "response": "Gamma"}, "3": {"stimulus": 7, "trial": 3, "rt": 8928, "response": "Beta"}, "2": {"stimulus": 32, "trial": 2, "rt": 1899, "response": "Alpha"}, "5": {"stimulus": 80, "trial": 5, "rt": 635, "response": "Gamma"}, "4": {"stimulus": 72, "trial": 4, "rt": 997, "response": "Gamma"}, "7": {"stimulus": 67, "trial": 7, "rt": 1083, "response": "Gamma"}, "6": {"stimulus": 38, "trial": 6, "rt": 907, "response": "Alpha"}, "9": {"stimulus": 40, "trial": 9, "rt": 987, "response": "Alpha"}, "8": {"stimulus": 42, "trial": 8, "rt": 1228, "response": "Alpha"}, "78": {"stimulus": 28, "trial": 78, "rt": 448, "response": "Alpha"}, "51": {"stimulus": 53, "trial": 51, "rt": 571, "response": "Beta"}, "39": {"stimulus": 27, "trial": 39, "rt": 877, "response": "Alpha"}, "65": {"stimulus": 31, "trial": 65, "rt": 1246, "response": "Beta"}, "76": {"stimulus": 15, "trial": 76, "rt": 462, "response": "Beta"}, "75": {"stimulus": 19, "trial": 75, "rt": 697, "response": "Beta"}, "38": {"stimulus": 1, "trial": 38, "rt": 891, "response": "Beta"}, "73": {"stimulus": 44, "trial": 73, "rt": 517, "response": "Beta"}, "72": {"stimulus": 29, "trial": 72, "rt": 525, "response": "Beta"}, "71": {"stimulus": 9, "trial": 71, "rt": 578, "response": "Beta"}, "70": {"stimulus": 14, "trial": 70, "rt": 475, "response": "Beta"}, "59": {"stimulus": 17, "trial": 59, "rt": 706, "response": "Beta"}, "79": {"stimulus": 24, "trial": 79, "rt": 593, "response": "Alpha"}, "58": {"stimulus": 45, "trial": 58, "rt": 892, "response": "Alpha"}, "11": {"stimulus": 54, "trial": 11, "rt": 433, "response": "Alpha"}, "10": {"stimulus": 37, "trial": 10, "rt": 532, "response": "Alpha"}, "13": {"stimulus": 66, "trial": 13, "rt": 445, "response": "Alpha"}, "12": {"stimulus": 56, "trial": 12, "rt": 476, "response": "Alpha"}, "15": {"stimulus": 61, "trial": 15, "rt": 619, "response": "Alpha"}, "14": {"stimulus": 59, "trial": 14, "rt": 533, "response": "Alpha"}, "17": {"stimulus": 76, "trial": 17, "rt": 494, "response": "Gamma"}, "16": {"stimulus": 68, "trial": 16, "rt": 1255, "response": "Gamma"}, "19": {"stimulus": 23, "trial": 19, "rt": 468, "response": "Beta"}, "18": {"stimulus": 25, "trial": 18, "rt": 1729, "response": "Beta"}, "31": {"stimulus": 22, "trial": 31, "rt": 446, "response": "Alpha"}, "30": {"stimulus": 39, "trial": 30, "rt": 876, "response": "Alpha"}, "37": {"stimulus": 74, "trial": 37, "rt": 762, "response": "Gamma"}, "36": {"stimulus": 57, "trial": 36, "rt": 2602, "response": "Gamma"}, "35": {"stimulus": 8, "trial": 35, "rt": 6957, "response": "Beta"}, "34": {"stimulus": 69, "trial": 34, "rt": 972, "response": "Gamma"}, "33": {"stimulus": 12, "trial": 33, "rt": 814, "response": "Beta"}, "55": {"stimulus": 43, "trial": 55, "rt": 1013, "response": "Alpha"}, "74": {"stimulus": 6, "trial": 74, "rt": 580, "response": "Beta"}, "32": {"stimulus": 48, "trial": 32, "rt": 1493, "response": "Alpha"}, "57": {"stimulus": 11, "trial": 57, "rt": 794, "response": "Beta"}, "50": {"stimulus": 35, "trial": 50, "rt": 760, "response": "Beta"}}, "experiment": {"Paradigm": "TACL", "Stimuli": "Size-Color Squares", "Experiment": "Generating-Multiple-Categories"}, "submit": {"timeTotal": 332488, "age": "43", "comments": "n/a", "sex": "male"}}