{"info": {"finish": 1535060302087, "participant": 46, "exposed": true, "lab": false, "start": 1535059812747, "counterbalance": 3, "gentype": 2, "condition": "Bottom", "browser": {"platform": "Win32", "userAgent": "Mozilla/5.0 (Windows NT 10.0; Win64; x64) AppleWebKit/537.36 (KHTML, like Gecko) Chrome/67.0.3396.99 Safari/537.36"}}, "observation": {"11": {"stimulus": 30, "trial": 11, "rt": 1391}, "10": {"stimulus": 14, "trial": 10, "rt": 1494}, "1": {"stimulus": 14, "trial": 1, "rt": 1679}, "0": {"stimulus": 12, "trial": 0, "rt": 2295}, "3": {"stimulus": 32, "trial": 3, "rt": 1376}, "2": {"stimulus": 30, "trial": 2, "rt": 1585}, "5": {"stimulus": 32, "trial": 5, "rt": 1420}, "4": {"stimulus": 30, "trial": 4, "rt": 1326}, "7": {"stimulus": 14, "trial": 7, "rt": 1164}, "6": {"stimulus": 12, "trial": 6, "rt": 1373}, "9": {"stimulus": 12, "trial": 9, "rt": 1360}, "8": {"stimulus": 32, "trial": 8, "rt": 1512}}, "generation": {"1": {"category": "Beta", "trial": 1, "stimulus": 72, "rt": 4238}, "0": {"category": "Beta", "trial": 0, "stimulus": 80, "rt": 9459}, "3": {"category": "Beta", "trial": 3, "stimulus": 73, "rt": 4046}, "2": {"category": "Beta", "trial": 2, "stimulus": 77, "rt": 3409}, "5": {"category": "Gamma", "trial": 5, "stimulus": 48, "rt": 17580}, "4": {"category": "Gamma", "trial": 4, "stimulus": 40, "rt": 3229}, "7": {"category": "Gamma", "trial": 7, "stimulus": 41, "rt": 11663}, "6": {"category": "Gamma", "trial": 6, "stimulus": 50, "rt": 11546}}, "generalization": {"56": {"stimulus": 70, "trial": 56, "rt": 4828, "response": "Beta"}, "77": {"stimulus": 49, "trial": 77, "rt": 690, "response": "Gamma"}, "54": {"stimulus": 18, "trial": 54, "rt": 1970, "response": "Alpha"}, "42": {"stimulus": 38, "trial": 42, "rt": 1374, "response": "Alpha"}, "48": {"stimulus": 27, "trial": 48, "rt": 4236, "response": "Alpha"}, "43": {"stimulus": 57, "trial": 43, "rt": 3285, "response": "Gamma"}, "60": {"stimulus": 35, "trial": 60, "rt": 2599, "response": "Alpha"}, "61": {"stimulus": 16, "trial": 61, "rt": 1420, "response": "Alpha"}, "62": {"stimulus": 46, "trial": 62, "rt": 1454, "response": "Gamma"}, "63": {"stimulus": 62, "trial": 63, "rt": 9482, "response": "Gamma"}, "64": {"stimulus": 77, "trial": 64, "rt": 1303, "response": "Beta"}, "49": {"stimulus": 65, "trial": 49, "rt": 3916, "response": "Beta"}, "66": {"stimulus": 80, "trial": 66, "rt": 15494, "response": "Beta"}, "67": {"stimulus": 47, "trial": 67, "rt": 962, "response": "Gamma"}, "68": {"stimulus": 22, "trial": 68, "rt": 687, "response": "Alpha"}, "69": {"stimulus": 19, "trial": 69, "rt": 523, "response": "Alpha"}, "80": {"stimulus": 40, "trial": 80, "rt": 7143, "response": "Gamma"}, "52": {"stimulus": 26, "trial": 52, "rt": 871, "response": "Alpha"}, "53": {"stimulus": 33, "trial": 53, "rt": 4431, "response": "Alpha"}, "24": {"stimulus": 4, "trial": 24, "rt": 1586, "response": "Alpha"}, "25": {"stimulus": 43, "trial": 25, "rt": 5894, "response": "Alpha"}, "26": {"stimulus": 36, "trial": 26, "rt": 1287, "response": "Alpha"}, "27": {"stimulus": 69, "trial": 27, "rt": 1395, "response": "Beta"}, "20": {"stimulus": 74, "trial": 20, "rt": 669, "response": "Beta"}, "21": {"stimulus": 34, "trial": 21, "rt": 1551, "response": "Alpha"}, "22": {"stimulus": 0, "trial": 22, "rt": 1910, "response": "Alpha"}, "23": {"stimulus": 61, "trial": 23, "rt": 1509, "response": "Beta"}, "46": {"stimulus": 68, "trial": 46, "rt": 1975, "response": "Beta"}, "47": {"stimulus": 71, "trial": 47, "rt": 991, "response": "Beta"}, "44": {"stimulus": 7, "trial": 44, "rt": 1190, "response": "Alpha"}, "45": {"stimulus": 59, "trial": 45, "rt": 1205, "response": "Gamma"}, "28": {"stimulus": 2, "trial": 28, "rt": 1051, "response": "Alpha"}, "29": {"stimulus": 48, "trial": 29, "rt": 1343, "response": "Gamma"}, "40": {"stimulus": 3, "trial": 40, "rt": 809, "response": "Alpha"}, "41": {"stimulus": 9, "trial": 41, "rt": 3558, "response": "Alpha"}, "1": {"stimulus": 72, "trial": 1, "rt": 2176, "response": "Beta"}, "0": {"stimulus": 31, "trial": 0, "rt": 32894, "response": "Alpha"}, "3": {"stimulus": 28, "trial": 3, "rt": 1894, "response": "Alpha"}, "2": {"stimulus": 42, "trial": 2, "rt": 1253, "response": "Alpha"}, "5": {"stimulus": 55, "trial": 5, "rt": 3483, "response": "Gamma"}, "4": {"stimulus": 67, "trial": 4, "rt": 3702, "response": "Beta"}, "7": {"stimulus": 79, "trial": 7, "rt": 15667, "response": "Beta"}, "6": {"stimulus": 24, "trial": 6, "rt": 2799, "response": "Alpha"}, "9": {"stimulus": 78, "trial": 9, "rt": 6642, "response": "Beta"}, "8": {"stimulus": 13, "trial": 8, "rt": 4398, "response": "Alpha"}, "78": {"stimulus": 60, "trial": 78, "rt": 9098, "response": "Gamma"}, "51": {"stimulus": 12, "trial": 51, "rt": 1041, "response": "Alpha"}, "39": {"stimulus": 21, "trial": 39, "rt": 704, "response": "Alpha"}, "65": {"stimulus": 11, "trial": 65, "rt": 3694, "response": "Alpha"}, "76": {"stimulus": 56, "trial": 76, "rt": 1271, "response": "Gamma"}, "75": {"stimulus": 10, "trial": 75, "rt": 7103, "response": "Alpha"}, "38": {"stimulus": 6, "trial": 38, "rt": 2779, "response": "Alpha"}, "73": {"stimulus": 30, "trial": 73, "rt": 1423, "response": "Gamma"}, "72": {"stimulus": 39, "trial": 72, "rt": 1243, "response": "Gamma"}, "71": {"stimulus": 20, "trial": 71, "rt": 6013, "response": "Alpha"}, "70": {"stimulus": 63, "trial": 70, "rt": 1022, "response": "Beta"}, "59": {"stimulus": 23, "trial": 59, "rt": 915, "response": "Alpha"}, "79": {"stimulus": 1, "trial": 79, "rt": 800, "response": "Alpha"}, "58": {"stimulus": 53, "trial": 58, "rt": 2511, "response": "Gamma"}, "11": {"stimulus": 32, "trial": 11, "rt": 1397, "response": "Alpha"}, "10": {"stimulus": 58, "trial": 10, "rt": 13262, "response": "Gamma"}, "13": {"stimulus": 5, "trial": 13, "rt": 2418, "response": "Alpha"}, "12": {"stimulus": 54, "trial": 12, "rt": 1514, "response": "Gamma"}, "15": {"stimulus": 50, "trial": 15, "rt": 4444, "response": "Beta"}, "14": {"stimulus": 41, "trial": 14, "rt": 3808, "response": "Beta"}, "17": {"stimulus": 64, "trial": 17, "rt": 1691, "response": "Beta"}, "16": {"stimulus": 8, "trial": 16, "rt": 2845, "response": "Alpha"}, "19": {"stimulus": 66, "trial": 19, "rt": 1140, "response": "Beta"}, "18": {"stimulus": 25, "trial": 18, "rt": 8859, "response": "Alpha"}, "31": {"stimulus": 75, "trial": 31, "rt": 816, "response": "Beta"}, "30": {"stimulus": 37, "trial": 30, "rt": 2447, "response": "Alpha"}, "37": {"stimulus": 45, "trial": 37, "rt": 3752, "response": "Alpha"}, "36": {"stimulus": 76, "trial": 36, "rt": 1399, "response": "Beta"}, "35": {"stimulus": 51, "trial": 35, "rt": 6229, "response": "Gamma"}, "34": {"stimulus": 15, "trial": 34, "rt": 998, "response": "Alpha"}, "33": {"stimulus": 29, "trial": 33, "rt": 1540, "response": "Alpha"}, "55": {"stimulus": 52, "trial": 55, "rt": 2820, "response": "Gamma"}, "74": {"stimulus": 44, "trial": 74, "rt": 1471, "response": "Gamma"}, "32": {"stimulus": 73, "trial": 32, "rt": 1274, "response": "Beta"}, "57": {"stimulus": 17, "trial": 57, "rt": 637, "response": "Alpha"}, "50": {"stimulus": 14, "trial": 50, "rt": 4367, "response": "Alpha"}}, "experiment": {"Paradigm": "TACL", "Stimuli": "Size-Color Squares", "Experiment": "Generating-Multiple-Categories"}, "submit": {"timeTotal": 489433, "age": "35", "comments": "", "sex": "Male"}}