{"info": {"finish": 1535062545112, "participant": 48, "exposed": true, "lab": false, "start": 1535059842514, "counterbalance": 4, "gentype": 0, "condition": "Middle", "browser": {"platform": "Win32", "userAgent": "Mozilla/5.0 (Windows NT 10.0; Win64; x64) AppleWebKit/537.36 (KHTML, like Gecko) Chrome/68.0.3440.106 Safari/537.36"}}, "observation": {"11": {"stimulus": 48, "trial": 11, "rt": 1614}, "10": {"stimulus": 32, "trial": 10, "rt": 1549}, "1": {"stimulus": 30, "trial": 1, "rt": 2390}, "0": {"stimulus": 32, "trial": 0, "rt": 2938}, "3": {"stimulus": 48, "trial": 3, "rt": 1657}, "2": {"stimulus": 50, "trial": 2, "rt": 2142}, "5": {"stimulus": 32, "trial": 5, "rt": 1516}, "4": {"stimulus": 50, "trial": 4, "rt": 1904}, "7": {"stimulus": 30, "trial": 7, "rt": 1601}, "6": {"stimulus": 48, "trial": 6, "rt": 1647}, "9": {"stimulus": 50, "trial": 9, "rt": 1490}, "8": {"stimulus": 30, "trial": 8, "rt": 1581}}, "generation": {"1": {"category": "Not-Alpha", "trial": 1, "stimulus": 17, "rt": 13296}, "0": {"category": "Not-Alpha", "trial": 0, "stimulus": 64, "rt": 16682}, "3": {"category": "Not-Alpha", "trial": 3, "stimulus": 70, "rt": 8292}, "2": {"category": "Not-Alpha", "trial": 2, "stimulus": 73, "rt": 6930}, "5": {"category": "Not-Alpha", "trial": 5, "stimulus": 28, "rt": 5800}, "4": {"category": "Not-Alpha", "trial": 4, "stimulus": 80, "rt": 3837}, "7": {"category": "Not-Alpha", "trial": 7, "stimulus": 62, "rt": 3580}, "6": {"category": "Not-Alpha", "trial": 6, "stimulus": 27, "rt": 5105}}, "generalization": {"56": {"stimulus": 80, "trial": 56, "rt": 748, "response": "Beta"}, "77": {"stimulus": 20, "trial": 77, "rt": 882, "response": "Beta"}, "54": {"stimulus": 53, "trial": 54, "rt": 787, "response": "Beta"}, "42": {"stimulus": 46, "trial": 42, "rt": 634, "response": "Beta"}, "48": {"stimulus": 50, "trial": 48, "rt": 723, "response": "Alpha"}, "43": {"stimulus": 70, "trial": 43, "rt": 1375, "response": "Beta"}, "60": {"stimulus": 61, "trial": 60, "rt": 1157, "response": "Beta"}, "61": {"stimulus": 65, "trial": 61, "rt": 897, "response": "Beta"}, "62": {"stimulus": 24, "trial": 62, "rt": 879, "response": "Alpha"}, "63": {"stimulus": 51, "trial": 63, "rt": 695, "response": "Alpha"}, "64": {"stimulus": 18, "trial": 64, "rt": 1011, "response": "Beta"}, "49": {"stimulus": 29, "trial": 49, "rt": 710, "response": "Beta"}, "66": {"stimulus": 38, "trial": 66, "rt": 596, "response": "Beta"}, "67": {"stimulus": 66, "trial": 67, "rt": 637, "response": "Beta"}, "68": {"stimulus": 47, "trial": 68, "rt": 592, "response": "Beta"}, "69": {"stimulus": 54, "trial": 69, "rt": 610, "response": "Beta"}, "80": {"stimulus": 12, "trial": 80, "rt": 1554, "response": "Alpha"}, "52": {"stimulus": 14, "trial": 52, "rt": 1771, "response": "Alpha"}, "53": {"stimulus": 52, "trial": 53, "rt": 847, "response": "Alpha"}, "24": {"stimulus": 48, "trial": 24, "rt": 1349, "response": "Alpha"}, "25": {"stimulus": 55, "trial": 25, "rt": 1258, "response": "Beta"}, "26": {"stimulus": 64, "trial": 26, "rt": 1264, "response": "Beta"}, "27": {"stimulus": 26, "trial": 27, "rt": 840, "response": "Beta"}, "20": {"stimulus": 13, "trial": 20, "rt": 838, "response": "Alpha"}, "21": {"stimulus": 32, "trial": 21, "rt": 919, "response": "Alpha"}, "22": {"stimulus": 15, "trial": 22, "rt": 1379, "response": "Alpha"}, "23": {"stimulus": 25, "trial": 23, "rt": 921, "response": "Beta"}, "46": {"stimulus": 21, "trial": 46, "rt": 2930, "response": "Beta"}, "47": {"stimulus": 19, "trial": 47, "rt": 1090, "response": "Beta"}, "44": {"stimulus": 56, "trial": 44, "rt": 957, "response": "Beta"}, "45": {"stimulus": 16, "trial": 45, "rt": 828, "response": "Alpha"}, "28": {"stimulus": 63, "trial": 28, "rt": 791, "response": "Beta"}, "29": {"stimulus": 44, "trial": 29, "rt": 763, "response": "Beta"}, "40": {"stimulus": 11, "trial": 40, "rt": 787, "response": "Beta"}, "41": {"stimulus": 28, "trial": 41, "rt": 664, "response": "Beta"}, "1": {"stimulus": 71, "trial": 1, "rt": 917, "response": "Beta"}, "0": {"stimulus": 42, "trial": 0, "rt": 2907, "response": "Beta"}, "3": {"stimulus": 33, "trial": 3, "rt": 761, "response": "Alpha"}, "2": {"stimulus": 49, "trial": 2, "rt": 880, "response": "Alpha"}, "5": {"stimulus": 58, "trial": 5, "rt": 891, "response": "Alpha"}, "4": {"stimulus": 2, "trial": 4, "rt": 1371, "response": "Beta"}, "7": {"stimulus": 62, "trial": 7, "rt": 1020, "response": "Beta"}, "6": {"stimulus": 37, "trial": 6, "rt": 861, "response": "Beta"}, "9": {"stimulus": 4, "trial": 9, "rt": 2215, "response": "Alpha"}, "8": {"stimulus": 23, "trial": 8, "rt": 1042, "response": "Alpha"}, "78": {"stimulus": 40, "trial": 78, "rt": 776, "response": "Alpha"}, "51": {"stimulus": 78, "trial": 51, "rt": 2327, "response": "Alpha"}, "39": {"stimulus": 69, "trial": 39, "rt": 820, "response": "Alpha"}, "65": {"stimulus": 74, "trial": 65, "rt": 628, "response": "Beta"}, "76": {"stimulus": 6, "trial": 76, "rt": 746, "response": "Alpha"}, "75": {"stimulus": 7, "trial": 75, "rt": 821, "response": "Alpha"}, "38": {"stimulus": 1, "trial": 38, "rt": 656, "response": "Beta"}, "73": {"stimulus": 77, "trial": 73, "rt": 808, "response": "Alpha"}, "72": {"stimulus": 45, "trial": 72, "rt": 610, "response": "Beta"}, "71": {"stimulus": 35, "trial": 71, "rt": 796, "response": "Beta"}, "70": {"stimulus": 9, "trial": 70, "rt": 627, "response": "Beta"}, "59": {"stimulus": 41, "trial": 59, "rt": 793, "response": "Alpha"}, "79": {"stimulus": 72, "trial": 79, "rt": 702, "response": "Beta"}, "58": {"stimulus": 0, "trial": 58, "rt": 1207, "response": "Beta"}, "11": {"stimulus": 27, "trial": 11, "rt": 891, "response": "Beta"}, "10": {"stimulus": 30, "trial": 10, "rt": 1092, "response": "Alpha"}, "13": {"stimulus": 10, "trial": 13, "rt": 855, "response": "Beta"}, "12": {"stimulus": 36, "trial": 12, "rt": 825, "response": "Beta"}, "15": {"stimulus": 59, "trial": 15, "rt": 918, "response": "Alpha"}, "14": {"stimulus": 34, "trial": 14, "rt": 889, "response": "Alpha"}, "17": {"stimulus": 8, "trial": 17, "rt": 744, "response": "Beta"}, "16": {"stimulus": 68, "trial": 16, "rt": 855, "response": "Alpha"}, "19": {"stimulus": 17, "trial": 19, "rt": 783, "response": "Beta"}, "18": {"stimulus": 31, "trial": 18, "rt": 837, "response": "Alpha"}, "31": {"stimulus": 79, "trial": 31, "rt": 1541, "response": "Beta"}, "30": {"stimulus": 57, "trial": 30, "rt": 973, "response": "Alpha"}, "37": {"stimulus": 73, "trial": 37, "rt": 743, "response": "Beta"}, "36": {"stimulus": 60, "trial": 36, "rt": 6286, "response": "Alpha"}, "35": {"stimulus": 43, "trial": 35, "rt": 1155, "response": "Alpha"}, "34": {"stimulus": 76, "trial": 34, "rt": 682, "response": "Alpha"}, "33": {"stimulus": 22, "trial": 33, "rt": 785, "response": "Alpha"}, "55": {"stimulus": 75, "trial": 55, "rt": 933, "response": "Alpha"}, "74": {"stimulus": 39, "trial": 74, "rt": 1472, "response": "Alpha"}, "32": {"stimulus": 3, "trial": 32, "rt": 794, "response": "Alpha"}, "57": {"stimulus": 5, "trial": 57, "rt": 805, "response": "Alpha"}, "50": {"stimulus": 67, "trial": 50, "rt": 753, "response": "Alpha"}}, "experiment": {"Paradigm": "TACL", "Stimuli": "Size-Color Squares", "Experiment": "Generating-Multiple-Categories"}, "submit": {"timeTotal": 2702966, "age": "41", "comments": "it was actually a bit fun", "sex": "male"}}