{"info": {"finish": 1535060491037, "participant": 49, "exposed": true, "lab": false, "start": 1535060209047, "counterbalance": 3, "gentype": 2, "condition": "Middle", "browser": {"platform": "MacIntel", "userAgent": "Mozilla/5.0 (Macintosh; Intel Mac OS X 10_14_0) AppleWebKit/537.36 (KHTML, like Gecko) Chrome/69.0.3497.42 Safari/537.36"}}, "observation": {"11": {"stimulus": 30, "trial": 11, "rt": 1325}, "10": {"stimulus": 50, "trial": 10, "rt": 1418}, "1": {"stimulus": 48, "trial": 1, "rt": 1571}, "0": {"stimulus": 30, "trial": 0, "rt": 2214}, "3": {"stimulus": 32, "trial": 3, "rt": 1537}, "2": {"stimulus": 50, "trial": 2, "rt": 1550}, "5": {"stimulus": 30, "trial": 5, "rt": 1698}, "4": {"stimulus": 48, "trial": 4, "rt": 1542}, "7": {"stimulus": 50, "trial": 7, "rt": 1391}, "6": {"stimulus": 32, "trial": 6, "rt": 1721}, "9": {"stimulus": 48, "trial": 9, "rt": 1479}, "8": {"stimulus": 32, "trial": 8, "rt": 2167}}, "generation": {"1": {"category": "Beta", "trial": 1, "stimulus": 65, "rt": 4001}, "0": {"category": "Beta", "trial": 0, "stimulus": 71, "rt": 13064}, "3": {"category": "Beta", "trial": 3, "stimulus": 77, "rt": 2862}, "2": {"category": "Beta", "trial": 2, "stimulus": 73, "rt": 3464}, "5": {"category": "Gamma", "trial": 5, "stimulus": 0, "rt": 2481}, "4": {"category": "Gamma", "trial": 4, "stimulus": 8, "rt": 3370}, "7": {"category": "Gamma", "trial": 7, "stimulus": 6, "rt": 2815}, "6": {"category": "Gamma", "trial": 6, "stimulus": 3, "rt": 1922}}, "generalization": {"56": {"stimulus": 44, "trial": 56, "rt": 852, "response": "Alpha"}, "77": {"stimulus": 61, "trial": 77, "rt": 1237, "response": "Alpha"}, "54": {"stimulus": 69, "trial": 54, "rt": 1646, "response": "Beta"}, "42": {"stimulus": 28, "trial": 42, "rt": 1003, "response": "Alpha"}, "48": {"stimulus": 17, "trial": 48, "rt": 2295, "response": "Alpha"}, "43": {"stimulus": 29, "trial": 43, "rt": 756, "response": "Alpha"}, "60": {"stimulus": 78, "trial": 60, "rt": 830, "response": "Beta"}, "61": {"stimulus": 79, "trial": 61, "rt": 694, "response": "Beta"}, "62": {"stimulus": 9, "trial": 62, "rt": 1491, "response": "Gamma"}, "63": {"stimulus": 35, "trial": 63, "rt": 875, "response": "Alpha"}, "64": {"stimulus": 48, "trial": 64, "rt": 922, "response": "Alpha"}, "49": {"stimulus": 33, "trial": 49, "rt": 824, "response": "Alpha"}, "66": {"stimulus": 31, "trial": 66, "rt": 801, "response": "Alpha"}, "67": {"stimulus": 32, "trial": 67, "rt": 608, "response": "Alpha"}, "68": {"stimulus": 24, "trial": 68, "rt": 1010, "response": "Alpha"}, "69": {"stimulus": 76, "trial": 69, "rt": 797, "response": "Beta"}, "80": {"stimulus": 8, "trial": 80, "rt": 1051, "response": "Gamma"}, "52": {"stimulus": 75, "trial": 52, "rt": 670, "response": "Beta"}, "53": {"stimulus": 39, "trial": 53, "rt": 841, "response": "Alpha"}, "24": {"stimulus": 3, "trial": 24, "rt": 1892, "response": "Gamma"}, "25": {"stimulus": 60, "trial": 25, "rt": 858, "response": "Alpha"}, "26": {"stimulus": 64, "trial": 26, "rt": 679, "response": "Beta"}, "27": {"stimulus": 15, "trial": 27, "rt": 1289, "response": "Alpha"}, "20": {"stimulus": 1, "trial": 20, "rt": 823, "response": "Gamma"}, "21": {"stimulus": 6, "trial": 21, "rt": 774, "response": "Gamma"}, "22": {"stimulus": 47, "trial": 22, "rt": 1032, "response": "Alpha"}, "23": {"stimulus": 74, "trial": 23, "rt": 682, "response": "Beta"}, "46": {"stimulus": 56, "trial": 46, "rt": 1353, "response": "Alpha"}, "47": {"stimulus": 26, "trial": 47, "rt": 1433, "response": "Alpha"}, "44": {"stimulus": 42, "trial": 44, "rt": 708, "response": "Alpha"}, "45": {"stimulus": 18, "trial": 45, "rt": 993, "response": "Alpha"}, "28": {"stimulus": 59, "trial": 28, "rt": 1151, "response": "Alpha"}, "29": {"stimulus": 40, "trial": 29, "rt": 910, "response": "Alpha"}, "40": {"stimulus": 66, "trial": 40, "rt": 688, "response": "Beta"}, "41": {"stimulus": 53, "trial": 41, "rt": 819, "response": "Alpha"}, "1": {"stimulus": 23, "trial": 1, "rt": 784, "response": "Alpha"}, "0": {"stimulus": 54, "trial": 0, "rt": 2193, "response": "Alpha"}, "3": {"stimulus": 73, "trial": 3, "rt": 704, "response": "Beta"}, "2": {"stimulus": 70, "trial": 2, "rt": 908, "response": "Beta"}, "5": {"stimulus": 68, "trial": 5, "rt": 487, "response": "Beta"}, "4": {"stimulus": 77, "trial": 4, "rt": 559, "response": "Beta"}, "7": {"stimulus": 16, "trial": 7, "rt": 549, "response": "Alpha"}, "6": {"stimulus": 27, "trial": 6, "rt": 923, "response": "Alpha"}, "9": {"stimulus": 22, "trial": 9, "rt": 614, "response": "Alpha"}, "8": {"stimulus": 34, "trial": 8, "rt": 925, "response": "Alpha"}, "78": {"stimulus": 67, "trial": 78, "rt": 736, "response": "Beta"}, "51": {"stimulus": 20, "trial": 51, "rt": 1142, "response": "Alpha"}, "39": {"stimulus": 62, "trial": 39, "rt": 959, "response": "Alpha"}, "65": {"stimulus": 50, "trial": 65, "rt": 666, "response": "Alpha"}, "76": {"stimulus": 51, "trial": 76, "rt": 894, "response": "Alpha"}, "75": {"stimulus": 5, "trial": 75, "rt": 771, "response": "Gamma"}, "38": {"stimulus": 49, "trial": 38, "rt": 1127, "response": "Alpha"}, "73": {"stimulus": 43, "trial": 73, "rt": 899, "response": "Alpha"}, "72": {"stimulus": 13, "trial": 72, "rt": 1272, "response": "Alpha"}, "71": {"stimulus": 55, "trial": 71, "rt": 1313, "response": "Alpha"}, "70": {"stimulus": 38, "trial": 70, "rt": 820, "response": "Alpha"}, "59": {"stimulus": 30, "trial": 59, "rt": 597, "response": "Alpha"}, "79": {"stimulus": 36, "trial": 79, "rt": 3747, "response": "Alpha"}, "58": {"stimulus": 21, "trial": 58, "rt": 1078, "response": "Alpha"}, "11": {"stimulus": 25, "trial": 11, "rt": 873, "response": "Alpha"}, "10": {"stimulus": 65, "trial": 10, "rt": 1095, "response": "Beta"}, "13": {"stimulus": 41, "trial": 13, "rt": 870, "response": "Alpha"}, "12": {"stimulus": 19, "trial": 12, "rt": 821, "response": "Alpha"}, "15": {"stimulus": 11, "trial": 15, "rt": 1421, "response": "Alpha"}, "14": {"stimulus": 80, "trial": 14, "rt": 725, "response": "Beta"}, "17": {"stimulus": 12, "trial": 17, "rt": 699, "response": "Alpha"}, "16": {"stimulus": 10, "trial": 16, "rt": 621, "response": "Alpha"}, "19": {"stimulus": 63, "trial": 19, "rt": 729, "response": "Beta"}, "18": {"stimulus": 2, "trial": 18, "rt": 1175, "response": "Gamma"}, "31": {"stimulus": 4, "trial": 31, "rt": 702, "response": "Gamma"}, "30": {"stimulus": 0, "trial": 30, "rt": 910, "response": "Gamma"}, "37": {"stimulus": 71, "trial": 37, "rt": 920, "response": "Beta"}, "36": {"stimulus": 37, "trial": 36, "rt": 716, "response": "Alpha"}, "35": {"stimulus": 45, "trial": 35, "rt": 1126, "response": "Alpha"}, "34": {"stimulus": 57, "trial": 34, "rt": 726, "response": "Beta"}, "33": {"stimulus": 46, "trial": 33, "rt": 874, "response": "Beta"}, "55": {"stimulus": 72, "trial": 55, "rt": 1075, "response": "Beta"}, "74": {"stimulus": 7, "trial": 74, "rt": 1456, "response": "Gamma"}, "32": {"stimulus": 14, "trial": 32, "rt": 1323, "response": "Alpha"}, "57": {"stimulus": 52, "trial": 57, "rt": 576, "response": "Alpha"}, "50": {"stimulus": 58, "trial": 50, "rt": 924, "response": "Alpha"}}, "experiment": {"Paradigm": "TACL", "Stimuli": "Size-Color Squares", "Experiment": "Generating-Multiple-Categories"}, "submit": {"timeTotal": 282218, "age": "22", "comments": "", "sex": "Female"}}