{"info": {"finish": 1535062448856, "participant": 54, "exposed": true, "lab": false, "start": 1535062194795, "counterbalance": 1, "gentype": 1, "condition": "Bottom", "browser": {"platform": "Win32", "userAgent": "Mozilla/5.0 (Windows NT 6.1) AppleWebKit/537.36 (KHTML, like Gecko) Chrome/68.0.3440.106 Safari/537.36"}}, "observation": {"11": {"stimulus": 12, "trial": 11, "rt": 1590}, "10": {"stimulus": 14, "trial": 10, "rt": 1404}, "1": {"stimulus": 12, "trial": 1, "rt": 1559}, "0": {"stimulus": 32, "trial": 0, "rt": 3374}, "3": {"stimulus": 14, "trial": 3, "rt": 1702}, "2": {"stimulus": 30, "trial": 2, "rt": 1374}, "5": {"stimulus": 30, "trial": 5, "rt": 4205}, "4": {"stimulus": 32, "trial": 4, "rt": 1447}, "7": {"stimulus": 14, "trial": 7, "rt": 1352}, "6": {"stimulus": 12, "trial": 6, "rt": 1435}, "9": {"stimulus": 30, "trial": 9, "rt": 1357}, "8": {"stimulus": 32, "trial": 8, "rt": 1151}}, "generation": {"1": {"category": "Beta", "trial": 1, "stimulus": 31, "rt": 2598}, "0": {"category": "Beta", "trial": 0, "stimulus": 32, "rt": 10928}, "3": {"category": "Beta", "trial": 3, "stimulus": 28, "rt": 5928}, "2": {"category": "Beta", "trial": 2, "stimulus": 30, "rt": 5884}, "5": {"category": "Beta", "trial": 5, "stimulus": 33, "rt": 1613}, "4": {"category": "Beta", "trial": 4, "stimulus": 29, "rt": 2624}, "7": {"category": "Beta", "trial": 7, "stimulus": 39, "rt": 2868}, "6": {"category": "Beta", "trial": 6, "stimulus": 38, "rt": 5681}}, "generalization": {"56": {"stimulus": 76, "trial": 56, "rt": 1631, "response": "Beta"}, "77": {"stimulus": 56, "trial": 77, "rt": 1407, "response": "Alpha"}, "54": {"stimulus": 30, "trial": 54, "rt": 1527, "response": "Alpha"}, "42": {"stimulus": 28, "trial": 42, "rt": 1086, "response": "Alpha"}, "48": {"stimulus": 31, "trial": 48, "rt": 743, "response": "Alpha"}, "43": {"stimulus": 2, "trial": 43, "rt": 731, "response": "Alpha"}, "60": {"stimulus": 32, "trial": 60, "rt": 1071, "response": "Alpha"}, "61": {"stimulus": 15, "trial": 61, "rt": 575, "response": "Alpha"}, "62": {"stimulus": 29, "trial": 62, "rt": 551, "response": "Alpha"}, "63": {"stimulus": 51, "trial": 63, "rt": 523, "response": "Alpha"}, "64": {"stimulus": 33, "trial": 64, "rt": 821, "response": "Alpha"}, "49": {"stimulus": 14, "trial": 49, "rt": 1111, "response": "Alpha"}, "66": {"stimulus": 72, "trial": 66, "rt": 750, "response": "Beta"}, "67": {"stimulus": 62, "trial": 67, "rt": 894, "response": "Beta"}, "68": {"stimulus": 34, "trial": 68, "rt": 502, "response": "Beta"}, "69": {"stimulus": 50, "trial": 69, "rt": 445, "response": "Alpha"}, "80": {"stimulus": 8, "trial": 80, "rt": 1359, "response": "Alpha"}, "52": {"stimulus": 24, "trial": 52, "rt": 1525, "response": "Alpha"}, "53": {"stimulus": 26, "trial": 53, "rt": 635, "response": "Alpha"}, "24": {"stimulus": 49, "trial": 24, "rt": 1181, "response": "Beta"}, "25": {"stimulus": 46, "trial": 25, "rt": 991, "response": "Beta"}, "26": {"stimulus": 37, "trial": 26, "rt": 902, "response": "Beta"}, "27": {"stimulus": 66, "trial": 27, "rt": 1038, "response": "Alpha"}, "20": {"stimulus": 63, "trial": 20, "rt": 742, "response": "Beta"}, "21": {"stimulus": 57, "trial": 21, "rt": 615, "response": "Beta"}, "22": {"stimulus": 25, "trial": 22, "rt": 1200, "response": "Alpha"}, "23": {"stimulus": 6, "trial": 23, "rt": 799, "response": "Alpha"}, "46": {"stimulus": 68, "trial": 46, "rt": 1319, "response": "Beta"}, "47": {"stimulus": 7, "trial": 47, "rt": 805, "response": "Alpha"}, "44": {"stimulus": 16, "trial": 44, "rt": 819, "response": "Alpha"}, "45": {"stimulus": 18, "trial": 45, "rt": 1463, "response": "Alpha"}, "28": {"stimulus": 69, "trial": 28, "rt": 451, "response": "Beta"}, "29": {"stimulus": 42, "trial": 29, "rt": 422, "response": "Beta"}, "40": {"stimulus": 48, "trial": 40, "rt": 500, "response": "Alpha"}, "41": {"stimulus": 20, "trial": 41, "rt": 819, "response": "Alpha"}, "1": {"stimulus": 61, "trial": 1, "rt": 1020, "response": "Beta"}, "0": {"stimulus": 1, "trial": 0, "rt": 1835, "response": "Alpha"}, "3": {"stimulus": 19, "trial": 3, "rt": 630, "response": "Beta"}, "2": {"stimulus": 5, "trial": 2, "rt": 531, "response": "Alpha"}, "5": {"stimulus": 3, "trial": 5, "rt": 1070, "response": "Alpha"}, "4": {"stimulus": 43, "trial": 4, "rt": 1758, "response": "Beta"}, "7": {"stimulus": 35, "trial": 7, "rt": 1293, "response": "Alpha"}, "6": {"stimulus": 64, "trial": 6, "rt": 1525, "response": "Beta"}, "9": {"stimulus": 55, "trial": 9, "rt": 936, "response": "Beta"}, "8": {"stimulus": 10, "trial": 8, "rt": 677, "response": "Alpha"}, "78": {"stimulus": 59, "trial": 78, "rt": 1131, "response": "Beta"}, "51": {"stimulus": 75, "trial": 51, "rt": 712, "response": "Beta"}, "39": {"stimulus": 9, "trial": 39, "rt": 1414, "response": "Alpha"}, "65": {"stimulus": 60, "trial": 65, "rt": 1014, "response": "Beta"}, "76": {"stimulus": 53, "trial": 76, "rt": 1149, "response": "Beta"}, "75": {"stimulus": 4, "trial": 75, "rt": 446, "response": "Alpha"}, "38": {"stimulus": 12, "trial": 38, "rt": 512, "response": "Alpha"}, "73": {"stimulus": 47, "trial": 73, "rt": 1562, "response": "Alpha"}, "72": {"stimulus": 67, "trial": 72, "rt": 911, "response": "Beta"}, "71": {"stimulus": 21, "trial": 71, "rt": 568, "response": "Alpha"}, "70": {"stimulus": 22, "trial": 70, "rt": 494, "response": "Alpha"}, "59": {"stimulus": 65, "trial": 59, "rt": 542, "response": "Beta"}, "79": {"stimulus": 77, "trial": 79, "rt": 1069, "response": "Beta"}, "58": {"stimulus": 40, "trial": 58, "rt": 588, "response": "Alpha"}, "11": {"stimulus": 79, "trial": 11, "rt": 838, "response": "Beta"}, "10": {"stimulus": 38, "trial": 10, "rt": 869, "response": "Beta"}, "13": {"stimulus": 74, "trial": 13, "rt": 569, "response": "Beta"}, "12": {"stimulus": 71, "trial": 12, "rt": 1227, "response": "Beta"}, "15": {"stimulus": 39, "trial": 15, "rt": 1260, "response": "Alpha"}, "14": {"stimulus": 36, "trial": 14, "rt": 997, "response": "Alpha"}, "17": {"stimulus": 58, "trial": 17, "rt": 1111, "response": "Beta"}, "16": {"stimulus": 11, "trial": 16, "rt": 771, "response": "Alpha"}, "19": {"stimulus": 54, "trial": 19, "rt": 899, "response": "Beta"}, "18": {"stimulus": 44, "trial": 18, "rt": 1104, "response": "Alpha"}, "31": {"stimulus": 80, "trial": 31, "rt": 510, "response": "Beta"}, "30": {"stimulus": 73, "trial": 30, "rt": 605, "response": "Beta"}, "37": {"stimulus": 13, "trial": 37, "rt": 748, "response": "Alpha"}, "36": {"stimulus": 27, "trial": 36, "rt": 896, "response": "Alpha"}, "35": {"stimulus": 52, "trial": 35, "rt": 1344, "response": "Alpha"}, "34": {"stimulus": 78, "trial": 34, "rt": 777, "response": "Beta"}, "33": {"stimulus": 0, "trial": 33, "rt": 1302, "response": "Alpha"}, "55": {"stimulus": 17, "trial": 55, "rt": 719, "response": "Alpha"}, "74": {"stimulus": 23, "trial": 74, "rt": 611, "response": "Alpha"}, "32": {"stimulus": 45, "trial": 32, "rt": 455, "response": "Beta"}, "57": {"stimulus": 41, "trial": 57, "rt": 1446, "response": "Alpha"}, "50": {"stimulus": 70, "trial": 50, "rt": 1309, "response": "Beta"}}, "experiment": {"Paradigm": "TACL", "Stimuli": "Size-Color Squares", "Experiment": "Generating-Multiple-Categories"}, "submit": {"timeTotal": 255478, "age": "26", "comments": "none", "sex": "Male"}}