{"info": {"finish": 1535063078394, "participant": 55, "exposed": true, "lab": false, "start": 1535062694077, "counterbalance": 0, "gentype": 1, "condition": "Bottom", "browser": {"platform": "Linux x86_64", "userAgent": "Mozilla/5.0 (X11; Linux x86_64) AppleWebKit/537.36 (KHTML, like Gecko) Ubuntu Chromium/68.0.3440.75 Chrome/68.0.3440.75 Safari/537.36"}}, "observation": {"11": {"stimulus": 14, "trial": 11, "rt": 1654}, "10": {"stimulus": 30, "trial": 10, "rt": 2632}, "1": {"stimulus": 12, "trial": 1, "rt": 16172}, "0": {"stimulus": 32, "trial": 0, "rt": 17075}, "3": {"stimulus": 14, "trial": 3, "rt": 1475}, "2": {"stimulus": 30, "trial": 2, "rt": 2104}, "5": {"stimulus": 30, "trial": 5, "rt": 1762}, "4": {"stimulus": 12, "trial": 4, "rt": 1569}, "7": {"stimulus": 32, "trial": 7, "rt": 5117}, "6": {"stimulus": 14, "trial": 6, "rt": 1703}, "9": {"stimulus": 32, "trial": 9, "rt": 3334}, "8": {"stimulus": 12, "trial": 8, "rt": 1717}}, "generation": {"1": {"category": "Beta", "trial": 1, "stimulus": 8, "rt": 11427}, "0": {"category": "Beta", "trial": 0, "stimulus": 72, "rt": 9350}, "3": {"category": "Beta", "trial": 3, "stimulus": 26, "rt": 4806}, "2": {"category": "Beta", "trial": 2, "stimulus": 17, "rt": 5361}, "5": {"category": "Beta", "trial": 5, "stimulus": 7, "rt": 4458}, "4": {"category": "Beta", "trial": 4, "stimulus": 16, "rt": 13492}, "7": {"category": "Beta", "trial": 7, "stimulus": 25, "rt": 11942}, "6": {"category": "Beta", "trial": 6, "stimulus": 5, "rt": 10938}}, "generalization": {"56": {"stimulus": 2, "trial": 56, "rt": 665, "response": "Alpha"}, "77": {"stimulus": 43, "trial": 77, "rt": 1205, "response": "Beta"}, "54": {"stimulus": 60, "trial": 54, "rt": 949, "response": "Beta"}, "42": {"stimulus": 25, "trial": 42, "rt": 603, "response": "Beta"}, "48": {"stimulus": 70, "trial": 48, "rt": 1107, "response": "Beta"}, "43": {"stimulus": 61, "trial": 43, "rt": 881, "response": "Beta"}, "60": {"stimulus": 56, "trial": 60, "rt": 885, "response": "Alpha"}, "61": {"stimulus": 18, "trial": 61, "rt": 743, "response": "Alpha"}, "62": {"stimulus": 32, "trial": 62, "rt": 1070, "response": "Beta"}, "63": {"stimulus": 71, "trial": 63, "rt": 2447, "response": "Beta"}, "64": {"stimulus": 35, "trial": 64, "rt": 4957, "response": "Beta"}, "49": {"stimulus": 21, "trial": 49, "rt": 556, "response": "Alpha"}, "66": {"stimulus": 48, "trial": 66, "rt": 1719, "response": "Alpha"}, "67": {"stimulus": 28, "trial": 67, "rt": 2446, "response": "Alpha"}, "68": {"stimulus": 76, "trial": 68, "rt": 1125, "response": "Beta"}, "69": {"stimulus": 47, "trial": 69, "rt": 1466, "response": "Alpha"}, "80": {"stimulus": 7, "trial": 80, "rt": 1056, "response": "Beta"}, "52": {"stimulus": 31, "trial": 52, "rt": 854, "response": "Beta"}, "53": {"stimulus": 65, "trial": 53, "rt": 862, "response": "Alpha"}, "24": {"stimulus": 46, "trial": 24, "rt": 745, "response": "Alpha"}, "25": {"stimulus": 30, "trial": 25, "rt": 640, "response": "Alpha"}, "26": {"stimulus": 9, "trial": 26, "rt": 518, "response": "Alpha"}, "27": {"stimulus": 12, "trial": 27, "rt": 1067, "response": "Alpha"}, "20": {"stimulus": 16, "trial": 20, "rt": 2412, "response": "Beta"}, "21": {"stimulus": 33, "trial": 21, "rt": 1201, "response": "Beta"}, "22": {"stimulus": 50, "trial": 22, "rt": 554, "response": "Beta"}, "23": {"stimulus": 67, "trial": 23, "rt": 720, "response": "Beta"}, "46": {"stimulus": 29, "trial": 46, "rt": 849, "response": "Alpha"}, "47": {"stimulus": 42, "trial": 47, "rt": 1512, "response": "Beta"}, "44": {"stimulus": 11, "trial": 44, "rt": 1213, "response": "Alpha"}, "45": {"stimulus": 44, "trial": 45, "rt": 1029, "response": "Beta"}, "28": {"stimulus": 6, "trial": 28, "rt": 798, "response": "Beta"}, "29": {"stimulus": 75, "trial": 29, "rt": 1263, "response": "Alpha"}, "40": {"stimulus": 27, "trial": 40, "rt": 613, "response": "Alpha"}, "41": {"stimulus": 14, "trial": 41, "rt": 948, "response": "Beta"}, "1": {"stimulus": 79, "trial": 1, "rt": 797, "response": "Beta"}, "0": {"stimulus": 53, "trial": 0, "rt": 1938, "response": "Beta"}, "3": {"stimulus": 55, "trial": 3, "rt": 764, "response": "Alpha"}, "2": {"stimulus": 34, "trial": 2, "rt": 699, "response": "Beta"}, "5": {"stimulus": 78, "trial": 5, "rt": 1251, "response": "Beta"}, "4": {"stimulus": 8, "trial": 4, "rt": 1368, "response": "Beta"}, "7": {"stimulus": 17, "trial": 7, "rt": 952, "response": "Beta"}, "6": {"stimulus": 20, "trial": 6, "rt": 718, "response": "Alpha"}, "9": {"stimulus": 5, "trial": 9, "rt": 1026, "response": "Alpha"}, "8": {"stimulus": 26, "trial": 8, "rt": 991, "response": "Beta"}, "78": {"stimulus": 19, "trial": 78, "rt": 953, "response": "Alpha"}, "51": {"stimulus": 57, "trial": 51, "rt": 1726, "response": "Alpha"}, "39": {"stimulus": 1, "trial": 39, "rt": 950, "response": "Alpha"}, "65": {"stimulus": 58, "trial": 65, "rt": 28916, "response": "Beta"}, "76": {"stimulus": 39, "trial": 76, "rt": 1014, "response": "Beta"}, "75": {"stimulus": 64, "trial": 75, "rt": 532, "response": "Alpha"}, "38": {"stimulus": 22, "trial": 38, "rt": 915, "response": "Alpha"}, "73": {"stimulus": 10, "trial": 73, "rt": 802, "response": "Alpha"}, "72": {"stimulus": 54, "trial": 72, "rt": 899, "response": "Alpha"}, "71": {"stimulus": 62, "trial": 71, "rt": 992, "response": "Beta"}, "70": {"stimulus": 63, "trial": 70, "rt": 536, "response": "Alpha"}, "59": {"stimulus": 68, "trial": 59, "rt": 895, "response": "Beta"}, "79": {"stimulus": 77, "trial": 79, "rt": 1639, "response": "Beta"}, "58": {"stimulus": 40, "trial": 58, "rt": 920, "response": "Alpha"}, "11": {"stimulus": 66, "trial": 11, "rt": 575, "response": "Alpha"}, "10": {"stimulus": 51, "trial": 10, "rt": 1053, "response": "Beta"}, "13": {"stimulus": 15, "trial": 13, "rt": 1037, "response": "Beta"}, "12": {"stimulus": 49, "trial": 12, "rt": 743, "response": "Alpha"}, "15": {"stimulus": 73, "trial": 15, "rt": 1019, "response": "Alpha"}, "14": {"stimulus": 4, "trial": 14, "rt": 888, "response": "Beta"}, "17": {"stimulus": 38, "trial": 17, "rt": 1219, "response": "Alpha"}, "16": {"stimulus": 24, "trial": 16, "rt": 899, "response": "Beta"}, "19": {"stimulus": 37, "trial": 19, "rt": 877, "response": "Alpha"}, "18": {"stimulus": 80, "trial": 18, "rt": 1014, "response": "Beta"}, "31": {"stimulus": 23, "trial": 31, "rt": 733, "response": "Beta"}, "30": {"stimulus": 74, "trial": 30, "rt": 771, "response": "Alpha"}, "37": {"stimulus": 36, "trial": 37, "rt": 679, "response": "Alpha"}, "36": {"stimulus": 72, "trial": 36, "rt": 923, "response": "Alpha"}, "35": {"stimulus": 59, "trial": 35, "rt": 592, "response": "Beta"}, "34": {"stimulus": 69, "trial": 34, "rt": 722, "response": "Beta"}, "33": {"stimulus": 52, "trial": 33, "rt": 559, "response": "Alpha"}, "55": {"stimulus": 0, "trial": 55, "rt": 902, "response": "Alpha"}, "74": {"stimulus": 45, "trial": 74, "rt": 1440, "response": "Alpha"}, "32": {"stimulus": 3, "trial": 32, "rt": 601, "response": "Beta"}, "57": {"stimulus": 41, "trial": 57, "rt": 1179, "response": "Beta"}, "50": {"stimulus": 13, "trial": 50, "rt": 1375, "response": "Beta"}}, "experiment": {"Paradigm": "TACL", "Stimuli": "Size-Color Squares", "Experiment": "Generating-Multiple-Categories"}, "submit": {"timeTotal": 384566, "age": "32", "comments": "Thanks! It was fun. ", "sex": "female"}}