{"info": {"finish": 1535065187020, "participant": 57, "exposed": true, "lab": false, "start": 1535064855287, "counterbalance": 3, "gentype": 1, "condition": "Bottom", "browser": {"platform": "Win32", "userAgent": "Mozilla/5.0 (Windows NT 6.1; Win64; x64) AppleWebKit/537.36 (KHTML, like Gecko) Chrome/68.0.3440.106 Safari/537.36"}}, "observation": {"11": {"stimulus": 12, "trial": 11, "rt": 1447}, "10": {"stimulus": 30, "trial": 10, "rt": 1577}, "1": {"stimulus": 30, "trial": 1, "rt": 2774}, "0": {"stimulus": 14, "trial": 0, "rt": 2019}, "3": {"stimulus": 32, "trial": 3, "rt": 2255}, "2": {"stimulus": 12, "trial": 2, "rt": 2812}, "5": {"stimulus": 32, "trial": 5, "rt": 2512}, "4": {"stimulus": 12, "trial": 4, "rt": 2189}, "7": {"stimulus": 14, "trial": 7, "rt": 2609}, "6": {"stimulus": 30, "trial": 6, "rt": 2249}, "9": {"stimulus": 14, "trial": 9, "rt": 5752}, "8": {"stimulus": 32, "trial": 8, "rt": 1699}}, "generation": {"1": {"category": "Beta", "trial": 1, "stimulus": 68, "rt": 2917}, "0": {"category": "Beta", "trial": 0, "stimulus": 54, "rt": 11243}, "3": {"category": "Beta", "trial": 3, "stimulus": 25, "rt": 3569}, "2": {"category": "Beta", "trial": 2, "stimulus": 46, "rt": 3851}, "5": {"category": "Beta", "trial": 5, "stimulus": 24, "rt": 5020}, "4": {"category": "Beta", "trial": 4, "stimulus": 67, "rt": 5630}, "7": {"category": "Beta", "trial": 7, "stimulus": 80, "rt": 3218}, "6": {"category": "Beta", "trial": 6, "stimulus": 0, "rt": 5527}}, "generalization": {"56": {"stimulus": 25, "trial": 56, "rt": 653, "response": "Alpha"}, "77": {"stimulus": 45, "trial": 77, "rt": 10527, "response": "Alpha"}, "54": {"stimulus": 41, "trial": 54, "rt": 722, "response": "Beta"}, "42": {"stimulus": 56, "trial": 42, "rt": 1548, "response": "Beta"}, "48": {"stimulus": 64, "trial": 48, "rt": 1119, "response": "Beta"}, "43": {"stimulus": 74, "trial": 43, "rt": 635, "response": "Beta"}, "60": {"stimulus": 7, "trial": 60, "rt": 839, "response": "Beta"}, "61": {"stimulus": 77, "trial": 61, "rt": 781, "response": "Alpha"}, "62": {"stimulus": 76, "trial": 62, "rt": 869, "response": "Alpha"}, "63": {"stimulus": 22, "trial": 63, "rt": 1156, "response": "Beta"}, "64": {"stimulus": 32, "trial": 64, "rt": 8114, "response": "Beta"}, "49": {"stimulus": 4, "trial": 49, "rt": 1556, "response": "Alpha"}, "66": {"stimulus": 36, "trial": 66, "rt": 2654, "response": "Alpha"}, "67": {"stimulus": 26, "trial": 67, "rt": 1546, "response": "Beta"}, "68": {"stimulus": 16, "trial": 68, "rt": 1177, "response": "Beta"}, "69": {"stimulus": 61, "trial": 69, "rt": 866, "response": "Alpha"}, "80": {"stimulus": 44, "trial": 80, "rt": 334, "response": "Alpha"}, "52": {"stimulus": 33, "trial": 52, "rt": 837, "response": "Beta"}, "53": {"stimulus": 39, "trial": 53, "rt": 1020, "response": "Alpha"}, "24": {"stimulus": 12, "trial": 24, "rt": 681, "response": "Beta"}, "25": {"stimulus": 10, "trial": 25, "rt": 518, "response": "Alpha"}, "26": {"stimulus": 28, "trial": 26, "rt": 608, "response": "Beta"}, "27": {"stimulus": 66, "trial": 27, "rt": 1739, "response": "Beta"}, "20": {"stimulus": 13, "trial": 20, "rt": 814, "response": "Beta"}, "21": {"stimulus": 23, "trial": 21, "rt": 472, "response": "Alpha"}, "22": {"stimulus": 73, "trial": 22, "rt": 687, "response": "Alpha"}, "23": {"stimulus": 8, "trial": 23, "rt": 598, "response": "Beta"}, "46": {"stimulus": 6, "trial": 46, "rt": 1113, "response": "Alpha"}, "47": {"stimulus": 5, "trial": 47, "rt": 748, "response": "Beta"}, "44": {"stimulus": 71, "trial": 44, "rt": 1434, "response": "Alpha"}, "45": {"stimulus": 30, "trial": 45, "rt": 1294, "response": "Beta"}, "28": {"stimulus": 68, "trial": 28, "rt": 930, "response": "Alpha"}, "29": {"stimulus": 18, "trial": 29, "rt": 949, "response": "Beta"}, "40": {"stimulus": 9, "trial": 40, "rt": 750, "response": "Beta"}, "41": {"stimulus": 17, "trial": 41, "rt": 867, "response": "Alpha"}, "1": {"stimulus": 27, "trial": 1, "rt": 1066, "response": "Beta"}, "0": {"stimulus": 46, "trial": 0, "rt": 6782, "response": "Alpha"}, "3": {"stimulus": 72, "trial": 3, "rt": 802, "response": "Beta"}, "2": {"stimulus": 69, "trial": 2, "rt": 1405, "response": "Beta"}, "5": {"stimulus": 34, "trial": 5, "rt": 741, "response": "Alpha"}, "4": {"stimulus": 14, "trial": 4, "rt": 1011, "response": "Alpha"}, "7": {"stimulus": 58, "trial": 7, "rt": 347, "response": "Beta"}, "6": {"stimulus": 70, "trial": 6, "rt": 586, "response": "Beta"}, "9": {"stimulus": 37, "trial": 9, "rt": 311, "response": "Alpha"}, "8": {"stimulus": 15, "trial": 8, "rt": 403, "response": "Alpha"}, "78": {"stimulus": 11, "trial": 78, "rt": 2344, "response": "Beta"}, "51": {"stimulus": 19, "trial": 51, "rt": 922, "response": "Alpha"}, "39": {"stimulus": 24, "trial": 39, "rt": 1341, "response": "Beta"}, "65": {"stimulus": 43, "trial": 65, "rt": 948, "response": "Alpha"}, "76": {"stimulus": 55, "trial": 76, "rt": 6973, "response": "Beta"}, "75": {"stimulus": 60, "trial": 75, "rt": 2770, "response": "Alpha"}, "38": {"stimulus": 48, "trial": 38, "rt": 1886, "response": "Alpha"}, "73": {"stimulus": 57, "trial": 73, "rt": 1172, "response": "Beta"}, "72": {"stimulus": 51, "trial": 72, "rt": 5330, "response": "Alpha"}, "71": {"stimulus": 42, "trial": 71, "rt": 1377, "response": "Alpha"}, "70": {"stimulus": 65, "trial": 70, "rt": 7896, "response": "Beta"}, "59": {"stimulus": 54, "trial": 59, "rt": 739, "response": "Beta"}, "79": {"stimulus": 78, "trial": 79, "rt": 669, "response": "Beta"}, "58": {"stimulus": 21, "trial": 58, "rt": 959, "response": "Alpha"}, "11": {"stimulus": 52, "trial": 11, "rt": 310, "response": "Alpha"}, "10": {"stimulus": 40, "trial": 10, "rt": 530, "response": "Beta"}, "13": {"stimulus": 50, "trial": 13, "rt": 638, "response": "Alpha"}, "12": {"stimulus": 63, "trial": 12, "rt": 289, "response": "Alpha"}, "15": {"stimulus": 38, "trial": 15, "rt": 761, "response": "Beta"}, "14": {"stimulus": 53, "trial": 14, "rt": 324, "response": "Beta"}, "17": {"stimulus": 49, "trial": 17, "rt": 323, "response": "Beta"}, "16": {"stimulus": 31, "trial": 16, "rt": 689, "response": "Alpha"}, "19": {"stimulus": 1, "trial": 19, "rt": 498, "response": "Alpha"}, "18": {"stimulus": 2, "trial": 18, "rt": 559, "response": "Beta"}, "31": {"stimulus": 0, "trial": 31, "rt": 360, "response": "Alpha"}, "30": {"stimulus": 3, "trial": 30, "rt": 1514, "response": "Beta"}, "37": {"stimulus": 62, "trial": 37, "rt": 880, "response": "Beta"}, "36": {"stimulus": 79, "trial": 36, "rt": 794, "response": "Beta"}, "35": {"stimulus": 20, "trial": 35, "rt": 924, "response": "Alpha"}, "34": {"stimulus": 59, "trial": 34, "rt": 1041, "response": "Alpha"}, "33": {"stimulus": 47, "trial": 33, "rt": 995, "response": "Beta"}, "55": {"stimulus": 75, "trial": 55, "rt": 1337, "response": "Beta"}, "74": {"stimulus": 35, "trial": 74, "rt": 6638, "response": "Beta"}, "32": {"stimulus": 29, "trial": 32, "rt": 611, "response": "Beta"}, "57": {"stimulus": 67, "trial": 57, "rt": 959, "response": "Beta"}, "50": {"stimulus": 80, "trial": 50, "rt": 1217, "response": "Beta"}}, "experiment": {"Paradigm": "TACL", "Stimuli": "Size-Color Squares", "Experiment": "Generating-Multiple-Categories"}, "submit": {"timeTotal": 331877, "age": "22", "comments": "It was fun!", "sex": "Male"}}