{"info": {"finish": 1535345874632, "participant": 59, "exposed": true, "lab": false, "start": 1535345510711, "counterbalance": 5, "gentype": 1, "condition": "Bottom", "browser": {"platform": "Win32", "userAgent": "Mozilla/5.0 (Windows NT 10.0; Win64; x64) AppleWebKit/537.36 (KHTML, like Gecko) Chrome/68.0.3440.106 Safari/537.36"}}, "observation": {"11": {"stimulus": 14, "trial": 11, "rt": 1688}, "10": {"stimulus": 32, "trial": 10, "rt": 3770}, "1": {"stimulus": 14, "trial": 1, "rt": 2538}, "0": {"stimulus": 12, "trial": 0, "rt": 2440}, "3": {"stimulus": 32, "trial": 3, "rt": 1622}, "2": {"stimulus": 30, "trial": 2, "rt": 1172}, "5": {"stimulus": 14, "trial": 5, "rt": 1177}, "4": {"stimulus": 30, "trial": 4, "rt": 1320}, "7": {"stimulus": 32, "trial": 7, "rt": 2907}, "6": {"stimulus": 12, "trial": 6, "rt": 1650}, "9": {"stimulus": 30, "trial": 9, "rt": 1637}, "8": {"stimulus": 12, "trial": 8, "rt": 2818}}, "generation": {"1": {"category": "Beta", "trial": 1, "stimulus": 26, "rt": 42904}, "0": {"category": "Beta", "trial": 0, "stimulus": 43, "rt": 15952}, "3": {"category": "Beta", "trial": 3, "stimulus": 8, "rt": 5397}, "2": {"category": "Beta", "trial": 2, "stimulus": 17, "rt": 7070}, "5": {"category": "Beta", "trial": 5, "stimulus": 4, "rt": 15981}, "4": {"category": "Beta", "trial": 4, "stimulus": 6, "rt": 9812}, "7": {"category": "Beta", "trial": 7, "stimulus": 25, "rt": 6010}, "6": {"category": "Beta", "trial": 6, "stimulus": 24, "rt": 9106}}, "generalization": {"56": {"stimulus": 61, "trial": 56, "rt": 543, "response": "Alpha"}, "77": {"stimulus": 43, "trial": 77, "rt": 1760, "response": "Beta"}, "54": {"stimulus": 21, "trial": 54, "rt": 1126, "response": "Beta"}, "42": {"stimulus": 37, "trial": 42, "rt": 233, "response": "Beta"}, "48": {"stimulus": 26, "trial": 48, "rt": 1444, "response": "Beta"}, "43": {"stimulus": 55, "trial": 43, "rt": 77, "response": "Beta"}, "60": {"stimulus": 52, "trial": 60, "rt": 388, "response": "Alpha"}, "61": {"stimulus": 6, "trial": 61, "rt": 551, "response": "Alpha"}, "62": {"stimulus": 34, "trial": 62, "rt": 920, "response": "Beta"}, "63": {"stimulus": 0, "trial": 63, "rt": 1022, "response": "Beta"}, "64": {"stimulus": 8, "trial": 64, "rt": 1658, "response": "Alpha"}, "49": {"stimulus": 80, "trial": 49, "rt": 543, "response": "Beta"}, "66": {"stimulus": 65, "trial": 66, "rt": 1804, "response": "Beta"}, "67": {"stimulus": 69, "trial": 67, "rt": 1333, "response": "Beta"}, "68": {"stimulus": 38, "trial": 68, "rt": 1081, "response": "Beta"}, "69": {"stimulus": 22, "trial": 69, "rt": 920, "response": "Beta"}, "80": {"stimulus": 79, "trial": 80, "rt": 1952, "response": "Beta"}, "52": {"stimulus": 28, "trial": 52, "rt": 3187, "response": "Beta"}, "53": {"stimulus": 67, "trial": 53, "rt": 22884, "response": "Beta"}, "24": {"stimulus": 72, "trial": 24, "rt": 1193, "response": "Beta"}, "25": {"stimulus": 63, "trial": 25, "rt": 986, "response": "Beta"}, "26": {"stimulus": 31, "trial": 26, "rt": 1451, "response": "Alpha"}, "27": {"stimulus": 5, "trial": 27, "rt": 1111, "response": "Alpha"}, "20": {"stimulus": 45, "trial": 20, "rt": 1260, "response": "Beta"}, "21": {"stimulus": 12, "trial": 21, "rt": 1282, "response": "Alpha"}, "22": {"stimulus": 29, "trial": 22, "rt": 810, "response": "Beta"}, "23": {"stimulus": 73, "trial": 23, "rt": 1371, "response": "Beta"}, "46": {"stimulus": 77, "trial": 46, "rt": 1599, "response": "Alpha"}, "47": {"stimulus": 76, "trial": 47, "rt": 557, "response": "Alpha"}, "44": {"stimulus": 75, "trial": 44, "rt": 248, "response": "Beta"}, "45": {"stimulus": 62, "trial": 45, "rt": 1074, "response": "Beta"}, "28": {"stimulus": 54, "trial": 28, "rt": 1515, "response": "Beta"}, "29": {"stimulus": 57, "trial": 29, "rt": 1083, "response": "Beta"}, "40": {"stimulus": 58, "trial": 40, "rt": 447, "response": "Beta"}, "41": {"stimulus": 2, "trial": 41, "rt": 261, "response": "Beta"}, "1": {"stimulus": 44, "trial": 1, "rt": 2146, "response": "Beta"}, "0": {"stimulus": 51, "trial": 0, "rt": 4620, "response": "Alpha"}, "3": {"stimulus": 1, "trial": 3, "rt": 1466, "response": "Beta"}, "2": {"stimulus": 33, "trial": 2, "rt": 1585, "response": "Alpha"}, "5": {"stimulus": 19, "trial": 5, "rt": 426, "response": "Beta"}, "4": {"stimulus": 41, "trial": 4, "rt": 358, "response": "Alpha"}, "7": {"stimulus": 59, "trial": 7, "rt": 713, "response": "Alpha"}, "6": {"stimulus": 36, "trial": 6, "rt": 935, "response": "Beta"}, "9": {"stimulus": 64, "trial": 9, "rt": 292, "response": "Beta"}, "8": {"stimulus": 15, "trial": 8, "rt": 1429, "response": "Alpha"}, "78": {"stimulus": 70, "trial": 78, "rt": 1467, "response": "Beta"}, "51": {"stimulus": 17, "trial": 51, "rt": 898, "response": "Alpha"}, "39": {"stimulus": 74, "trial": 39, "rt": 296, "response": "Beta"}, "65": {"stimulus": 60, "trial": 65, "rt": 1140, "response": "Beta"}, "76": {"stimulus": 49, "trial": 76, "rt": 1184, "response": "Alpha"}, "75": {"stimulus": 16, "trial": 75, "rt": 1495, "response": "Beta"}, "38": {"stimulus": 7, "trial": 38, "rt": 264, "response": "Beta"}, "73": {"stimulus": 25, "trial": 73, "rt": 1391, "response": "Alpha"}, "72": {"stimulus": 56, "trial": 72, "rt": 875, "response": "Beta"}, "71": {"stimulus": 20, "trial": 71, "rt": 925, "response": "Beta"}, "70": {"stimulus": 11, "trial": 70, "rt": 808, "response": "Beta"}, "59": {"stimulus": 35, "trial": 59, "rt": 275, "response": "Alpha"}, "79": {"stimulus": 4, "trial": 79, "rt": 1407, "response": "Beta"}, "58": {"stimulus": 39, "trial": 58, "rt": 410, "response": "Alpha"}, "11": {"stimulus": 14, "trial": 11, "rt": 1688, "response": "Beta"}, "10": {"stimulus": 40, "trial": 10, "rt": 1808, "response": "Alpha"}, "13": {"stimulus": 18, "trial": 13, "rt": 1134, "response": "Beta"}, "12": {"stimulus": 42, "trial": 12, "rt": 1992, "response": "Alpha"}, "15": {"stimulus": 71, "trial": 15, "rt": 1925, "response": "Alpha"}, "14": {"stimulus": 47, "trial": 14, "rt": 1407, "response": "Beta"}, "17": {"stimulus": 78, "trial": 17, "rt": 1790, "response": "Alpha"}, "16": {"stimulus": 10, "trial": 16, "rt": 1237, "response": "Beta"}, "19": {"stimulus": 9, "trial": 19, "rt": 2913, "response": "Beta"}, "18": {"stimulus": 32, "trial": 18, "rt": 861, "response": "Alpha"}, "31": {"stimulus": 53, "trial": 31, "rt": 1983, "response": "Beta"}, "30": {"stimulus": 48, "trial": 30, "rt": 1479, "response": "Beta"}, "37": {"stimulus": 50, "trial": 37, "rt": 107, "response": "Alpha"}, "36": {"stimulus": 3, "trial": 36, "rt": 203, "response": "Alpha"}, "35": {"stimulus": 27, "trial": 35, "rt": 151, "response": "Alpha"}, "34": {"stimulus": 13, "trial": 34, "rt": 69, "response": "Alpha"}, "33": {"stimulus": 24, "trial": 33, "rt": 129, "response": "Alpha"}, "55": {"stimulus": 68, "trial": 55, "rt": 1127, "response": "Beta"}, "74": {"stimulus": 30, "trial": 74, "rt": 1340, "response": "Beta"}, "32": {"stimulus": 66, "trial": 32, "rt": 640, "response": "Alpha"}, "57": {"stimulus": 46, "trial": 57, "rt": 189, "response": "Alpha"}, "50": {"stimulus": 23, "trial": 50, "rt": 1050, "response": "Alpha"}}, "experiment": {"Paradigm": "TACL", "Stimuli": "Size-Color Squares", "Experiment": "Generating-Multiple-Categories"}, "submit": {"timeTotal": 364110, "age": "25", "comments": "", "sex": "female"}}