{"info": {"finish": 1535347322169, "participant": 61, "exposed": true, "lab": false, "start": 1535345512157, "counterbalance": 5, "gentype": 0, "condition": "Bottom", "browser": {"platform": "MacIntel", "userAgent": "Mozilla/5.0 (Macintosh; Intel Mac OS X 10_13_3) AppleWebKit/537.36 (KHTML, like Gecko) Chrome/68.0.3440.106 Safari/537.36"}}, "observation": {"11": {"stimulus": 12, "trial": 11, "rt": 1040}, "10": {"stimulus": 14, "trial": 10, "rt": 1121}, "1": {"stimulus": 32, "trial": 1, "rt": 712670}, "0": {"stimulus": 14, "trial": 0, "rt": 2700}, "3": {"stimulus": 12, "trial": 3, "rt": 4151}, "2": {"stimulus": 30, "trial": 2, "rt": 348330}, "5": {"stimulus": 14, "trial": 5, "rt": 1810}, "4": {"stimulus": 32, "trial": 4, "rt": 512341}, "7": {"stimulus": 12, "trial": 7, "rt": 2192}, "6": {"stimulus": 30, "trial": 6, "rt": 1017}, "9": {"stimulus": 30, "trial": 9, "rt": 1624}, "8": {"stimulus": 32, "trial": 8, "rt": 1197}}, "generation": {"1": {"category": "Not-Alpha", "trial": 1, "stimulus": 32, "rt": 5219}, "0": {"category": "Not-Alpha", "trial": 0, "stimulus": 31, "rt": 5603}, "3": {"category": "Not-Alpha", "trial": 3, "stimulus": 41, "rt": 18707}, "2": {"category": "Not-Alpha", "trial": 2, "stimulus": 58, "rt": 3498}, "5": {"category": "Not-Alpha", "trial": 5, "stimulus": 53, "rt": 2473}, "4": {"category": "Not-Alpha", "trial": 4, "stimulus": 7, "rt": 6836}, "7": {"category": "Not-Alpha", "trial": 7, "stimulus": 25, "rt": 3189}, "6": {"category": "Not-Alpha", "trial": 6, "stimulus": 72, "rt": 4322}}, "generalization": {"56": {"stimulus": 34, "trial": 56, "rt": 79, "response": "Alpha"}, "77": {"stimulus": 55, "trial": 77, "rt": 75, "response": "Beta"}, "54": {"stimulus": 10, "trial": 54, "rt": 462, "response": "Beta"}, "42": {"stimulus": 48, "trial": 42, "rt": 105, "response": "Alpha"}, "48": {"stimulus": 68, "trial": 48, "rt": 498, "response": "Alpha"}, "43": {"stimulus": 52, "trial": 43, "rt": 65, "response": "Alpha"}, "60": {"stimulus": 16, "trial": 60, "rt": 173, "response": "Beta"}, "61": {"stimulus": 9, "trial": 61, "rt": 1576, "response": "Alpha"}, "62": {"stimulus": 38, "trial": 62, "rt": 59, "response": "Alpha"}, "63": {"stimulus": 73, "trial": 63, "rt": 486, "response": "Alpha"}, "64": {"stimulus": 59, "trial": 64, "rt": 279, "response": "Alpha"}, "49": {"stimulus": 78, "trial": 49, "rt": 352, "response": "Alpha"}, "66": {"stimulus": 37, "trial": 66, "rt": 201, "response": "Beta"}, "67": {"stimulus": 75, "trial": 67, "rt": 222, "response": "Beta"}, "68": {"stimulus": 4, "trial": 68, "rt": 244, "response": "Beta"}, "69": {"stimulus": 19, "trial": 69, "rt": 134, "response": "Beta"}, "80": {"stimulus": 47, "trial": 80, "rt": 91, "response": "Alpha"}, "52": {"stimulus": 17, "trial": 52, "rt": 752, "response": "Alpha"}, "53": {"stimulus": 13, "trial": 53, "rt": 797, "response": "Beta"}, "24": {"stimulus": 70, "trial": 24, "rt": 232, "response": "Beta"}, "25": {"stimulus": 66, "trial": 25, "rt": 564, "response": "Beta"}, "26": {"stimulus": 65, "trial": 26, "rt": 910, "response": "Alpha"}, "27": {"stimulus": 50, "trial": 27, "rt": 830, "response": "Alpha"}, "20": {"stimulus": 7, "trial": 20, "rt": 25214, "response": "Beta"}, "21": {"stimulus": 3, "trial": 21, "rt": 518, "response": "Beta"}, "22": {"stimulus": 21, "trial": 22, "rt": 551, "response": "Alpha"}, "23": {"stimulus": 25, "trial": 23, "rt": 379, "response": "Alpha"}, "46": {"stimulus": 60, "trial": 46, "rt": 153, "response": "Alpha"}, "47": {"stimulus": 42, "trial": 47, "rt": 472, "response": "Alpha"}, "44": {"stimulus": 43, "trial": 44, "rt": 289, "response": "Alpha"}, "45": {"stimulus": 26, "trial": 45, "rt": 178, "response": "Alpha"}, "28": {"stimulus": 8, "trial": 28, "rt": 1001, "response": "Beta"}, "29": {"stimulus": 30, "trial": 29, "rt": 1072, "response": "Alpha"}, "40": {"stimulus": 1, "trial": 40, "rt": 41, "response": "Alpha"}, "41": {"stimulus": 33, "trial": 41, "rt": 37, "response": "Alpha"}, "1": {"stimulus": 61, "trial": 1, "rt": 386, "response": "Alpha"}, "0": {"stimulus": 49, "trial": 0, "rt": 1491, "response": "Alpha"}, "3": {"stimulus": 58, "trial": 3, "rt": 660, "response": "Beta"}, "2": {"stimulus": 6, "trial": 2, "rt": 549, "response": "Alpha"}, "5": {"stimulus": 23, "trial": 5, "rt": 255, "response": "Beta"}, "4": {"stimulus": 63, "trial": 4, "rt": 453, "response": "Beta"}, "7": {"stimulus": 36, "trial": 7, "rt": 410, "response": "Alpha"}, "6": {"stimulus": 41, "trial": 6, "rt": 516, "response": "Alpha"}, "9": {"stimulus": 14, "trial": 9, "rt": 378, "response": "Alpha"}, "8": {"stimulus": 53, "trial": 8, "rt": 236, "response": "Alpha"}, "78": {"stimulus": 77, "trial": 78, "rt": 108, "response": "Beta"}, "51": {"stimulus": 11, "trial": 51, "rt": 241, "response": "Beta"}, "39": {"stimulus": 80, "trial": 39, "rt": 11, "response": "Alpha"}, "65": {"stimulus": 29, "trial": 65, "rt": 614, "response": "Beta"}, "76": {"stimulus": 57, "trial": 76, "rt": 118, "response": "Beta"}, "75": {"stimulus": 54, "trial": 75, "rt": 164, "response": "Beta"}, "38": {"stimulus": 69, "trial": 38, "rt": 149, "response": "Alpha"}, "73": {"stimulus": 31, "trial": 73, "rt": 24, "response": "Alpha"}, "72": {"stimulus": 40, "trial": 72, "rt": 8, "response": "Alpha"}, "71": {"stimulus": 35, "trial": 71, "rt": 430, "response": "Alpha"}, "70": {"stimulus": 67, "trial": 70, "rt": 100, "response": "Beta"}, "59": {"stimulus": 56, "trial": 59, "rt": 111, "response": "Beta"}, "79": {"stimulus": 45, "trial": 79, "rt": 85, "response": "Alpha"}, "58": {"stimulus": 12, "trial": 58, "rt": 467, "response": "Beta"}, "11": {"stimulus": 39, "trial": 11, "rt": 184, "response": "Beta"}, "10": {"stimulus": 27, "trial": 10, "rt": 442, "response": "Beta"}, "13": {"stimulus": 5, "trial": 13, "rt": 267, "response": "Beta"}, "12": {"stimulus": 28, "trial": 12, "rt": 299, "response": "Beta"}, "15": {"stimulus": 71, "trial": 15, "rt": 329, "response": "Alpha"}, "14": {"stimulus": 0, "trial": 14, "rt": 134, "response": "Beta"}, "17": {"stimulus": 32, "trial": 17, "rt": 2699, "response": "Beta"}, "16": {"stimulus": 79, "trial": 16, "rt": 596, "response": "Beta"}, "19": {"stimulus": 22, "trial": 19, "rt": 606, "response": "Beta"}, "18": {"stimulus": 20, "trial": 18, "rt": 523, "response": "Alpha"}, "31": {"stimulus": 62, "trial": 31, "rt": 567, "response": "Beta"}, "30": {"stimulus": 44, "trial": 30, "rt": 661, "response": "Beta"}, "37": {"stimulus": 18, "trial": 37, "rt": 168, "response": "Alpha"}, "36": {"stimulus": 64, "trial": 36, "rt": 125, "response": "Alpha"}, "35": {"stimulus": 46, "trial": 35, "rt": 185, "response": "Beta"}, "34": {"stimulus": 74, "trial": 34, "rt": 1254, "response": "Beta"}, "33": {"stimulus": 51, "trial": 33, "rt": 409, "response": "Beta"}, "55": {"stimulus": 2, "trial": 55, "rt": 399, "response": "Alpha"}, "74": {"stimulus": 15, "trial": 74, "rt": 110, "response": "Beta"}, "32": {"stimulus": 24, "trial": 32, "rt": 382, "response": "Beta"}, "57": {"stimulus": 72, "trial": 57, "rt": 98, "response": "Alpha"}, "50": {"stimulus": 76, "trial": 50, "rt": 723, "response": "Beta"}}, "experiment": {"Paradigm": "TACL", "Stimuli": "Size-Color Squares", "Experiment": "Generating-Multiple-Categories"}, "submit": {"timeTotal": 1810305, "age": "33", "comments": "thanks", "sex": "m"}}