{"info": {"finish": 1535350381261, "participant": 68, "exposed": true, "lab": false, "start": 1535349985748, "counterbalance": 3, "gentype": 1, "condition": "Middle", "browser": {"platform": "Win32", "userAgent": "Mozilla/5.0 (Windows NT 6.1) AppleWebKit/537.36 (KHTML, like Gecko) Chrome/68.0.3440.106 Safari/537.36"}}, "observation": {"11": {"stimulus": 50, "trial": 11, "rt": 1782}, "10": {"stimulus": 30, "trial": 10, "rt": 1945}, "1": {"stimulus": 32, "trial": 1, "rt": 4639}, "0": {"stimulus": 50, "trial": 0, "rt": 14607}, "3": {"stimulus": 48, "trial": 3, "rt": 2301}, "2": {"stimulus": 30, "trial": 2, "rt": 17831}, "5": {"stimulus": 48, "trial": 5, "rt": 2768}, "4": {"stimulus": 50, "trial": 4, "rt": 2207}, "7": {"stimulus": 30, "trial": 7, "rt": 6534}, "6": {"stimulus": 32, "trial": 6, "rt": 1839}, "9": {"stimulus": 32, "trial": 9, "rt": 2112}, "8": {"stimulus": 48, "trial": 8, "rt": 2277}}, "generation": {"1": {"category": "Beta", "trial": 1, "stimulus": 29, "rt": 12017}, "0": {"category": "Beta", "trial": 0, "stimulus": 20, "rt": 32265}, "3": {"category": "Beta", "trial": 3, "stimulus": 49, "rt": 5524}, "2": {"category": "Beta", "trial": 2, "stimulus": 11, "rt": 19058}, "5": {"category": "Beta", "trial": 5, "stimulus": 36, "rt": 4982}, "4": {"category": "Beta", "trial": 4, "stimulus": 0, "rt": 4574}, "7": {"category": "Beta", "trial": 7, "stimulus": 64, "rt": 3809}, "6": {"category": "Beta", "trial": 6, "stimulus": 46, "rt": 2823}}, "generalization": {"56": {"stimulus": 16, "trial": 56, "rt": 2101, "response": "Alpha"}, "77": {"stimulus": 44, "trial": 77, "rt": 1312, "response": "Beta"}, "54": {"stimulus": 62, "trial": 54, "rt": 546, "response": "Beta"}, "42": {"stimulus": 47, "trial": 42, "rt": 632, "response": "Beta"}, "48": {"stimulus": 42, "trial": 48, "rt": 1085, "response": "Beta"}, "43": {"stimulus": 34, "trial": 43, "rt": 655, "response": "Beta"}, "60": {"stimulus": 28, "trial": 60, "rt": 710, "response": "Beta"}, "61": {"stimulus": 11, "trial": 61, "rt": 911, "response": "Beta"}, "62": {"stimulus": 48, "trial": 62, "rt": 1216, "response": "Beta"}, "63": {"stimulus": 25, "trial": 63, "rt": 824, "response": "Beta"}, "64": {"stimulus": 54, "trial": 64, "rt": 530, "response": "Beta"}, "49": {"stimulus": 53, "trial": 49, "rt": 504, "response": "Beta"}, "66": {"stimulus": 5, "trial": 66, "rt": 1136, "response": "Alpha"}, "67": {"stimulus": 43, "trial": 67, "rt": 1039, "response": "Beta"}, "68": {"stimulus": 14, "trial": 68, "rt": 520, "response": "Beta"}, "69": {"stimulus": 20, "trial": 69, "rt": 694, "response": "Beta"}, "80": {"stimulus": 26, "trial": 80, "rt": 880, "response": "Beta"}, "52": {"stimulus": 4, "trial": 52, "rt": 1080, "response": "Alpha"}, "53": {"stimulus": 63, "trial": 53, "rt": 541, "response": "Beta"}, "24": {"stimulus": 23, "trial": 24, "rt": 1671, "response": "Alpha"}, "25": {"stimulus": 61, "trial": 25, "rt": 583, "response": "Beta"}, "26": {"stimulus": 38, "trial": 26, "rt": 816, "response": "Beta"}, "27": {"stimulus": 46, "trial": 27, "rt": 461, "response": "Beta"}, "20": {"stimulus": 73, "trial": 20, "rt": 572, "response": "Beta"}, "21": {"stimulus": 79, "trial": 21, "rt": 487, "response": "Beta"}, "22": {"stimulus": 7, "trial": 22, "rt": 667, "response": "Beta"}, "23": {"stimulus": 13, "trial": 23, "rt": 414, "response": "Beta"}, "46": {"stimulus": 19, "trial": 46, "rt": 1605, "response": "Beta"}, "47": {"stimulus": 33, "trial": 47, "rt": 528, "response": "Beta"}, "44": {"stimulus": 72, "trial": 44, "rt": 552, "response": "Beta"}, "45": {"stimulus": 3, "trial": 45, "rt": 534, "response": "Beta"}, "28": {"stimulus": 30, "trial": 28, "rt": 1231, "response": "Alpha"}, "29": {"stimulus": 17, "trial": 29, "rt": 568, "response": "Beta"}, "40": {"stimulus": 41, "trial": 40, "rt": 1013, "response": "Beta"}, "41": {"stimulus": 75, "trial": 41, "rt": 818, "response": "Beta"}, "1": {"stimulus": 49, "trial": 1, "rt": 1938, "response": "Alpha"}, "0": {"stimulus": 40, "trial": 0, "rt": 4462, "response": "Alpha"}, "3": {"stimulus": 59, "trial": 3, "rt": 1025, "response": "Beta"}, "2": {"stimulus": 57, "trial": 2, "rt": 1143, "response": "Beta"}, "5": {"stimulus": 69, "trial": 5, "rt": 1088, "response": "Beta"}, "4": {"stimulus": 50, "trial": 4, "rt": 1276, "response": "Beta"}, "7": {"stimulus": 65, "trial": 7, "rt": 721, "response": "Beta"}, "6": {"stimulus": 55, "trial": 6, "rt": 774, "response": "Beta"}, "9": {"stimulus": 67, "trial": 9, "rt": 1159, "response": "Beta"}, "8": {"stimulus": 60, "trial": 8, "rt": 994, "response": "Beta"}, "78": {"stimulus": 29, "trial": 78, "rt": 552, "response": "Beta"}, "51": {"stimulus": 22, "trial": 51, "rt": 976, "response": "Alpha"}, "39": {"stimulus": 45, "trial": 39, "rt": 920, "response": "Beta"}, "65": {"stimulus": 70, "trial": 65, "rt": 708, "response": "Beta"}, "76": {"stimulus": 51, "trial": 76, "rt": 1504, "response": "Beta"}, "75": {"stimulus": 77, "trial": 75, "rt": 606, "response": "Beta"}, "38": {"stimulus": 8, "trial": 38, "rt": 576, "response": "Beta"}, "73": {"stimulus": 64, "trial": 73, "rt": 512, "response": "Beta"}, "72": {"stimulus": 78, "trial": 72, "rt": 585, "response": "Beta"}, "71": {"stimulus": 32, "trial": 71, "rt": 1096, "response": "Alpha"}, "70": {"stimulus": 1, "trial": 70, "rt": 599, "response": "Beta"}, "59": {"stimulus": 37, "trial": 59, "rt": 1160, "response": "Beta"}, "79": {"stimulus": 10, "trial": 79, "rt": 647, "response": "Beta"}, "58": {"stimulus": 27, "trial": 58, "rt": 648, "response": "Beta"}, "11": {"stimulus": 2, "trial": 11, "rt": 751, "response": "Beta"}, "10": {"stimulus": 56, "trial": 10, "rt": 1047, "response": "Beta"}, "13": {"stimulus": 80, "trial": 13, "rt": 830, "response": "Beta"}, "12": {"stimulus": 66, "trial": 12, "rt": 1113, "response": "Beta"}, "15": {"stimulus": 71, "trial": 15, "rt": 654, "response": "Beta"}, "14": {"stimulus": 6, "trial": 14, "rt": 967, "response": "Beta"}, "17": {"stimulus": 18, "trial": 17, "rt": 754, "response": "Beta"}, "16": {"stimulus": 58, "trial": 16, "rt": 510, "response": "Beta"}, "19": {"stimulus": 74, "trial": 19, "rt": 583, "response": "Beta"}, "18": {"stimulus": 68, "trial": 18, "rt": 785, "response": "Beta"}, "31": {"stimulus": 35, "trial": 31, "rt": 521, "response": "Beta"}, "30": {"stimulus": 15, "trial": 30, "rt": 751, "response": "Beta"}, "37": {"stimulus": 12, "trial": 37, "rt": 985, "response": "Alpha"}, "36": {"stimulus": 21, "trial": 36, "rt": 1135, "response": "Alpha"}, "35": {"stimulus": 39, "trial": 35, "rt": 576, "response": "Beta"}, "34": {"stimulus": 0, "trial": 34, "rt": 523, "response": "Beta"}, "33": {"stimulus": 76, "trial": 33, "rt": 475, "response": "Beta"}, "55": {"stimulus": 24, "trial": 55, "rt": 1384, "response": "Alpha"}, "74": {"stimulus": 52, "trial": 74, "rt": 1137, "response": "Beta"}, "32": {"stimulus": 31, "trial": 32, "rt": 1030, "response": "Alpha"}, "57": {"stimulus": 36, "trial": 57, "rt": 1032, "response": "Beta"}, "50": {"stimulus": 9, "trial": 50, "rt": 767, "response": "Beta"}}, "experiment": {"Paradigm": "TACL", "Stimuli": "Size-Color Squares", "Experiment": "Generating-Multiple-Categories"}, "submit": {"timeTotal": 397181, "age": "27", "comments": "IT'S VERY NICE.", "sex": "MALE"}}