{"info": {"finish": 1535356052259, "participant": 69, "exposed": true, "lab": false, "start": 1535352741901, "counterbalance": 0, "gentype": 0, "condition": "Middle", "browser": {"platform": "Win32", "userAgent": "Mozilla/5.0 (Windows NT 10.0; Win64; x64) AppleWebKit/537.36 (KHTML, like Gecko) Chrome/68.0.3440.106 Safari/537.36"}}, "observation": {"11": {"stimulus": 30, "trial": 11, "rt": 1359}, "10": {"stimulus": 48, "trial": 10, "rt": 1439}, "1": {"stimulus": 50, "trial": 1, "rt": 1686}, "0": {"stimulus": 32, "trial": 0, "rt": 2180}, "3": {"stimulus": 48, "trial": 3, "rt": 1447}, "2": {"stimulus": 30, "trial": 2, "rt": 1502}, "5": {"stimulus": 32, "trial": 5, "rt": 1622}, "4": {"stimulus": 30, "trial": 4, "rt": 2047}, "7": {"stimulus": 48, "trial": 7, "rt": 1783}, "6": {"stimulus": 50, "trial": 6, "rt": 3703}, "9": {"stimulus": 32, "trial": 9, "rt": 1432}, "8": {"stimulus": 50, "trial": 8, "rt": 1383}}, "generation": {"1": {"category": "Not-Alpha", "trial": 1, "stimulus": 9, "rt": 4480}, "0": {"category": "Not-Alpha", "trial": 0, "stimulus": 0, "rt": 8693}, "3": {"category": "Not-Alpha", "trial": 3, "stimulus": 63, "rt": 4293}, "2": {"category": "Not-Alpha", "trial": 2, "stimulus": 72, "rt": 7694}, "5": {"category": "Not-Alpha", "trial": 5, "stimulus": 36, "rt": 3558}, "4": {"category": "Not-Alpha", "trial": 4, "stimulus": 45, "rt": 3471}, "7": {"category": "Not-Alpha", "trial": 7, "stimulus": 10, "rt": 4006}, "6": {"category": "Not-Alpha", "trial": 6, "stimulus": 1, "rt": 3694}}, "generalization": {"56": {"stimulus": 69, "trial": 56, "rt": 863, "response": "Alpha"}, "77": {"stimulus": 16, "trial": 77, "rt": 599, "response": "Beta"}, "54": {"stimulus": 73, "trial": 54, "rt": 479, "response": "Beta"}, "42": {"stimulus": 43, "trial": 42, "rt": 719, "response": "Alpha"}, "48": {"stimulus": 68, "trial": 48, "rt": 414, "response": "Beta"}, "43": {"stimulus": 8, "trial": 43, "rt": 1239, "response": "Beta"}, "60": {"stimulus": 38, "trial": 60, "rt": 399, "response": "Beta"}, "61": {"stimulus": 0, "trial": 61, "rt": 397, "response": "Beta"}, "62": {"stimulus": 15, "trial": 62, "rt": 415, "response": "Beta"}, "63": {"stimulus": 23, "trial": 63, "rt": 631, "response": "Beta"}, "64": {"stimulus": 70, "trial": 64, "rt": 831, "response": "Alpha"}, "49": {"stimulus": 6, "trial": 49, "rt": 926, "response": "Beta"}, "66": {"stimulus": 36, "trial": 66, "rt": 472, "response": "Beta"}, "67": {"stimulus": 39, "trial": 67, "rt": 575, "response": "Beta"}, "68": {"stimulus": 61, "trial": 68, "rt": 951, "response": "Alpha"}, "69": {"stimulus": 59, "trial": 69, "rt": 511, "response": "Beta"}, "80": {"stimulus": 50, "trial": 80, "rt": 580, "response": "Beta"}, "52": {"stimulus": 77, "trial": 52, "rt": 1861, "response": "Beta"}, "53": {"stimulus": 7, "trial": 53, "rt": 632, "response": "Beta"}, "24": {"stimulus": 34, "trial": 24, "rt": 798, "response": "Alpha"}, "25": {"stimulus": 40, "trial": 25, "rt": 1167, "response": "Beta"}, "26": {"stimulus": 22, "trial": 26, "rt": 662, "response": "Beta"}, "27": {"stimulus": 74, "trial": 27, "rt": 640, "response": "Beta"}, "20": {"stimulus": 63, "trial": 20, "rt": 1287, "response": "Beta"}, "21": {"stimulus": 29, "trial": 21, "rt": 559, "response": "Beta"}, "22": {"stimulus": 2, "trial": 22, "rt": 713, "response": "Beta"}, "23": {"stimulus": 3, "trial": 23, "rt": 518, "response": "Beta"}, "46": {"stimulus": 30, "trial": 46, "rt": 454, "response": "Beta"}, "47": {"stimulus": 56, "trial": 47, "rt": 471, "response": "Beta"}, "44": {"stimulus": 53, "trial": 44, "rt": 759, "response": "Alpha"}, "45": {"stimulus": 33, "trial": 45, "rt": 743, "response": "Alpha"}, "28": {"stimulus": 4, "trial": 28, "rt": 911, "response": "Beta"}, "29": {"stimulus": 72, "trial": 29, "rt": 671, "response": "Beta"}, "40": {"stimulus": 9, "trial": 40, "rt": 414, "response": "Beta"}, "41": {"stimulus": 28, "trial": 41, "rt": 421, "response": "Beta"}, "1": {"stimulus": 27, "trial": 1, "rt": 2933, "response": "Beta"}, "0": {"stimulus": 67, "trial": 0, "rt": 1951, "response": "Beta"}, "3": {"stimulus": 80, "trial": 3, "rt": 1285, "response": "Alpha"}, "2": {"stimulus": 76, "trial": 2, "rt": 1879, "response": "Alpha"}, "5": {"stimulus": 64, "trial": 5, "rt": 910, "response": "Beta"}, "4": {"stimulus": 52, "trial": 4, "rt": 630, "response": "Alpha"}, "7": {"stimulus": 60, "trial": 7, "rt": 461, "response": "Alpha"}, "6": {"stimulus": 35, "trial": 6, "rt": 951, "response": "Alpha"}, "9": {"stimulus": 31, "trial": 9, "rt": 951, "response": "Beta"}, "8": {"stimulus": 44, "trial": 8, "rt": 912, "response": "Alpha"}, "78": {"stimulus": 47, "trial": 78, "rt": 623, "response": "Beta"}, "51": {"stimulus": 57, "trial": 51, "rt": 503, "response": "Beta"}, "39": {"stimulus": 49, "trial": 39, "rt": 400, "response": "Beta"}, "65": {"stimulus": 1, "trial": 65, "rt": 494, "response": "Beta"}, "76": {"stimulus": 24, "trial": 76, "rt": 736, "response": "Beta"}, "75": {"stimulus": 13, "trial": 75, "rt": 718, "response": "Beta"}, "38": {"stimulus": 58, "trial": 38, "rt": 503, "response": "Beta"}, "73": {"stimulus": 17, "trial": 73, "rt": 599, "response": "Beta"}, "72": {"stimulus": 45, "trial": 72, "rt": 465, "response": "Beta"}, "71": {"stimulus": 78, "trial": 71, "rt": 783, "response": "Alpha"}, "70": {"stimulus": 55, "trial": 70, "rt": 535, "response": "Beta"}, "59": {"stimulus": 26, "trial": 59, "rt": 1430, "response": "Alpha"}, "79": {"stimulus": 42, "trial": 79, "rt": 1135, "response": "Beta"}, "58": {"stimulus": 41, "trial": 58, "rt": 967, "response": "Beta"}, "11": {"stimulus": 71, "trial": 11, "rt": 783, "response": "Alpha"}, "10": {"stimulus": 21, "trial": 10, "rt": 663, "response": "Beta"}, "13": {"stimulus": 25, "trial": 13, "rt": 2479, "response": "Alpha"}, "12": {"stimulus": 11, "trial": 12, "rt": 919, "response": "Beta"}, "15": {"stimulus": 66, "trial": 15, "rt": 792, "response": "Beta"}, "14": {"stimulus": 20, "trial": 14, "rt": 1055, "response": "Beta"}, "17": {"stimulus": 12, "trial": 17, "rt": 653, "response": "Beta"}, "16": {"stimulus": 75, "trial": 16, "rt": 566, "response": "Beta"}, "19": {"stimulus": 5, "trial": 19, "rt": 975, "response": "Beta"}, "18": {"stimulus": 14, "trial": 18, "rt": 1471, "response": "Beta"}, "31": {"stimulus": 48, "trial": 31, "rt": 487, "response": "Beta"}, "30": {"stimulus": 32, "trial": 30, "rt": 1847, "response": "Alpha"}, "37": {"stimulus": 18, "trial": 37, "rt": 542, "response": "Beta"}, "36": {"stimulus": 79, "trial": 36, "rt": 688, "response": "Alpha"}, "35": {"stimulus": 51, "trial": 35, "rt": 719, "response": "Alpha"}, "34": {"stimulus": 65, "trial": 34, "rt": 784, "response": "Beta"}, "33": {"stimulus": 62, "trial": 33, "rt": 783, "response": "Alpha"}, "55": {"stimulus": 54, "trial": 55, "rt": 423, "response": "Beta"}, "74": {"stimulus": 37, "trial": 74, "rt": 644, "response": "Beta"}, "32": {"stimulus": 10, "trial": 32, "rt": 415, "response": "Beta"}, "57": {"stimulus": 19, "trial": 57, "rt": 439, "response": "Beta"}, "50": {"stimulus": 46, "trial": 50, "rt": 512, "response": "Beta"}}, "experiment": {"Paradigm": "TACL", "Stimuli": "Size-Color Squares", "Experiment": "Generating-Multiple-Categories"}, "submit": {"timeTotal": 3310685, "age": "31", "comments": "It was difficult to recall the size of the alphas.", "sex": "male"}}