{"info": {"finish": 1535353436558, "participant": 70, "exposed": true, "lab": false, "start": 1535352744606, "counterbalance": 7, "gentype": 2, "condition": "Bottom", "browser": {"platform": "Win32", "userAgent": "Mozilla/5.0 (Windows NT 6.3; Win64; x64) AppleWebKit/537.36 (KHTML, like Gecko) Chrome/68.0.3440.106 Safari/537.36"}}, "observation": {"11": {"stimulus": 14, "trial": 11, "rt": 1776}, "10": {"stimulus": 12, "trial": 10, "rt": 2430}, "1": {"stimulus": 32, "trial": 1, "rt": 4999}, "0": {"stimulus": 12, "trial": 0, "rt": 2286}, "3": {"stimulus": 30, "trial": 3, "rt": 1912}, "2": {"stimulus": 14, "trial": 2, "rt": 1747}, "5": {"stimulus": 12, "trial": 5, "rt": 1723}, "4": {"stimulus": 14, "trial": 4, "rt": 2568}, "7": {"stimulus": 32, "trial": 7, "rt": 2346}, "6": {"stimulus": 30, "trial": 6, "rt": 2442}, "9": {"stimulus": 30, "trial": 9, "rt": 1694}, "8": {"stimulus": 32, "trial": 8, "rt": 2629}}, "generation": {"1": {"category": "Beta", "trial": 1, "stimulus": 77, "rt": 3101}, "0": {"category": "Beta", "trial": 0, "stimulus": 72, "rt": 9003}, "3": {"category": "Beta", "trial": 3, "stimulus": 78, "rt": 4997}, "2": {"category": "Beta", "trial": 2, "stimulus": 74, "rt": 4891}, "5": {"category": "Gamma", "trial": 5, "stimulus": 6, "rt": 4784}, "4": {"category": "Gamma", "trial": 4, "stimulus": 8, "rt": 11652}, "7": {"category": "Gamma", "trial": 7, "stimulus": 4, "rt": 5753}, "6": {"category": "Gamma", "trial": 6, "stimulus": 0, "rt": 5107}}, "generalization": {"56": {"stimulus": 52, "trial": 56, "rt": 873, "response": "Alpha"}, "77": {"stimulus": 10, "trial": 77, "rt": 1216, "response": "Gamma"}, "54": {"stimulus": 48, "trial": 54, "rt": 774, "response": "Alpha"}, "42": {"stimulus": 9, "trial": 42, "rt": 1182, "response": "Gamma"}, "48": {"stimulus": 63, "trial": 48, "rt": 3092, "response": "Alpha"}, "43": {"stimulus": 38, "trial": 43, "rt": 1450, "response": "Alpha"}, "60": {"stimulus": 30, "trial": 60, "rt": 2008, "response": "Alpha"}, "61": {"stimulus": 80, "trial": 61, "rt": 888, "response": "Beta"}, "62": {"stimulus": 58, "trial": 62, "rt": 1754, "response": "Alpha"}, "63": {"stimulus": 78, "trial": 63, "rt": 846, "response": "Beta"}, "64": {"stimulus": 70, "trial": 64, "rt": 1139, "response": "Beta"}, "49": {"stimulus": 19, "trial": 49, "rt": 1552, "response": "Gamma"}, "66": {"stimulus": 61, "trial": 66, "rt": 2752, "response": "Alpha"}, "67": {"stimulus": 56, "trial": 67, "rt": 1677, "response": "Alpha"}, "68": {"stimulus": 1, "trial": 68, "rt": 1146, "response": "Gamma"}, "69": {"stimulus": 12, "trial": 69, "rt": 779, "response": "Gamma"}, "80": {"stimulus": 0, "trial": 80, "rt": 851, "response": "Gamma"}, "52": {"stimulus": 20, "trial": 52, "rt": 1370, "response": "Gamma"}, "53": {"stimulus": 45, "trial": 53, "rt": 1810, "response": "Alpha"}, "24": {"stimulus": 75, "trial": 24, "rt": 3769, "response": "Beta"}, "25": {"stimulus": 33, "trial": 25, "rt": 1281, "response": "Alpha"}, "26": {"stimulus": 71, "trial": 26, "rt": 883, "response": "Alpha"}, "27": {"stimulus": 67, "trial": 27, "rt": 1768, "response": "Alpha"}, "20": {"stimulus": 39, "trial": 20, "rt": 2327, "response": "Alpha"}, "21": {"stimulus": 76, "trial": 21, "rt": 1031, "response": "Beta"}, "22": {"stimulus": 18, "trial": 22, "rt": 1336, "response": "Gamma"}, "23": {"stimulus": 8, "trial": 23, "rt": 1692, "response": "Gamma"}, "46": {"stimulus": 50, "trial": 46, "rt": 1322, "response": "Alpha"}, "47": {"stimulus": 28, "trial": 47, "rt": 2038, "response": "Gamma"}, "44": {"stimulus": 2, "trial": 44, "rt": 995, "response": "Gamma"}, "45": {"stimulus": 13, "trial": 45, "rt": 1007, "response": "Gamma"}, "28": {"stimulus": 4, "trial": 28, "rt": 824, "response": "Gamma"}, "29": {"stimulus": 37, "trial": 29, "rt": 1162, "response": "Alpha"}, "40": {"stimulus": 43, "trial": 40, "rt": 3651, "response": "Alpha"}, "41": {"stimulus": 25, "trial": 41, "rt": 2445, "response": "Gamma"}, "1": {"stimulus": 17, "trial": 1, "rt": 1419, "response": "Gamma"}, "0": {"stimulus": 15, "trial": 0, "rt": 2798, "response": "Alpha"}, "3": {"stimulus": 59, "trial": 3, "rt": 2032, "response": "Alpha"}, "2": {"stimulus": 3, "trial": 2, "rt": 1772, "response": "Alpha"}, "5": {"stimulus": 69, "trial": 5, "rt": 2392, "response": "Alpha"}, "4": {"stimulus": 29, "trial": 4, "rt": 1140, "response": "Gamma"}, "7": {"stimulus": 46, "trial": 7, "rt": 4506, "response": "Alpha"}, "6": {"stimulus": 32, "trial": 6, "rt": 2826, "response": "Gamma"}, "9": {"stimulus": 6, "trial": 9, "rt": 1086, "response": "Gamma"}, "8": {"stimulus": 60, "trial": 8, "rt": 2013, "response": "Alpha"}, "78": {"stimulus": 41, "trial": 78, "rt": 2150, "response": "Beta"}, "51": {"stimulus": 27, "trial": 51, "rt": 2392, "response": "Alpha"}, "39": {"stimulus": 26, "trial": 39, "rt": 1935, "response": "Gamma"}, "65": {"stimulus": 5, "trial": 65, "rt": 1369, "response": "Gamma"}, "76": {"stimulus": 62, "trial": 76, "rt": 1010, "response": "Alpha"}, "75": {"stimulus": 72, "trial": 75, "rt": 1379, "response": "Beta"}, "38": {"stimulus": 44, "trial": 38, "rt": 755, "response": "Alpha"}, "73": {"stimulus": 74, "trial": 73, "rt": 914, "response": "Beta"}, "72": {"stimulus": 51, "trial": 72, "rt": 635, "response": "Alpha"}, "71": {"stimulus": 77, "trial": 71, "rt": 1881, "response": "Beta"}, "70": {"stimulus": 24, "trial": 70, "rt": 1311, "response": "Gamma"}, "59": {"stimulus": 16, "trial": 59, "rt": 1424, "response": "Gamma"}, "79": {"stimulus": 73, "trial": 79, "rt": 901, "response": "Beta"}, "58": {"stimulus": 34, "trial": 58, "rt": 1025, "response": "Alpha"}, "11": {"stimulus": 55, "trial": 11, "rt": 1829, "response": "Alpha"}, "10": {"stimulus": 40, "trial": 10, "rt": 1333, "response": "Alpha"}, "13": {"stimulus": 14, "trial": 13, "rt": 938, "response": "Gamma"}, "12": {"stimulus": 11, "trial": 12, "rt": 1034, "response": "Gamma"}, "15": {"stimulus": 79, "trial": 15, "rt": 1203, "response": "Beta"}, "14": {"stimulus": 65, "trial": 14, "rt": 1471, "response": "Alpha"}, "17": {"stimulus": 22, "trial": 17, "rt": 1134, "response": "Gamma"}, "16": {"stimulus": 53, "trial": 16, "rt": 1248, "response": "Alpha"}, "19": {"stimulus": 21, "trial": 19, "rt": 2853, "response": "Gamma"}, "18": {"stimulus": 66, "trial": 18, "rt": 1772, "response": "Alpha"}, "31": {"stimulus": 64, "trial": 31, "rt": 863, "response": "Beta"}, "30": {"stimulus": 54, "trial": 30, "rt": 4142, "response": "Beta"}, "37": {"stimulus": 57, "trial": 37, "rt": 1964, "response": "Alpha"}, "36": {"stimulus": 42, "trial": 36, "rt": 684, "response": "Alpha"}, "35": {"stimulus": 49, "trial": 35, "rt": 861, "response": "Alpha"}, "34": {"stimulus": 7, "trial": 34, "rt": 869, "response": "Gamma"}, "33": {"stimulus": 36, "trial": 33, "rt": 1433, "response": "Alpha"}, "55": {"stimulus": 35, "trial": 55, "rt": 2517, "response": "Alpha"}, "74": {"stimulus": 47, "trial": 74, "rt": 1054, "response": "Alpha"}, "32": {"stimulus": 31, "trial": 32, "rt": 2303, "response": "Alpha"}, "57": {"stimulus": 23, "trial": 57, "rt": 1061, "response": "Gamma"}, "50": {"stimulus": 68, "trial": 50, "rt": 1105, "response": "Alpha"}}, "experiment": {"Paradigm": "TACL", "Stimuli": "Size-Color Squares", "Experiment": "Generating-Multiple-Categories"}, "submit": {"timeTotal": 692354, "age": "28", "comments": "It was certainly different. ", "sex": "Male"}}