{"info": {"finish": 1535353392864, "participant": 74, "exposed": true, "lab": false, "start": 1535352930833, "counterbalance": 1, "gentype": 0, "condition": "Middle", "browser": {"platform": "Win64", "userAgent": "Mozilla/5.0 (Windows NT 10.0; Win64; x64; rv:61.0) Gecko/20100101 Firefox/61.0"}}, "observation": {"11": {"stimulus": 48, "trial": 11, "rt": 1438}, "10": {"stimulus": 30, "trial": 10, "rt": 1467}, "1": {"stimulus": 32, "trial": 1, "rt": 2483}, "0": {"stimulus": 30, "trial": 0, "rt": 3060}, "3": {"stimulus": 50, "trial": 3, "rt": 1859}, "2": {"stimulus": 48, "trial": 2, "rt": 1655}, "5": {"stimulus": 30, "trial": 5, "rt": 1452}, "4": {"stimulus": 32, "trial": 4, "rt": 1812}, "7": {"stimulus": 50, "trial": 7, "rt": 1499}, "6": {"stimulus": 48, "trial": 6, "rt": 1467}, "9": {"stimulus": 32, "trial": 9, "rt": 1453}, "8": {"stimulus": 50, "trial": 8, "rt": 1467}}, "generation": {"1": {"category": "Not-Alpha", "trial": 1, "stimulus": 72, "rt": 5382}, "0": {"category": "Not-Alpha", "trial": 0, "stimulus": 80, "rt": 25605}, "3": {"category": "Not-Alpha", "trial": 3, "stimulus": 71, "rt": 8336}, "2": {"category": "Not-Alpha", "trial": 2, "stimulus": 64, "rt": 11748}, "5": {"category": "Not-Alpha", "trial": 5, "stimulus": 56, "rt": 10296}, "4": {"category": "Not-Alpha", "trial": 4, "stimulus": 55, "rt": 9889}, "7": {"category": "Not-Alpha", "trial": 7, "stimulus": 53, "rt": 7943}, "6": {"category": "Not-Alpha", "trial": 6, "stimulus": 66, "rt": 5898}}, "generalization": {"56": {"stimulus": 10, "trial": 56, "rt": 857, "response": "Alpha"}, "77": {"stimulus": 17, "trial": 77, "rt": 2090, "response": "Alpha"}, "54": {"stimulus": 77, "trial": 54, "rt": 656, "response": "Beta"}, "42": {"stimulus": 56, "trial": 42, "rt": 780, "response": "Beta"}, "48": {"stimulus": 64, "trial": 48, "rt": 653, "response": "Beta"}, "43": {"stimulus": 47, "trial": 43, "rt": 1171, "response": "Beta"}, "60": {"stimulus": 38, "trial": 60, "rt": 1101, "response": "Alpha"}, "61": {"stimulus": 76, "trial": 61, "rt": 780, "response": "Beta"}, "62": {"stimulus": 5, "trial": 62, "rt": 1240, "response": "Beta"}, "63": {"stimulus": 28, "trial": 63, "rt": 719, "response": "Beta"}, "64": {"stimulus": 79, "trial": 64, "rt": 647, "response": "Beta"}, "49": {"stimulus": 2, "trial": 49, "rt": 1147, "response": "Beta"}, "66": {"stimulus": 34, "trial": 66, "rt": 983, "response": "Alpha"}, "67": {"stimulus": 23, "trial": 67, "rt": 724, "response": "Alpha"}, "68": {"stimulus": 13, "trial": 68, "rt": 953, "response": "Alpha"}, "69": {"stimulus": 26, "trial": 69, "rt": 850, "response": "Alpha"}, "80": {"stimulus": 18, "trial": 80, "rt": 1461, "response": "Alpha"}, "52": {"stimulus": 80, "trial": 52, "rt": 1529, "response": "Beta"}, "53": {"stimulus": 16, "trial": 53, "rt": 1077, "response": "Beta"}, "24": {"stimulus": 71, "trial": 24, "rt": 765, "response": "Beta"}, "25": {"stimulus": 68, "trial": 25, "rt": 789, "response": "Beta"}, "26": {"stimulus": 0, "trial": 26, "rt": 1373, "response": "Alpha"}, "27": {"stimulus": 49, "trial": 27, "rt": 1702, "response": "Alpha"}, "20": {"stimulus": 1, "trial": 20, "rt": 1031, "response": "Beta"}, "21": {"stimulus": 3, "trial": 21, "rt": 1734, "response": "Alpha"}, "22": {"stimulus": 54, "trial": 22, "rt": 928, "response": "Beta"}, "23": {"stimulus": 35, "trial": 23, "rt": 1366, "response": "Beta"}, "46": {"stimulus": 21, "trial": 46, "rt": 1789, "response": "Alpha"}, "47": {"stimulus": 74, "trial": 47, "rt": 804, "response": "Beta"}, "44": {"stimulus": 48, "trial": 44, "rt": 647, "response": "Beta"}, "45": {"stimulus": 24, "trial": 45, "rt": 952, "response": "Alpha"}, "28": {"stimulus": 36, "trial": 28, "rt": 976, "response": "Beta"}, "29": {"stimulus": 14, "trial": 29, "rt": 912, "response": "Alpha"}, "40": {"stimulus": 37, "trial": 40, "rt": 1226, "response": "Beta"}, "41": {"stimulus": 4, "trial": 41, "rt": 1539, "response": "Beta"}, "1": {"stimulus": 44, "trial": 1, "rt": 1617, "response": "Beta"}, "0": {"stimulus": 50, "trial": 0, "rt": 3403, "response": "Beta"}, "3": {"stimulus": 43, "trial": 3, "rt": 982, "response": "Alpha"}, "2": {"stimulus": 20, "trial": 2, "rt": 2078, "response": "Beta"}, "5": {"stimulus": 22, "trial": 5, "rt": 1325, "response": "Alpha"}, "4": {"stimulus": 40, "trial": 4, "rt": 732, "response": "Alpha"}, "7": {"stimulus": 66, "trial": 7, "rt": 975, "response": "Beta"}, "6": {"stimulus": 41, "trial": 6, "rt": 1797, "response": "Alpha"}, "9": {"stimulus": 78, "trial": 9, "rt": 967, "response": "Beta"}, "8": {"stimulus": 59, "trial": 8, "rt": 851, "response": "Beta"}, "78": {"stimulus": 57, "trial": 78, "rt": 1304, "response": "Beta"}, "51": {"stimulus": 9, "trial": 51, "rt": 891, "response": "Beta"}, "39": {"stimulus": 67, "trial": 39, "rt": 928, "response": "Beta"}, "65": {"stimulus": 63, "trial": 65, "rt": 756, "response": "Beta"}, "76": {"stimulus": 51, "trial": 76, "rt": 601, "response": "Beta"}, "75": {"stimulus": 62, "trial": 75, "rt": 561, "response": "Beta"}, "38": {"stimulus": 27, "trial": 38, "rt": 1007, "response": "Beta"}, "73": {"stimulus": 60, "trial": 73, "rt": 766, "response": "Beta"}, "72": {"stimulus": 31, "trial": 72, "rt": 966, "response": "Alpha"}, "71": {"stimulus": 11, "trial": 71, "rt": 623, "response": "Alpha"}, "70": {"stimulus": 15, "trial": 70, "rt": 586, "response": "Alpha"}, "59": {"stimulus": 70, "trial": 59, "rt": 896, "response": "Beta"}, "79": {"stimulus": 52, "trial": 79, "rt": 622, "response": "Beta"}, "58": {"stimulus": 6, "trial": 58, "rt": 1186, "response": "Beta"}, "11": {"stimulus": 29, "trial": 11, "rt": 750, "response": "Alpha"}, "10": {"stimulus": 39, "trial": 10, "rt": 905, "response": "Alpha"}, "13": {"stimulus": 65, "trial": 13, "rt": 1288, "response": "Beta"}, "12": {"stimulus": 73, "trial": 12, "rt": 1282, "response": "Beta"}, "15": {"stimulus": 55, "trial": 15, "rt": 905, "response": "Beta"}, "14": {"stimulus": 30, "trial": 14, "rt": 1134, "response": "Alpha"}, "17": {"stimulus": 8, "trial": 17, "rt": 1155, "response": "Beta"}, "16": {"stimulus": 19, "trial": 16, "rt": 1352, "response": "Alpha"}, "19": {"stimulus": 33, "trial": 19, "rt": 844, "response": "Alpha"}, "18": {"stimulus": 69, "trial": 18, "rt": 1942, "response": "Beta"}, "31": {"stimulus": 12, "trial": 31, "rt": 889, "response": "Alpha"}, "30": {"stimulus": 72, "trial": 30, "rt": 843, "response": "Beta"}, "37": {"stimulus": 46, "trial": 37, "rt": 974, "response": "Beta"}, "36": {"stimulus": 58, "trial": 36, "rt": 866, "response": "Beta"}, "35": {"stimulus": 25, "trial": 35, "rt": 958, "response": "Alpha"}, "34": {"stimulus": 45, "trial": 34, "rt": 1389, "response": "Beta"}, "33": {"stimulus": 75, "trial": 33, "rt": 1109, "response": "Beta"}, "55": {"stimulus": 7, "trial": 55, "rt": 1085, "response": "Beta"}, "74": {"stimulus": 61, "trial": 74, "rt": 633, "response": "Beta"}, "32": {"stimulus": 53, "trial": 32, "rt": 1171, "response": "Beta"}, "57": {"stimulus": 32, "trial": 57, "rt": 882, "response": "Alpha"}, "50": {"stimulus": 42, "trial": 50, "rt": 2834, "response": "Beta"}}, "experiment": {"Paradigm": "TACL", "Stimuli": "Size-Color Squares", "Experiment": "Generating-Multiple-Categories"}, "submit": {}}