{"info": {"finish": 1535353917566, "participant": 75, "exposed": true, "lab": false, "start": 1535353585754, "counterbalance": 2, "gentype": 1, "condition": "Bottom", "browser": {"platform": "Win32", "userAgent": "Mozilla/5.0 (Windows NT 6.3; Win64; x64) AppleWebKit/537.36 (KHTML, like Gecko) Chrome/68.0.3440.106 Safari/537.36"}}, "observation": {"11": {"stimulus": 32, "trial": 11, "rt": 3968}, "10": {"stimulus": 14, "trial": 10, "rt": 2094}, "1": {"stimulus": 32, "trial": 1, "rt": 2122}, "0": {"stimulus": 14, "trial": 0, "rt": 3620}, "3": {"stimulus": 30, "trial": 3, "rt": 3326}, "2": {"stimulus": 12, "trial": 2, "rt": 2124}, "5": {"stimulus": 30, "trial": 5, "rt": 2162}, "4": {"stimulus": 12, "trial": 4, "rt": 3048}, "7": {"stimulus": 14, "trial": 7, "rt": 2719}, "6": {"stimulus": 32, "trial": 6, "rt": 2078}, "9": {"stimulus": 30, "trial": 9, "rt": 2451}, "8": {"stimulus": 12, "trial": 8, "rt": 2357}}, "generation": {"1": {"category": "Beta", "trial": 1, "stimulus": 78, "rt": 6202}, "0": {"category": "Beta", "trial": 0, "stimulus": 68, "rt": 8107}, "3": {"category": "Beta", "trial": 3, "stimulus": 0, "rt": 6125}, "2": {"category": "Beta", "trial": 2, "stimulus": 79, "rt": 5812}, "5": {"category": "Beta", "trial": 5, "stimulus": 8, "rt": 5091}, "4": {"category": "Beta", "trial": 4, "stimulus": 9, "rt": 10794}, "7": {"category": "Beta", "trial": 7, "stimulus": 80, "rt": 4343}, "6": {"category": "Beta", "trial": 6, "stimulus": 40, "rt": 4778}}, "generalization": {"56": {"stimulus": 30, "trial": 56, "rt": 915, "response": "Alpha"}, "77": {"stimulus": 72, "trial": 77, "rt": 844, "response": "Beta"}, "54": {"stimulus": 5, "trial": 54, "rt": 968, "response": "Beta"}, "42": {"stimulus": 0, "trial": 42, "rt": 1552, "response": "Beta"}, "48": {"stimulus": 4, "trial": 48, "rt": 975, "response": "Alpha"}, "43": {"stimulus": 46, "trial": 43, "rt": 1939, "response": "Beta"}, "60": {"stimulus": 38, "trial": 60, "rt": 1779, "response": "Beta"}, "61": {"stimulus": 20, "trial": 61, "rt": 1550, "response": "Beta"}, "62": {"stimulus": 12, "trial": 62, "rt": 1563, "response": "Beta"}, "63": {"stimulus": 50, "trial": 63, "rt": 2447, "response": "Alpha"}, "64": {"stimulus": 13, "trial": 64, "rt": 1352, "response": "Beta"}, "49": {"stimulus": 10, "trial": 49, "rt": 1037, "response": "Beta"}, "66": {"stimulus": 47, "trial": 66, "rt": 1454, "response": "Beta"}, "67": {"stimulus": 53, "trial": 67, "rt": 1123, "response": "Alpha"}, "68": {"stimulus": 57, "trial": 68, "rt": 1404, "response": "Alpha"}, "69": {"stimulus": 14, "trial": 69, "rt": 969, "response": "Beta"}, "80": {"stimulus": 24, "trial": 80, "rt": 2148, "response": "Beta"}, "52": {"stimulus": 11, "trial": 52, "rt": 1212, "response": "Beta"}, "53": {"stimulus": 75, "trial": 53, "rt": 1889, "response": "Beta"}, "24": {"stimulus": 71, "trial": 24, "rt": 2062, "response": "Beta"}, "25": {"stimulus": 3, "trial": 25, "rt": 1402, "response": "Beta"}, "26": {"stimulus": 15, "trial": 26, "rt": 1795, "response": "Beta"}, "27": {"stimulus": 68, "trial": 27, "rt": 1124, "response": "Beta"}, "20": {"stimulus": 45, "trial": 20, "rt": 1544, "response": "Alpha"}, "21": {"stimulus": 32, "trial": 21, "rt": 1094, "response": "Beta"}, "22": {"stimulus": 7, "trial": 22, "rt": 1513, "response": "Beta"}, "23": {"stimulus": 1, "trial": 23, "rt": 3857, "response": "Beta"}, "46": {"stimulus": 18, "trial": 46, "rt": 830, "response": "Beta"}, "47": {"stimulus": 27, "trial": 47, "rt": 829, "response": "Beta"}, "44": {"stimulus": 2, "trial": 44, "rt": 1294, "response": "Beta"}, "45": {"stimulus": 54, "trial": 45, "rt": 2296, "response": "Alpha"}, "28": {"stimulus": 76, "trial": 28, "rt": 1348, "response": "Beta"}, "29": {"stimulus": 48, "trial": 29, "rt": 1668, "response": "Alpha"}, "40": {"stimulus": 34, "trial": 40, "rt": 751, "response": "Beta"}, "41": {"stimulus": 33, "trial": 41, "rt": 993, "response": "Beta"}, "1": {"stimulus": 44, "trial": 1, "rt": 1639, "response": "Beta"}, "0": {"stimulus": 64, "trial": 0, "rt": 2748, "response": "Beta"}, "3": {"stimulus": 42, "trial": 3, "rt": 1389, "response": "Alpha"}, "2": {"stimulus": 66, "trial": 2, "rt": 1561, "response": "Beta"}, "5": {"stimulus": 40, "trial": 5, "rt": 1424, "response": "Alpha"}, "4": {"stimulus": 74, "trial": 4, "rt": 884, "response": "Beta"}, "7": {"stimulus": 9, "trial": 7, "rt": 1420, "response": "Beta"}, "6": {"stimulus": 28, "trial": 6, "rt": 2293, "response": "Alpha"}, "9": {"stimulus": 59, "trial": 9, "rt": 1577, "response": "Beta"}, "8": {"stimulus": 41, "trial": 8, "rt": 872, "response": "Alpha"}, "78": {"stimulus": 37, "trial": 78, "rt": 1294, "response": "Beta"}, "51": {"stimulus": 79, "trial": 51, "rt": 781, "response": "Beta"}, "39": {"stimulus": 80, "trial": 39, "rt": 2045, "response": "Alpha"}, "65": {"stimulus": 21, "trial": 65, "rt": 985, "response": "Beta"}, "76": {"stimulus": 16, "trial": 76, "rt": 842, "response": "Beta"}, "75": {"stimulus": 8, "trial": 75, "rt": 1140, "response": "Beta"}, "38": {"stimulus": 77, "trial": 38, "rt": 873, "response": "Beta"}, "73": {"stimulus": 55, "trial": 73, "rt": 1085, "response": "Beta"}, "72": {"stimulus": 73, "trial": 72, "rt": 1923, "response": "Beta"}, "71": {"stimulus": 26, "trial": 71, "rt": 950, "response": "Beta"}, "70": {"stimulus": 35, "trial": 70, "rt": 936, "response": "Beta"}, "59": {"stimulus": 65, "trial": 59, "rt": 1280, "response": "Beta"}, "79": {"stimulus": 22, "trial": 79, "rt": 1108, "response": "Beta"}, "58": {"stimulus": 23, "trial": 58, "rt": 1455, "response": "Beta"}, "11": {"stimulus": 39, "trial": 11, "rt": 1341, "response": "Alpha"}, "10": {"stimulus": 56, "trial": 10, "rt": 896, "response": "Beta"}, "13": {"stimulus": 6, "trial": 13, "rt": 935, "response": "Beta"}, "12": {"stimulus": 58, "trial": 12, "rt": 1761, "response": "Beta"}, "15": {"stimulus": 78, "trial": 15, "rt": 1373, "response": "Beta"}, "14": {"stimulus": 49, "trial": 14, "rt": 1681, "response": "Alpha"}, "17": {"stimulus": 51, "trial": 17, "rt": 874, "response": "Beta"}, "16": {"stimulus": 70, "trial": 16, "rt": 826, "response": "Beta"}, "19": {"stimulus": 17, "trial": 19, "rt": 1177, "response": "Beta"}, "18": {"stimulus": 60, "trial": 18, "rt": 939, "response": "Alpha"}, "31": {"stimulus": 25, "trial": 31, "rt": 1286, "response": "Beta"}, "30": {"stimulus": 19, "trial": 30, "rt": 2572, "response": "Beta"}, "37": {"stimulus": 63, "trial": 37, "rt": 548, "response": "Beta"}, "36": {"stimulus": 61, "trial": 36, "rt": 1670, "response": "Beta"}, "35": {"stimulus": 69, "trial": 35, "rt": 686, "response": "Alpha"}, "34": {"stimulus": 62, "trial": 34, "rt": 892, "response": "Beta"}, "33": {"stimulus": 52, "trial": 33, "rt": 3092, "response": "Alpha"}, "55": {"stimulus": 31, "trial": 55, "rt": 1281, "response": "Beta"}, "74": {"stimulus": 43, "trial": 74, "rt": 1078, "response": "Beta"}, "32": {"stimulus": 67, "trial": 32, "rt": 2061, "response": "Beta"}, "57": {"stimulus": 29, "trial": 57, "rt": 780, "response": "Beta"}, "50": {"stimulus": 36, "trial": 50, "rt": 796, "response": "Beta"}}, "experiment": {"Paradigm": "TACL", "Stimuli": "Size-Color Squares", "Experiment": "Generating-Multiple-Categories"}, "submit": {"timeTotal": 332057, "age": "29", "comments": "good", "sex": "male"}}