{"info": {"finish": 1535355058764, "participant": 78, "exposed": true, "lab": false, "start": 1535354712200, "counterbalance": 1, "gentype": 2, "condition": "Bottom", "browser": {"platform": "Win32", "userAgent": "Mozilla/5.0 (Windows NT 6.3; Win64; x64) AppleWebKit/537.36 (KHTML, like Gecko) Chrome/68.0.3440.106 Safari/537.36"}}, "observation": {"11": {"stimulus": 32, "trial": 11, "rt": 1731}, "10": {"stimulus": 14, "trial": 10, "rt": 1891}, "1": {"stimulus": 12, "trial": 1, "rt": 2143}, "0": {"stimulus": 30, "trial": 0, "rt": 2416}, "3": {"stimulus": 32, "trial": 3, "rt": 2164}, "2": {"stimulus": 14, "trial": 2, "rt": 2095}, "5": {"stimulus": 32, "trial": 5, "rt": 2115}, "4": {"stimulus": 30, "trial": 4, "rt": 1865}, "7": {"stimulus": 14, "trial": 7, "rt": 2071}, "6": {"stimulus": 12, "trial": 6, "rt": 2708}, "9": {"stimulus": 12, "trial": 9, "rt": 3614}, "8": {"stimulus": 30, "trial": 8, "rt": 2665}}, "generation": {"1": {"category": "Beta", "trial": 1, "stimulus": 63, "rt": 13685}, "0": {"category": "Beta", "trial": 0, "stimulus": 72, "rt": 5766}, "3": {"category": "Beta", "trial": 3, "stimulus": 45, "rt": 11350}, "2": {"category": "Beta", "trial": 2, "stimulus": 54, "rt": 6264}, "5": {"category": "Gamma", "trial": 5, "stimulus": 9, "rt": 5330}, "4": {"category": "Gamma", "trial": 4, "stimulus": 0, "rt": 5581}, "7": {"category": "Gamma", "trial": 7, "stimulus": 36, "rt": 3945}, "6": {"category": "Gamma", "trial": 6, "stimulus": 18, "rt": 4794}}, "generalization": {"56": {"stimulus": 71, "trial": 56, "rt": 939, "response": "Alpha"}, "77": {"stimulus": 28, "trial": 77, "rt": 849, "response": "Beta"}, "54": {"stimulus": 62, "trial": 54, "rt": 1348, "response": "Alpha"}, "42": {"stimulus": 70, "trial": 42, "rt": 1777, "response": "Gamma"}, "48": {"stimulus": 34, "trial": 48, "rt": 1100, "response": "Alpha"}, "43": {"stimulus": 45, "trial": 43, "rt": 1214, "response": "Beta"}, "60": {"stimulus": 39, "trial": 60, "rt": 1492, "response": "Beta"}, "61": {"stimulus": 55, "trial": 61, "rt": 2636, "response": "Gamma"}, "62": {"stimulus": 65, "trial": 62, "rt": 940, "response": "Beta"}, "63": {"stimulus": 53, "trial": 63, "rt": 1154, "response": "Alpha"}, "64": {"stimulus": 32, "trial": 64, "rt": 2004, "response": "Beta"}, "49": {"stimulus": 4, "trial": 49, "rt": 1705, "response": "Gamma"}, "66": {"stimulus": 23, "trial": 66, "rt": 1132, "response": "Alpha"}, "67": {"stimulus": 29, "trial": 67, "rt": 1259, "response": "Beta"}, "68": {"stimulus": 59, "trial": 68, "rt": 1927, "response": "Alpha"}, "69": {"stimulus": 35, "trial": 69, "rt": 1412, "response": "Alpha"}, "80": {"stimulus": 14, "trial": 80, "rt": 1088, "response": "Beta"}, "52": {"stimulus": 36, "trial": 52, "rt": 1705, "response": "Beta"}, "53": {"stimulus": 61, "trial": 53, "rt": 1638, "response": "Alpha"}, "24": {"stimulus": 58, "trial": 24, "rt": 1143, "response": "Alpha"}, "25": {"stimulus": 37, "trial": 25, "rt": 1498, "response": "Beta"}, "26": {"stimulus": 16, "trial": 26, "rt": 1192, "response": "Alpha"}, "27": {"stimulus": 60, "trial": 27, "rt": 1621, "response": "Alpha"}, "20": {"stimulus": 25, "trial": 20, "rt": 1186, "response": "Alpha"}, "21": {"stimulus": 0, "trial": 21, "rt": 1508, "response": "Beta"}, "22": {"stimulus": 18, "trial": 22, "rt": 1390, "response": "Gamma"}, "23": {"stimulus": 10, "trial": 23, "rt": 1746, "response": "Gamma"}, "46": {"stimulus": 48, "trial": 46, "rt": 2003, "response": "Gamma"}, "47": {"stimulus": 52, "trial": 47, "rt": 1617, "response": "Alpha"}, "44": {"stimulus": 46, "trial": 44, "rt": 1826, "response": "Gamma"}, "45": {"stimulus": 31, "trial": 45, "rt": 920, "response": "Beta"}, "28": {"stimulus": 22, "trial": 28, "rt": 1691, "response": "Alpha"}, "29": {"stimulus": 40, "trial": 29, "rt": 1125, "response": "Beta"}, "40": {"stimulus": 5, "trial": 40, "rt": 1157, "response": "Gamma"}, "41": {"stimulus": 68, "trial": 41, "rt": 842, "response": "Beta"}, "1": {"stimulus": 9, "trial": 1, "rt": 1429, "response": "Beta"}, "0": {"stimulus": 80, "trial": 0, "rt": 2431, "response": "Alpha"}, "3": {"stimulus": 2, "trial": 3, "rt": 1878, "response": "Gamma"}, "2": {"stimulus": 21, "trial": 2, "rt": 1552, "response": "Alpha"}, "5": {"stimulus": 11, "trial": 5, "rt": 1212, "response": "Beta"}, "4": {"stimulus": 66, "trial": 4, "rt": 8558, "response": "Alpha"}, "7": {"stimulus": 73, "trial": 7, "rt": 2019, "response": "Beta"}, "6": {"stimulus": 24, "trial": 6, "rt": 1756, "response": "Alpha"}, "9": {"stimulus": 3, "trial": 9, "rt": 2232, "response": "Beta"}, "8": {"stimulus": 19, "trial": 8, "rt": 1375, "response": "Gamma"}, "78": {"stimulus": 33, "trial": 78, "rt": 804, "response": "Gamma"}, "51": {"stimulus": 7, "trial": 51, "rt": 1839, "response": "Alpha"}, "39": {"stimulus": 15, "trial": 39, "rt": 1766, "response": "Alpha"}, "65": {"stimulus": 49, "trial": 65, "rt": 878, "response": "Gamma"}, "76": {"stimulus": 75, "trial": 76, "rt": 3014, "response": "Gamma"}, "75": {"stimulus": 63, "trial": 75, "rt": 1413, "response": "Beta"}, "38": {"stimulus": 57, "trial": 38, "rt": 1459, "response": "Beta"}, "73": {"stimulus": 72, "trial": 73, "rt": 1754, "response": "Beta"}, "72": {"stimulus": 30, "trial": 72, "rt": 873, "response": "Beta"}, "71": {"stimulus": 38, "trial": 71, "rt": 1574, "response": "Gamma"}, "70": {"stimulus": 74, "trial": 70, "rt": 1675, "response": "Beta"}, "59": {"stimulus": 17, "trial": 59, "rt": 1389, "response": "Alpha"}, "79": {"stimulus": 47, "trial": 79, "rt": 775, "response": "Alpha"}, "58": {"stimulus": 50, "trial": 58, "rt": 1796, "response": "Alpha"}, "11": {"stimulus": 44, "trial": 11, "rt": 1587, "response": "Alpha"}, "10": {"stimulus": 51, "trial": 10, "rt": 1623, "response": "Alpha"}, "13": {"stimulus": 79, "trial": 13, "rt": 1583, "response": "Alpha"}, "12": {"stimulus": 56, "trial": 12, "rt": 1942, "response": "Gamma"}, "15": {"stimulus": 42, "trial": 15, "rt": 1359, "response": "Beta"}, "14": {"stimulus": 77, "trial": 14, "rt": 3202, "response": "Alpha"}, "17": {"stimulus": 26, "trial": 17, "rt": 1343, "response": "Alpha"}, "16": {"stimulus": 64, "trial": 16, "rt": 3342, "response": "Beta"}, "19": {"stimulus": 67, "trial": 19, "rt": 1193, "response": "Alpha"}, "18": {"stimulus": 54, "trial": 18, "rt": 1976, "response": "Beta"}, "31": {"stimulus": 8, "trial": 31, "rt": 1335, "response": "Alpha"}, "30": {"stimulus": 12, "trial": 30, "rt": 881, "response": "Alpha"}, "37": {"stimulus": 78, "trial": 37, "rt": 1192, "response": "Alpha"}, "36": {"stimulus": 69, "trial": 36, "rt": 2410, "response": "Alpha"}, "35": {"stimulus": 76, "trial": 35, "rt": 1515, "response": "Beta"}, "34": {"stimulus": 1, "trial": 34, "rt": 798, "response": "Gamma"}, "33": {"stimulus": 13, "trial": 33, "rt": 1153, "response": "Beta"}, "55": {"stimulus": 6, "trial": 55, "rt": 1644, "response": "Gamma"}, "74": {"stimulus": 41, "trial": 74, "rt": 1648, "response": "Alpha"}, "32": {"stimulus": 20, "trial": 32, "rt": 1127, "response": "Gamma"}, "57": {"stimulus": 27, "trial": 57, "rt": 1116, "response": "Beta"}, "50": {"stimulus": 43, "trial": 50, "rt": 1403, "response": "Alpha"}}, "experiment": {"Paradigm": "TACL", "Stimuli": "Size-Color Squares", "Experiment": "Generating-Multiple-Categories"}, "submit": {"timeTotal": 346700, "age": "29", "comments": "Interesting", "sex": "male"}}