{"info": {"finish": 1535359270586, "participant": 80, "exposed": true, "lab": false, "start": 1535358739055, "counterbalance": 5, "gentype": 2, "condition": "Middle", "browser": {"platform": "Win32", "userAgent": "Mozilla/5.0 (Windows NT 10.0; Win64; x64) AppleWebKit/537.36 (KHTML, like Gecko) Chrome/68.0.3440.106 Safari/537.36"}}, "observation": {"11": {"stimulus": 32, "trial": 11, "rt": 1504}, "10": {"stimulus": 50, "trial": 10, "rt": 1410}, "1": {"stimulus": 32, "trial": 1, "rt": 1996}, "0": {"stimulus": 48, "trial": 0, "rt": 4326}, "3": {"stimulus": 50, "trial": 3, "rt": 1669}, "2": {"stimulus": 30, "trial": 2, "rt": 1631}, "5": {"stimulus": 32, "trial": 5, "rt": 1596}, "4": {"stimulus": 30, "trial": 4, "rt": 1485}, "7": {"stimulus": 48, "trial": 7, "rt": 1579}, "6": {"stimulus": 50, "trial": 6, "rt": 1501}, "9": {"stimulus": 48, "trial": 9, "rt": 1477}, "8": {"stimulus": 30, "trial": 8, "rt": 1465}}, "generation": {"1": {"category": "Beta", "trial": 1, "stimulus": 53, "rt": 4579}, "0": {"category": "Beta", "trial": 0, "stimulus": 36, "rt": 14235}, "3": {"category": "Beta", "trial": 3, "stimulus": 26, "rt": 3827}, "2": {"category": "Beta", "trial": 2, "stimulus": 18, "rt": 13500}, "5": {"category": "Gamma", "trial": 5, "stimulus": 0, "rt": 10536}, "4": {"category": "Gamma", "trial": 4, "stimulus": 72, "rt": 6696}, "7": {"category": "Gamma", "trial": 7, "stimulus": 8, "rt": 3476}, "6": {"category": "Gamma", "trial": 6, "stimulus": 80, "rt": 4004}}, "generalization": {"56": {"stimulus": 11, "trial": 56, "rt": 684, "response": "Alpha"}, "77": {"stimulus": 24, "trial": 77, "rt": 660, "response": "Alpha"}, "54": {"stimulus": 1, "trial": 54, "rt": 1589, "response": "Alpha"}, "42": {"stimulus": 0, "trial": 42, "rt": 887, "response": "Beta"}, "48": {"stimulus": 62, "trial": 48, "rt": 655, "response": "Alpha"}, "43": {"stimulus": 27, "trial": 43, "rt": 669, "response": "Beta"}, "60": {"stimulus": 63, "trial": 60, "rt": 1302, "response": "Beta"}, "61": {"stimulus": 6, "trial": 61, "rt": 2539, "response": "Alpha"}, "62": {"stimulus": 40, "trial": 62, "rt": 769, "response": "Alpha"}, "63": {"stimulus": 35, "trial": 63, "rt": 1024, "response": "Gamma"}, "64": {"stimulus": 36, "trial": 64, "rt": 1023, "response": "Beta"}, "49": {"stimulus": 12, "trial": 49, "rt": 3228, "response": "Alpha"}, "66": {"stimulus": 7, "trial": 66, "rt": 1621, "response": "Gamma"}, "67": {"stimulus": 26, "trial": 67, "rt": 1130, "response": "Gamma"}, "68": {"stimulus": 57, "trial": 68, "rt": 1242, "response": "Alpha"}, "69": {"stimulus": 61, "trial": 69, "rt": 880, "response": "Alpha"}, "80": {"stimulus": 3, "trial": 80, "rt": 863, "response": "Alpha"}, "52": {"stimulus": 64, "trial": 52, "rt": 950, "response": "Alpha"}, "53": {"stimulus": 14, "trial": 53, "rt": 1180, "response": "Alpha"}, "24": {"stimulus": 30, "trial": 24, "rt": 1209, "response": "Alpha"}, "25": {"stimulus": 50, "trial": 25, "rt": 608, "response": "Alpha"}, "26": {"stimulus": 45, "trial": 26, "rt": 964, "response": "Beta"}, "27": {"stimulus": 49, "trial": 27, "rt": 973, "response": "Alpha"}, "20": {"stimulus": 46, "trial": 20, "rt": 811, "response": "Beta"}, "21": {"stimulus": 19, "trial": 21, "rt": 511, "response": "Beta"}, "22": {"stimulus": 29, "trial": 22, "rt": 2227, "response": "Beta"}, "23": {"stimulus": 42, "trial": 23, "rt": 1006, "response": "Alpha"}, "46": {"stimulus": 43, "trial": 46, "rt": 972, "response": "Gamma"}, "47": {"stimulus": 18, "trial": 47, "rt": 1140, "response": "Beta"}, "44": {"stimulus": 68, "trial": 44, "rt": 1106, "response": "Alpha"}, "45": {"stimulus": 10, "trial": 45, "rt": 2193, "response": "Beta"}, "28": {"stimulus": 25, "trial": 28, "rt": 1081, "response": "Gamma"}, "29": {"stimulus": 76, "trial": 29, "rt": 915, "response": "Alpha"}, "40": {"stimulus": 78, "trial": 40, "rt": 1791, "response": "Alpha"}, "41": {"stimulus": 55, "trial": 41, "rt": 1487, "response": "Alpha"}, "1": {"stimulus": 51, "trial": 1, "rt": 1457, "response": "Alpha"}, "0": {"stimulus": 5, "trial": 0, "rt": 2186, "response": "Alpha"}, "3": {"stimulus": 59, "trial": 3, "rt": 4833, "response": "Gamma"}, "2": {"stimulus": 54, "trial": 2, "rt": 1724, "response": "Beta"}, "5": {"stimulus": 4, "trial": 5, "rt": 2428, "response": "Alpha"}, "4": {"stimulus": 21, "trial": 4, "rt": 2148, "response": "Alpha"}, "7": {"stimulus": 58, "trial": 7, "rt": 2368, "response": "Gamma"}, "6": {"stimulus": 28, "trial": 6, "rt": 2307, "response": "Beta"}, "9": {"stimulus": 2, "trial": 9, "rt": 5614, "response": "Beta"}, "8": {"stimulus": 52, "trial": 8, "rt": 4450, "response": "Gamma"}, "78": {"stimulus": 15, "trial": 78, "rt": 583, "response": "Alpha"}, "51": {"stimulus": 75, "trial": 51, "rt": 676, "response": "Alpha"}, "39": {"stimulus": 16, "trial": 39, "rt": 1444, "response": "Gamma"}, "65": {"stimulus": 77, "trial": 65, "rt": 785, "response": "Alpha"}, "76": {"stimulus": 79, "trial": 76, "rt": 1144, "response": "Alpha"}, "75": {"stimulus": 32, "trial": 75, "rt": 700, "response": "Alpha"}, "38": {"stimulus": 80, "trial": 38, "rt": 1326, "response": "Gamma"}, "73": {"stimulus": 53, "trial": 73, "rt": 751, "response": "Gamma"}, "72": {"stimulus": 44, "trial": 72, "rt": 951, "response": "Gamma"}, "71": {"stimulus": 17, "trial": 71, "rt": 1266, "response": "Gamma"}, "70": {"stimulus": 66, "trial": 70, "rt": 891, "response": "Alpha"}, "59": {"stimulus": 8, "trial": 59, "rt": 970, "response": "Gamma"}, "79": {"stimulus": 34, "trial": 79, "rt": 693, "response": "Alpha"}, "58": {"stimulus": 65, "trial": 58, "rt": 681, "response": "Alpha"}, "11": {"stimulus": 13, "trial": 11, "rt": 3152, "response": "Alpha"}, "10": {"stimulus": 56, "trial": 10, "rt": 3604, "response": "Alpha"}, "13": {"stimulus": 20, "trial": 13, "rt": 1592, "response": "Alpha"}, "12": {"stimulus": 70, "trial": 12, "rt": 4179, "response": "Gamma"}, "15": {"stimulus": 41, "trial": 15, "rt": 1312, "response": "Alpha"}, "14": {"stimulus": 71, "trial": 14, "rt": 1074, "response": "Gamma"}, "17": {"stimulus": 33, "trial": 17, "rt": 2439, "response": "Alpha"}, "16": {"stimulus": 23, "trial": 16, "rt": 960, "response": "Alpha"}, "19": {"stimulus": 37, "trial": 19, "rt": 1256, "response": "Beta"}, "18": {"stimulus": 69, "trial": 18, "rt": 1000, "response": "Alpha"}, "31": {"stimulus": 9, "trial": 31, "rt": 1388, "response": "Beta"}, "30": {"stimulus": 31, "trial": 30, "rt": 843, "response": "Alpha"}, "37": {"stimulus": 38, "trial": 37, "rt": 1393, "response": "Alpha"}, "36": {"stimulus": 60, "trial": 36, "rt": 1186, "response": "Gamma"}, "35": {"stimulus": 72, "trial": 35, "rt": 1023, "response": "Beta"}, "34": {"stimulus": 48, "trial": 34, "rt": 1559, "response": "Alpha"}, "33": {"stimulus": 74, "trial": 33, "rt": 2968, "response": "Alpha"}, "55": {"stimulus": 39, "trial": 55, "rt": 828, "response": "Alpha"}, "74": {"stimulus": 47, "trial": 74, "rt": 1109, "response": "Alpha"}, "32": {"stimulus": 22, "trial": 32, "rt": 1265, "response": "Alpha"}, "57": {"stimulus": 73, "trial": 57, "rt": 773, "response": "Alpha"}, "50": {"stimulus": 67, "trial": 50, "rt": 869, "response": "Alpha"}}, "experiment": {"Paradigm": "TACL", "Stimuli": "Size-Color Squares", "Experiment": "Generating-Multiple-Categories"}, "submit": {"timeTotal": 531746, "age": "34", "comments": "fun!", "sex": "male"}}