{"info": {"finish": 1535360376210, "participant": 86, "exposed": true, "lab": false, "start": 1535359858534, "counterbalance": 2, "gentype": 2, "condition": "Middle", "browser": {"platform": "Win32", "userAgent": "Mozilla/5.0 (Windows NT 10.0; Win64; x64) AppleWebKit/537.36 (KHTML, like Gecko) Chrome/67.0.3396.87 Safari/537.36"}}, "observation": {"11": {"stimulus": 50, "trial": 11, "rt": 2444}, "10": {"stimulus": 48, "trial": 10, "rt": 5259}, "1": {"stimulus": 32, "trial": 1, "rt": 1862}, "0": {"stimulus": 48, "trial": 0, "rt": 3525}, "3": {"stimulus": 50, "trial": 3, "rt": 3741}, "2": {"stimulus": 30, "trial": 2, "rt": 1858}, "5": {"stimulus": 50, "trial": 5, "rt": 4874}, "4": {"stimulus": 32, "trial": 4, "rt": 2604}, "7": {"stimulus": 48, "trial": 7, "rt": 1575}, "6": {"stimulus": 30, "trial": 6, "rt": 3991}, "9": {"stimulus": 32, "trial": 9, "rt": 1647}, "8": {"stimulus": 30, "trial": 8, "rt": 2525}}, "generation": {"1": {"category": "Beta", "trial": 1, "stimulus": 38, "rt": 10422}, "0": {"category": "Beta", "trial": 0, "stimulus": 29, "rt": 18440}, "3": {"category": "Beta", "trial": 3, "stimulus": 2, "rt": 8315}, "2": {"category": "Beta", "trial": 2, "stimulus": 20, "rt": 19317}, "5": {"category": "Gamma", "trial": 5, "stimulus": 3, "rt": 2741}, "4": {"category": "Gamma", "trial": 4, "stimulus": 12, "rt": 8073}, "7": {"category": "Gamma", "trial": 7, "stimulus": 39, "rt": 3895}, "6": {"category": "Gamma", "trial": 6, "stimulus": 21, "rt": 5264}}, "generalization": {"56": {"stimulus": 72, "trial": 56, "rt": 2449, "response": "Beta"}, "77": {"stimulus": 56, "trial": 77, "rt": 1612, "response": "Alpha"}, "54": {"stimulus": 52, "trial": 54, "rt": 750, "response": "Alpha"}, "42": {"stimulus": 17, "trial": 42, "rt": 2783, "response": "Beta"}, "48": {"stimulus": 12, "trial": 48, "rt": 68374, "response": "Beta"}, "43": {"stimulus": 61, "trial": 43, "rt": 526, "response": "Alpha"}, "60": {"stimulus": 80, "trial": 60, "rt": 1310, "response": "Alpha"}, "61": {"stimulus": 35, "trial": 61, "rt": 5173, "response": "Alpha"}, "62": {"stimulus": 60, "trial": 62, "rt": 1288, "response": "Alpha"}, "63": {"stimulus": 34, "trial": 63, "rt": 957, "response": "Alpha"}, "64": {"stimulus": 40, "trial": 64, "rt": 7149, "response": "Alpha"}, "49": {"stimulus": 48, "trial": 49, "rt": 687, "response": "Alpha"}, "66": {"stimulus": 26, "trial": 66, "rt": 1379, "response": "Alpha"}, "67": {"stimulus": 9, "trial": 67, "rt": 1437, "response": "Alpha"}, "68": {"stimulus": 57, "trial": 68, "rt": 713, "response": "Alpha"}, "69": {"stimulus": 27, "trial": 69, "rt": 2162, "response": "Alpha"}, "80": {"stimulus": 28, "trial": 80, "rt": 811, "response": "Alpha"}, "52": {"stimulus": 37, "trial": 52, "rt": 1016, "response": "Alpha"}, "53": {"stimulus": 66, "trial": 53, "rt": 782, "response": "Alpha"}, "24": {"stimulus": 76, "trial": 24, "rt": 3574, "response": "Beta"}, "25": {"stimulus": 74, "trial": 25, "rt": 2404, "response": "Alpha"}, "26": {"stimulus": 79, "trial": 26, "rt": 2497, "response": "Alpha"}, "27": {"stimulus": 15, "trial": 27, "rt": 1258, "response": "Gamma"}, "20": {"stimulus": 36, "trial": 20, "rt": 855, "response": "Alpha"}, "21": {"stimulus": 63, "trial": 21, "rt": 2768, "response": "Beta"}, "22": {"stimulus": 33, "trial": 22, "rt": 4613, "response": "Alpha"}, "23": {"stimulus": 54, "trial": 23, "rt": 764, "response": "Alpha"}, "46": {"stimulus": 50, "trial": 46, "rt": 7302, "response": "Alpha"}, "47": {"stimulus": 10, "trial": 47, "rt": 2110, "response": "Alpha"}, "44": {"stimulus": 25, "trial": 44, "rt": 1283, "response": "Alpha"}, "45": {"stimulus": 49, "trial": 45, "rt": 4986, "response": "Alpha"}, "28": {"stimulus": 70, "trial": 28, "rt": 697, "response": "Alpha"}, "29": {"stimulus": 4, "trial": 29, "rt": 1091, "response": "Gamma"}, "40": {"stimulus": 8, "trial": 40, "rt": 1217, "response": "Gamma"}, "41": {"stimulus": 39, "trial": 41, "rt": 931, "response": "Alpha"}, "1": {"stimulus": 7, "trial": 1, "rt": 1148, "response": "Beta"}, "0": {"stimulus": 16, "trial": 0, "rt": 4470, "response": "Alpha"}, "3": {"stimulus": 24, "trial": 3, "rt": 952, "response": "Alpha"}, "2": {"stimulus": 73, "trial": 2, "rt": 1373, "response": "Alpha"}, "5": {"stimulus": 71, "trial": 5, "rt": 8169, "response": "Alpha"}, "4": {"stimulus": 77, "trial": 4, "rt": 1042, "response": "Beta"}, "7": {"stimulus": 31, "trial": 7, "rt": 1113, "response": "Alpha"}, "6": {"stimulus": 46, "trial": 6, "rt": 2922, "response": "Alpha"}, "9": {"stimulus": 41, "trial": 9, "rt": 3876, "response": "Alpha"}, "8": {"stimulus": 22, "trial": 8, "rt": 3096, "response": "Alpha"}, "78": {"stimulus": 0, "trial": 78, "rt": 1047, "response": "Gamma"}, "51": {"stimulus": 21, "trial": 51, "rt": 1263, "response": "Alpha"}, "39": {"stimulus": 38, "trial": 39, "rt": 801, "response": "Alpha"}, "65": {"stimulus": 75, "trial": 65, "rt": 2179, "response": "Alpha"}, "76": {"stimulus": 32, "trial": 76, "rt": 744, "response": "Alpha"}, "75": {"stimulus": 19, "trial": 75, "rt": 1676, "response": "Alpha"}, "38": {"stimulus": 69, "trial": 38, "rt": 884, "response": "Alpha"}, "73": {"stimulus": 29, "trial": 73, "rt": 769, "response": "Alpha"}, "72": {"stimulus": 5, "trial": 72, "rt": 1561, "response": "Beta"}, "71": {"stimulus": 3, "trial": 71, "rt": 1485, "response": "Beta"}, "70": {"stimulus": 1, "trial": 70, "rt": 1332, "response": "Beta"}, "59": {"stimulus": 14, "trial": 59, "rt": 1275, "response": "Gamma"}, "79": {"stimulus": 11, "trial": 79, "rt": 798, "response": "Beta"}, "58": {"stimulus": 18, "trial": 58, "rt": 855, "response": "Alpha"}, "11": {"stimulus": 59, "trial": 11, "rt": 1269, "response": "Alpha"}, "10": {"stimulus": 42, "trial": 10, "rt": 593, "response": "Alpha"}, "13": {"stimulus": 51, "trial": 13, "rt": 1046, "response": "Alpha"}, "12": {"stimulus": 58, "trial": 12, "rt": 67256, "response": "Alpha"}, "15": {"stimulus": 45, "trial": 15, "rt": 1037, "response": "Alpha"}, "14": {"stimulus": 64, "trial": 14, "rt": 1966, "response": "Alpha"}, "17": {"stimulus": 65, "trial": 17, "rt": 2130, "response": "Beta"}, "16": {"stimulus": 55, "trial": 16, "rt": 797, "response": "Alpha"}, "19": {"stimulus": 78, "trial": 19, "rt": 1223, "response": "Alpha"}, "18": {"stimulus": 20, "trial": 18, "rt": 705, "response": "Alpha"}, "31": {"stimulus": 67, "trial": 31, "rt": 1586, "response": "Beta"}, "30": {"stimulus": 44, "trial": 30, "rt": 1470, "response": "Alpha"}, "37": {"stimulus": 30, "trial": 37, "rt": 743, "response": "Alpha"}, "36": {"stimulus": 47, "trial": 36, "rt": 931, "response": "Alpha"}, "35": {"stimulus": 6, "trial": 35, "rt": 1647, "response": "Gamma"}, "34": {"stimulus": 68, "trial": 34, "rt": 1471, "response": "Alpha"}, "33": {"stimulus": 2, "trial": 33, "rt": 2848, "response": "Gamma"}, "55": {"stimulus": 23, "trial": 55, "rt": 1586, "response": "Alpha"}, "74": {"stimulus": 53, "trial": 74, "rt": 6842, "response": "Alpha"}, "32": {"stimulus": 43, "trial": 32, "rt": 1147, "response": "Alpha"}, "57": {"stimulus": 62, "trial": 57, "rt": 1308, "response": "Alpha"}, "50": {"stimulus": 13, "trial": 50, "rt": 777, "response": "Alpha"}}, "experiment": {"Paradigm": "TACL", "Stimuli": "Size-Color Squares", "Experiment": "Generating-Multiple-Categories"}, "submit": {"timeTotal": 517993, "age": "28", "comments": "", "sex": "male"}}