{"info": {"finish": 1535360377591, "participant": 87, "exposed": true, "lab": false, "start": 1535359858885, "counterbalance": 6, "gentype": 1, "condition": "Bottom", "browser": {"platform": "Win32", "userAgent": "Mozilla/5.0 (Windows NT 10.0; Win64; x64) AppleWebKit/537.36 (KHTML, like Gecko) Chrome/67.0.3396.87 Safari/537.36"}}, "observation": {"11": {"stimulus": 30, "trial": 11, "rt": 3476}, "10": {"stimulus": 14, "trial": 10, "rt": 2014}, "1": {"stimulus": 30, "trial": 1, "rt": 1773}, "0": {"stimulus": 14, "trial": 0, "rt": 3106}, "3": {"stimulus": 12, "trial": 3, "rt": 3804}, "2": {"stimulus": 32, "trial": 2, "rt": 2080}, "5": {"stimulus": 12, "trial": 5, "rt": 4153}, "4": {"stimulus": 14, "trial": 4, "rt": 3101}, "7": {"stimulus": 30, "trial": 7, "rt": 1487}, "6": {"stimulus": 32, "trial": 6, "rt": 2091}, "9": {"stimulus": 12, "trial": 9, "rt": 1738}, "8": {"stimulus": 32, "trial": 8, "rt": 1742}}, "generation": {"1": {"category": "Beta", "trial": 1, "stimulus": 22, "rt": 12692}, "0": {"category": "Beta", "trial": 0, "stimulus": 21, "rt": 12204}, "3": {"category": "Beta", "trial": 3, "stimulus": 11, "rt": 11907}, "2": {"category": "Beta", "trial": 2, "stimulus": 20, "rt": 19324}, "5": {"category": "Beta", "trial": 5, "stimulus": 28, "rt": 3533}, "4": {"category": "Beta", "trial": 4, "stimulus": 19, "rt": 7477}, "7": {"category": "Beta", "trial": 7, "stimulus": 31, "rt": 4454}, "6": {"category": "Beta", "trial": 6, "stimulus": 27, "rt": 3539}}, "generalization": {"56": {"stimulus": 54, "trial": 56, "rt": 795, "response": "Beta"}, "77": {"stimulus": 72, "trial": 77, "rt": 1022, "response": "Beta"}, "54": {"stimulus": 74, "trial": 54, "rt": 1028, "response": "Alpha"}, "42": {"stimulus": 16, "trial": 42, "rt": 1127, "response": "Alpha"}, "48": {"stimulus": 7, "trial": 48, "rt": 678, "response": "Alpha"}, "43": {"stimulus": 65, "trial": 43, "rt": 1929, "response": "Alpha"}, "60": {"stimulus": 14, "trial": 60, "rt": 2692, "response": "Alpha"}, "61": {"stimulus": 17, "trial": 61, "rt": 1410, "response": "Alpha"}, "62": {"stimulus": 52, "trial": 62, "rt": 1023, "response": "Alpha"}, "63": {"stimulus": 8, "trial": 63, "rt": 912, "response": "Alpha"}, "64": {"stimulus": 69, "trial": 64, "rt": 5064, "response": "Alpha"}, "49": {"stimulus": 13, "trial": 49, "rt": 839, "response": "Alpha"}, "66": {"stimulus": 80, "trial": 66, "rt": 968, "response": "Alpha"}, "67": {"stimulus": 62, "trial": 67, "rt": 1699, "response": "Alpha"}, "68": {"stimulus": 20, "trial": 68, "rt": 716, "response": "Alpha"}, "69": {"stimulus": 59, "trial": 69, "rt": 1088, "response": "Alpha"}, "80": {"stimulus": 71, "trial": 80, "rt": 1023, "response": "Alpha"}, "52": {"stimulus": 51, "trial": 52, "rt": 643, "response": "Alpha"}, "53": {"stimulus": 4, "trial": 53, "rt": 1796, "response": "Alpha"}, "24": {"stimulus": 18, "trial": 24, "rt": 854, "response": "Alpha"}, "25": {"stimulus": 43, "trial": 25, "rt": 6884, "response": "Alpha"}, "26": {"stimulus": 6, "trial": 26, "rt": 557, "response": "Alpha"}, "27": {"stimulus": 38, "trial": 27, "rt": 1335, "response": "Beta"}, "20": {"stimulus": 79, "trial": 20, "rt": 879, "response": "Alpha"}, "21": {"stimulus": 22, "trial": 21, "rt": 825, "response": "Alpha"}, "22": {"stimulus": 50, "trial": 22, "rt": 2215, "response": "Alpha"}, "23": {"stimulus": 25, "trial": 23, "rt": 4873, "response": "Alpha"}, "46": {"stimulus": 66, "trial": 46, "rt": 68704, "response": "Alpha"}, "47": {"stimulus": 27, "trial": 47, "rt": 993, "response": "Beta"}, "44": {"stimulus": 30, "trial": 44, "rt": 3182, "response": "Alpha"}, "45": {"stimulus": 32, "trial": 45, "rt": 12229, "response": "Alpha"}, "28": {"stimulus": 31, "trial": 28, "rt": 1077, "response": "Alpha"}, "29": {"stimulus": 78, "trial": 29, "rt": 2315, "response": "Alpha"}, "40": {"stimulus": 9, "trial": 40, "rt": 1408, "response": "Beta"}, "41": {"stimulus": 64, "trial": 41, "rt": 1057, "response": "Beta"}, "1": {"stimulus": 5, "trial": 1, "rt": 1182, "response": "Alpha"}, "0": {"stimulus": 61, "trial": 0, "rt": 4709, "response": "Beta"}, "3": {"stimulus": 36, "trial": 3, "rt": 793, "response": "Alpha"}, "2": {"stimulus": 19, "trial": 2, "rt": 1543, "response": "Beta"}, "5": {"stimulus": 26, "trial": 5, "rt": 8264, "response": "Alpha"}, "4": {"stimulus": 60, "trial": 4, "rt": 2663, "response": "Beta"}, "7": {"stimulus": 63, "trial": 7, "rt": 1083, "response": "Beta"}, "6": {"stimulus": 0, "trial": 6, "rt": 2993, "response": "Beta"}, "9": {"stimulus": 68, "trial": 9, "rt": 1344, "response": "Alpha"}, "8": {"stimulus": 45, "trial": 8, "rt": 3059, "response": "Beta"}, "78": {"stimulus": 76, "trial": 78, "rt": 1395, "response": "Alpha"}, "51": {"stimulus": 3, "trial": 51, "rt": 1308, "response": "Alpha"}, "39": {"stimulus": 10, "trial": 39, "rt": 590, "response": "Alpha"}, "65": {"stimulus": 29, "trial": 65, "rt": 2429, "response": "Alpha"}, "76": {"stimulus": 46, "trial": 76, "rt": 853, "response": "Alpha"}, "75": {"stimulus": 23, "trial": 75, "rt": 1819, "response": "Alpha"}, "38": {"stimulus": 15, "trial": 38, "rt": 752, "response": "Alpha"}, "73": {"stimulus": 2, "trial": 73, "rt": 1424, "response": "Alpha"}, "72": {"stimulus": 28, "trial": 72, "rt": 1934, "response": "Beta"}, "71": {"stimulus": 34, "trial": 71, "rt": 942, "response": "Alpha"}, "70": {"stimulus": 57, "trial": 70, "rt": 1779, "response": "Alpha"}, "59": {"stimulus": 39, "trial": 59, "rt": 1295, "response": "Alpha"}, "79": {"stimulus": 41, "trial": 79, "rt": 1021, "response": "Alpha"}, "58": {"stimulus": 33, "trial": 58, "rt": 2060, "response": "Alpha"}, "11": {"stimulus": 55, "trial": 11, "rt": 1653, "response": "Beta"}, "10": {"stimulus": 58, "trial": 10, "rt": 1353, "response": "Alpha"}, "13": {"stimulus": 53, "trial": 13, "rt": 1144, "response": "Alpha"}, "12": {"stimulus": 77, "trial": 12, "rt": 67237, "response": "Alpha"}, "15": {"stimulus": 40, "trial": 15, "rt": 1011, "response": "Alpha"}, "14": {"stimulus": 42, "trial": 14, "rt": 1908, "response": "Alpha"}, "17": {"stimulus": 35, "trial": 17, "rt": 2184, "response": "Beta"}, "16": {"stimulus": 44, "trial": 16, "rt": 806, "response": "Alpha"}, "19": {"stimulus": 37, "trial": 19, "rt": 1279, "response": "Beta"}, "18": {"stimulus": 49, "trial": 18, "rt": 593, "response": "Alpha"}, "31": {"stimulus": 24, "trial": 31, "rt": 1834, "response": "Alpha"}, "30": {"stimulus": 47, "trial": 30, "rt": 2085, "response": "Beta"}, "37": {"stimulus": 21, "trial": 37, "rt": 994, "response": "Alpha"}, "36": {"stimulus": 11, "trial": 36, "rt": 1102, "response": "Alpha"}, "35": {"stimulus": 67, "trial": 35, "rt": 1048, "response": "Alpha"}, "34": {"stimulus": 48, "trial": 34, "rt": 1657, "response": "Alpha"}, "33": {"stimulus": 73, "trial": 33, "rt": 2622, "response": "Beta"}, "55": {"stimulus": 56, "trial": 55, "rt": 2662, "response": "Beta"}, "74": {"stimulus": 12, "trial": 74, "rt": 8594, "response": "Alpha"}, "32": {"stimulus": 70, "trial": 32, "rt": 973, "response": "Alpha"}, "57": {"stimulus": 1, "trial": 57, "rt": 724, "response": "Beta"}, "50": {"stimulus": 75, "trial": 50, "rt": 1013, "response": "Alpha"}}, "experiment": {"Paradigm": "TACL", "Stimuli": "Size-Color Squares", "Experiment": "Generating-Multiple-Categories"}, "submit": {"timeTotal": 519013, "age": "26", "comments": "", "sex": "female"}}