{"info": {"finish": 1535360717896, "participant": 89, "exposed": true, "lab": false, "start": 1535360383320, "counterbalance": 0, "gentype": 0, "condition": "Middle", "browser": {"platform": "Win32", "userAgent": "Mozilla/5.0 (Windows NT 10.0; Win64; x64) AppleWebKit/537.36 (KHTML, like Gecko) Chrome/68.0.3440.106 Safari/537.36"}}, "observation": {"11": {"stimulus": 30, "trial": 11, "rt": 2570}, "10": {"stimulus": 48, "trial": 10, "rt": 1416}, "1": {"stimulus": 48, "trial": 1, "rt": 1479}, "0": {"stimulus": 30, "trial": 0, "rt": 2208}, "3": {"stimulus": 32, "trial": 3, "rt": 1448}, "2": {"stimulus": 50, "trial": 2, "rt": 1536}, "5": {"stimulus": 50, "trial": 5, "rt": 1456}, "4": {"stimulus": 48, "trial": 4, "rt": 1730}, "7": {"stimulus": 30, "trial": 7, "rt": 1448}, "6": {"stimulus": 32, "trial": 6, "rt": 1456}, "9": {"stimulus": 32, "trial": 9, "rt": 1489}, "8": {"stimulus": 50, "trial": 8, "rt": 1507}}, "generation": {"1": {"category": "Not-Alpha", "trial": 1, "stimulus": 2, "rt": 3415}, "0": {"category": "Not-Alpha", "trial": 0, "stimulus": 0, "rt": 9784}, "3": {"category": "Not-Alpha", "trial": 3, "stimulus": 3, "rt": 2269}, "2": {"category": "Not-Alpha", "trial": 2, "stimulus": 4, "rt": 3113}, "5": {"category": "Not-Alpha", "trial": 5, "stimulus": 1, "rt": 11721}, "4": {"category": "Not-Alpha", "trial": 4, "stimulus": 7, "rt": 2672}, "7": {"category": "Not-Alpha", "trial": 7, "stimulus": 8, "rt": 5110}, "6": {"category": "Not-Alpha", "trial": 6, "stimulus": 6, "rt": 2581}}, "generalization": {"56": {"stimulus": 17, "trial": 56, "rt": 1165, "response": "Beta"}, "77": {"stimulus": 10, "trial": 77, "rt": 616, "response": "Beta"}, "54": {"stimulus": 38, "trial": 54, "rt": 1036, "response": "Beta"}, "42": {"stimulus": 46, "trial": 42, "rt": 866, "response": "Alpha"}, "48": {"stimulus": 37, "trial": 48, "rt": 3054, "response": "Alpha"}, "43": {"stimulus": 68, "trial": 43, "rt": 946, "response": "Beta"}, "60": {"stimulus": 43, "trial": 60, "rt": 855, "response": "Alpha"}, "61": {"stimulus": 48, "trial": 61, "rt": 1247, "response": "Alpha"}, "62": {"stimulus": 25, "trial": 62, "rt": 664, "response": "Beta"}, "63": {"stimulus": 58, "trial": 63, "rt": 845, "response": "Alpha"}, "64": {"stimulus": 57, "trial": 64, "rt": 914, "response": "Alpha"}, "49": {"stimulus": 6, "trial": 49, "rt": 716, "response": "Beta"}, "66": {"stimulus": 33, "trial": 66, "rt": 944, "response": "Beta"}, "67": {"stimulus": 31, "trial": 67, "rt": 684, "response": "Beta"}, "68": {"stimulus": 20, "trial": 68, "rt": 715, "response": "Beta"}, "69": {"stimulus": 24, "trial": 69, "rt": 526, "response": "Beta"}, "80": {"stimulus": 67, "trial": 80, "rt": 824, "response": "Beta"}, "52": {"stimulus": 16, "trial": 52, "rt": 1618, "response": "Beta"}, "53": {"stimulus": 65, "trial": 53, "rt": 796, "response": "Beta"}, "24": {"stimulus": 9, "trial": 24, "rt": 665, "response": "Beta"}, "25": {"stimulus": 47, "trial": 25, "rt": 844, "response": "Alpha"}, "26": {"stimulus": 35, "trial": 26, "rt": 926, "response": "Alpha"}, "27": {"stimulus": 63, "trial": 27, "rt": 996, "response": "Beta"}, "20": {"stimulus": 50, "trial": 20, "rt": 825, "response": "Alpha"}, "21": {"stimulus": 55, "trial": 21, "rt": 1517, "response": "Alpha"}, "22": {"stimulus": 34, "trial": 22, "rt": 1185, "response": "Alpha"}, "23": {"stimulus": 30, "trial": 23, "rt": 998, "response": "Alpha"}, "46": {"stimulus": 32, "trial": 46, "rt": 955, "response": "Alpha"}, "47": {"stimulus": 79, "trial": 47, "rt": 785, "response": "Beta"}, "44": {"stimulus": 70, "trial": 44, "rt": 1437, "response": "Beta"}, "45": {"stimulus": 0, "trial": 45, "rt": 714, "response": "Beta"}, "28": {"stimulus": 56, "trial": 28, "rt": 894, "response": "Alpha"}, "29": {"stimulus": 71, "trial": 29, "rt": 1048, "response": "Beta"}, "40": {"stimulus": 29, "trial": 40, "rt": 1506, "response": "Beta"}, "41": {"stimulus": 74, "trial": 41, "rt": 886, "response": "Beta"}, "1": {"stimulus": 39, "trial": 1, "rt": 804, "response": "Alpha"}, "0": {"stimulus": 14, "trial": 0, "rt": 2922, "response": "Beta"}, "3": {"stimulus": 8, "trial": 3, "rt": 1108, "response": "Beta"}, "2": {"stimulus": 78, "trial": 2, "rt": 1246, "response": "Beta"}, "5": {"stimulus": 40, "trial": 5, "rt": 776, "response": "Alpha"}, "4": {"stimulus": 80, "trial": 4, "rt": 883, "response": "Beta"}, "7": {"stimulus": 76, "trial": 7, "rt": 1007, "response": "Beta"}, "6": {"stimulus": 64, "trial": 6, "rt": 986, "response": "Beta"}, "9": {"stimulus": 19, "trial": 9, "rt": 2009, "response": "Beta"}, "8": {"stimulus": 54, "trial": 8, "rt": 1087, "response": "Alpha"}, "78": {"stimulus": 12, "trial": 78, "rt": 1013, "response": "Beta"}, "51": {"stimulus": 44, "trial": 51, "rt": 846, "response": "Alpha"}, "39": {"stimulus": 13, "trial": 39, "rt": 936, "response": "Beta"}, "65": {"stimulus": 23, "trial": 65, "rt": 907, "response": "Beta"}, "76": {"stimulus": 36, "trial": 76, "rt": 1188, "response": "Alpha"}, "75": {"stimulus": 3, "trial": 75, "rt": 654, "response": "Beta"}, "38": {"stimulus": 22, "trial": 38, "rt": 1216, "response": "Beta"}, "73": {"stimulus": 49, "trial": 73, "rt": 4808, "response": "Alpha"}, "72": {"stimulus": 26, "trial": 72, "rt": 704, "response": "Beta"}, "71": {"stimulus": 59, "trial": 71, "rt": 1960, "response": "Alpha"}, "70": {"stimulus": 5, "trial": 70, "rt": 685, "response": "Beta"}, "59": {"stimulus": 2, "trial": 59, "rt": 715, "response": "Beta"}, "79": {"stimulus": 51, "trial": 79, "rt": 1238, "response": "Alpha"}, "58": {"stimulus": 52, "trial": 58, "rt": 855, "response": "Alpha"}, "11": {"stimulus": 42, "trial": 11, "rt": 1286, "response": "Alpha"}, "10": {"stimulus": 53, "trial": 10, "rt": 795, "response": "Alpha"}, "13": {"stimulus": 45, "trial": 13, "rt": 1057, "response": "Alpha"}, "12": {"stimulus": 75, "trial": 12, "rt": 1064, "response": "Beta"}, "15": {"stimulus": 62, "trial": 15, "rt": 3696, "response": "Alpha"}, "14": {"stimulus": 66, "trial": 14, "rt": 1256, "response": "Beta"}, "17": {"stimulus": 60, "trial": 17, "rt": 2750, "response": "Alpha"}, "16": {"stimulus": 15, "trial": 16, "rt": 7507, "response": "Beta"}, "19": {"stimulus": 4, "trial": 19, "rt": 615, "response": "Beta"}, "18": {"stimulus": 73, "trial": 18, "rt": 916, "response": "Beta"}, "31": {"stimulus": 21, "trial": 31, "rt": 1067, "response": "Beta"}, "30": {"stimulus": 11, "trial": 30, "rt": 6004, "response": "Beta"}, "37": {"stimulus": 72, "trial": 37, "rt": 2531, "response": "Beta"}, "36": {"stimulus": 1, "trial": 36, "rt": 935, "response": "Beta"}, "35": {"stimulus": 7, "trial": 35, "rt": 1337, "response": "Beta"}, "34": {"stimulus": 77, "trial": 34, "rt": 1840, "response": "Beta"}, "33": {"stimulus": 27, "trial": 33, "rt": 2000, "response": "Beta"}, "55": {"stimulus": 28, "trial": 55, "rt": 1377, "response": "Beta"}, "74": {"stimulus": 61, "trial": 74, "rt": 1819, "response": "Alpha"}, "32": {"stimulus": 69, "trial": 32, "rt": 1076, "response": "Beta"}, "57": {"stimulus": 41, "trial": 57, "rt": 864, "response": "Alpha"}, "50": {"stimulus": 18, "trial": 50, "rt": 1187, "response": "Beta"}}, "experiment": {"Paradigm": "TACL", "Stimuli": "Size-Color Squares", "Experiment": "Generating-Multiple-Categories"}, "submit": {"timeTotal": 335151, "age": "29", "comments": "I had no issues.", "sex": "Male"}}