{"info": {"finish": 1535360693026, "participant": 90, "exposed": true, "lab": false, "start": 1535360405411, "counterbalance": 6, "gentype": 1, "condition": "Middle", "browser": {"platform": "Win32", "userAgent": "Mozilla/5.0 (Windows NT 10.0; Win64; x64) AppleWebKit/537.36 (KHTML, like Gecko) Chrome/69.0.3497.57 Safari/537.36"}}, "observation": {"11": {"stimulus": 48, "trial": 11, "rt": 6207}, "10": {"stimulus": 30, "trial": 10, "rt": 1671}, "1": {"stimulus": 50, "trial": 1, "rt": 2174}, "0": {"stimulus": 32, "trial": 0, "rt": 2293}, "3": {"stimulus": 48, "trial": 3, "rt": 1415}, "2": {"stimulus": 30, "trial": 2, "rt": 1557}, "5": {"stimulus": 32, "trial": 5, "rt": 1333}, "4": {"stimulus": 48, "trial": 4, "rt": 1312}, "7": {"stimulus": 30, "trial": 7, "rt": 1328}, "6": {"stimulus": 50, "trial": 6, "rt": 1495}, "9": {"stimulus": 32, "trial": 9, "rt": 1334}, "8": {"stimulus": 50, "trial": 8, "rt": 1639}}, "generation": {"1": {"category": "Beta", "trial": 1, "stimulus": 53, "rt": 3876}, "0": {"category": "Beta", "trial": 0, "stimulus": 0, "rt": 11695}, "3": {"category": "Beta", "trial": 3, "stimulus": 44, "rt": 6518}, "2": {"category": "Beta", "trial": 2, "stimulus": 80, "rt": 3927}, "5": {"category": "Beta", "trial": 5, "stimulus": 63, "rt": 3448}, "4": {"category": "Beta", "trial": 4, "stimulus": 72, "rt": 3015}, "7": {"category": "Beta", "trial": 7, "stimulus": 1, "rt": 3575}, "6": {"category": "Beta", "trial": 6, "stimulus": 37, "rt": 3766}}, "generalization": {"56": {"stimulus": 34, "trial": 56, "rt": 1096, "response": "Beta"}, "77": {"stimulus": 43, "trial": 77, "rt": 744, "response": "Beta"}, "54": {"stimulus": 7, "trial": 54, "rt": 983, "response": "Alpha"}, "42": {"stimulus": 54, "trial": 42, "rt": 1207, "response": "Beta"}, "48": {"stimulus": 31, "trial": 48, "rt": 671, "response": "Alpha"}, "43": {"stimulus": 73, "trial": 43, "rt": 807, "response": "Beta"}, "60": {"stimulus": 47, "trial": 60, "rt": 5510, "response": "Beta"}, "61": {"stimulus": 49, "trial": 61, "rt": 3895, "response": "Alpha"}, "62": {"stimulus": 48, "trial": 62, "rt": 841, "response": "Alpha"}, "63": {"stimulus": 58, "trial": 63, "rt": 747, "response": "Alpha"}, "64": {"stimulus": 14, "trial": 64, "rt": 639, "response": "Alpha"}, "49": {"stimulus": 11, "trial": 49, "rt": 742, "response": "Beta"}, "66": {"stimulus": 69, "trial": 66, "rt": 777, "response": "Alpha"}, "67": {"stimulus": 65, "trial": 67, "rt": 903, "response": "Beta"}, "68": {"stimulus": 28, "trial": 68, "rt": 815, "response": "Beta"}, "69": {"stimulus": 6, "trial": 69, "rt": 735, "response": "Alpha"}, "80": {"stimulus": 2, "trial": 80, "rt": 831, "response": "Beta"}, "52": {"stimulus": 26, "trial": 52, "rt": 967, "response": "Beta"}, "53": {"stimulus": 35, "trial": 53, "rt": 791, "response": "Beta"}, "24": {"stimulus": 60, "trial": 24, "rt": 1022, "response": "Alpha"}, "25": {"stimulus": 32, "trial": 25, "rt": 5975, "response": "Alpha"}, "26": {"stimulus": 74, "trial": 26, "rt": 1021, "response": "Beta"}, "27": {"stimulus": 46, "trial": 27, "rt": 736, "response": "Beta"}, "20": {"stimulus": 18, "trial": 20, "rt": 1222, "response": "Beta"}, "21": {"stimulus": 55, "trial": 21, "rt": 640, "response": "Beta"}, "22": {"stimulus": 15, "trial": 22, "rt": 1014, "response": "Alpha"}, "23": {"stimulus": 53, "trial": 23, "rt": 1464, "response": "Beta"}, "46": {"stimulus": 9, "trial": 46, "rt": 709, "response": "Beta"}, "47": {"stimulus": 10, "trial": 47, "rt": 640, "response": "Beta"}, "44": {"stimulus": 66, "trial": 44, "rt": 2862, "response": "Beta"}, "45": {"stimulus": 71, "trial": 45, "rt": 855, "response": "Beta"}, "28": {"stimulus": 38, "trial": 28, "rt": 918, "response": "Beta"}, "29": {"stimulus": 80, "trial": 29, "rt": 1009, "response": "Beta"}, "40": {"stimulus": 33, "trial": 40, "rt": 1023, "response": "Alpha"}, "41": {"stimulus": 1, "trial": 41, "rt": 4239, "response": "Beta"}, "1": {"stimulus": 4, "trial": 1, "rt": 592, "response": "Alpha"}, "0": {"stimulus": 27, "trial": 0, "rt": 3421, "response": "Beta"}, "3": {"stimulus": 70, "trial": 3, "rt": 567, "response": "Alpha"}, "2": {"stimulus": 17, "trial": 2, "rt": 493, "response": "Alpha"}, "5": {"stimulus": 21, "trial": 5, "rt": 1157, "response": "Beta"}, "4": {"stimulus": 23, "trial": 4, "rt": 1934, "response": "Alpha"}, "7": {"stimulus": 25, "trial": 7, "rt": 832, "response": "Alpha"}, "6": {"stimulus": 5, "trial": 6, "rt": 751, "response": "Alpha"}, "9": {"stimulus": 56, "trial": 9, "rt": 1591, "response": "Beta"}, "8": {"stimulus": 67, "trial": 8, "rt": 776, "response": "Alpha"}, "78": {"stimulus": 79, "trial": 78, "rt": 776, "response": "Beta"}, "51": {"stimulus": 40, "trial": 51, "rt": 880, "response": "Alpha"}, "39": {"stimulus": 36, "trial": 39, "rt": 959, "response": "Beta"}, "65": {"stimulus": 51, "trial": 65, "rt": 759, "response": "Alpha"}, "76": {"stimulus": 22, "trial": 76, "rt": 755, "response": "Alpha"}, "75": {"stimulus": 77, "trial": 75, "rt": 841, "response": "Alpha"}, "38": {"stimulus": 39, "trial": 38, "rt": 1894, "response": "Alpha"}, "73": {"stimulus": 13, "trial": 73, "rt": 623, "response": "Alpha"}, "72": {"stimulus": 42, "trial": 72, "rt": 1559, "response": "Alpha"}, "71": {"stimulus": 41, "trial": 71, "rt": 695, "response": "Alpha"}, "70": {"stimulus": 63, "trial": 70, "rt": 774, "response": "Beta"}, "59": {"stimulus": 76, "trial": 59, "rt": 1655, "response": "Alpha"}, "79": {"stimulus": 3, "trial": 79, "rt": 943, "response": "Alpha"}, "58": {"stimulus": 75, "trial": 58, "rt": 877, "response": "Alpha"}, "11": {"stimulus": 30, "trial": 11, "rt": 1103, "response": "Beta"}, "10": {"stimulus": 0, "trial": 10, "rt": 887, "response": "Beta"}, "13": {"stimulus": 44, "trial": 13, "rt": 1006, "response": "Beta"}, "12": {"stimulus": 72, "trial": 12, "rt": 966, "response": "Beta"}, "15": {"stimulus": 29, "trial": 15, "rt": 1020, "response": "Beta"}, "14": {"stimulus": 45, "trial": 14, "rt": 975, "response": "Beta"}, "17": {"stimulus": 64, "trial": 17, "rt": 894, "response": "Beta"}, "16": {"stimulus": 62, "trial": 16, "rt": 1151, "response": "Alpha"}, "19": {"stimulus": 12, "trial": 19, "rt": 912, "response": "Alpha"}, "18": {"stimulus": 50, "trial": 18, "rt": 768, "response": "Alpha"}, "31": {"stimulus": 37, "trial": 31, "rt": 1063, "response": "Beta"}, "30": {"stimulus": 68, "trial": 30, "rt": 774, "response": "Alpha"}, "37": {"stimulus": 8, "trial": 37, "rt": 959, "response": "Beta"}, "36": {"stimulus": 78, "trial": 36, "rt": 576, "response": "Alpha"}, "35": {"stimulus": 52, "trial": 35, "rt": 759, "response": "Alpha"}, "34": {"stimulus": 20, "trial": 34, "rt": 911, "response": "Alpha"}, "33": {"stimulus": 61, "trial": 33, "rt": 780, "response": "Alpha"}, "55": {"stimulus": 19, "trial": 55, "rt": 1262, "response": "Beta"}, "74": {"stimulus": 24, "trial": 74, "rt": 615, "response": "Alpha"}, "32": {"stimulus": 59, "trial": 32, "rt": 895, "response": "Alpha"}, "57": {"stimulus": 16, "trial": 57, "rt": 671, "response": "Alpha"}, "50": {"stimulus": 57, "trial": 50, "rt": 1344, "response": "Alpha"}}, "experiment": {"Paradigm": "TACL", "Stimuli": "Size-Color Squares", "Experiment": "Generating-Multiple-Categories"}, "submit": {"timeTotal": 287774, "age": "29", "comments": "", "sex": "male"}}