{"info": {"finish": 1535363858318, "participant": 93, "exposed": true, "lab": false, "start": 1535363553398, "counterbalance": 7, "gentype": 2, "condition": "Middle", "browser": {"platform": "Win32", "userAgent": "Mozilla/5.0 (Windows NT 6.3; Win64; x64) AppleWebKit/537.36 (KHTML, like Gecko) Chrome/68.0.3440.106 Safari/537.36"}}, "observation": {"11": {"stimulus": 30, "trial": 11, "rt": 1631}, "10": {"stimulus": 48, "trial": 10, "rt": 3319}, "1": {"stimulus": 50, "trial": 1, "rt": 2472}, "0": {"stimulus": 48, "trial": 0, "rt": 2589}, "3": {"stimulus": 30, "trial": 3, "rt": 2729}, "2": {"stimulus": 32, "trial": 2, "rt": 2251}, "5": {"stimulus": 30, "trial": 5, "rt": 2388}, "4": {"stimulus": 48, "trial": 4, "rt": 2986}, "7": {"stimulus": 50, "trial": 7, "rt": 2346}, "6": {"stimulus": 32, "trial": 6, "rt": 1885}, "9": {"stimulus": 50, "trial": 9, "rt": 2402}, "8": {"stimulus": 32, "trial": 8, "rt": 2353}}, "generation": {"1": {"category": "Beta", "trial": 1, "stimulus": 72, "rt": 5135}, "0": {"category": "Beta", "trial": 0, "stimulus": 0, "rt": 7291}, "3": {"category": "Beta", "trial": 3, "stimulus": 1, "rt": 10550}, "2": {"category": "Beta", "trial": 2, "stimulus": 73, "rt": 7075}, "5": {"category": "Gamma", "trial": 5, "stimulus": 47, "rt": 4502}, "4": {"category": "Gamma", "trial": 4, "stimulus": 40, "rt": 6121}, "7": {"category": "Gamma", "trial": 7, "stimulus": 64, "rt": 2868}, "6": {"category": "Gamma", "trial": 6, "stimulus": 56, "rt": 3363}}, "generalization": {"56": {"stimulus": 15, "trial": 56, "rt": 891, "response": "Beta"}, "77": {"stimulus": 12, "trial": 77, "rt": 1247, "response": "Alpha"}, "54": {"stimulus": 24, "trial": 54, "rt": 1634, "response": "Alpha"}, "42": {"stimulus": 59, "trial": 42, "rt": 975, "response": "Beta"}, "48": {"stimulus": 9, "trial": 48, "rt": 2017, "response": "Beta"}, "43": {"stimulus": 33, "trial": 43, "rt": 274, "response": "Alpha"}, "60": {"stimulus": 13, "trial": 60, "rt": 611, "response": "Alpha"}, "61": {"stimulus": 64, "trial": 61, "rt": 295, "response": "Alpha"}, "62": {"stimulus": 45, "trial": 62, "rt": 1034, "response": "Beta"}, "63": {"stimulus": 44, "trial": 63, "rt": 1013, "response": "Gamma"}, "64": {"stimulus": 55, "trial": 64, "rt": 1266, "response": "Beta"}, "49": {"stimulus": 41, "trial": 49, "rt": 1578, "response": "Alpha"}, "66": {"stimulus": 36, "trial": 66, "rt": 731, "response": "Alpha"}, "67": {"stimulus": 66, "trial": 67, "rt": 2014, "response": "Gamma"}, "68": {"stimulus": 37, "trial": 68, "rt": 1346, "response": "Beta"}, "69": {"stimulus": 63, "trial": 69, "rt": 1240, "response": "Gamma"}, "80": {"stimulus": 42, "trial": 80, "rt": 606, "response": "Beta"}, "52": {"stimulus": 65, "trial": 52, "rt": 685, "response": "Beta"}, "53": {"stimulus": 38, "trial": 53, "rt": 1245, "response": "Alpha"}, "24": {"stimulus": 35, "trial": 24, "rt": 1130, "response": "Beta"}, "25": {"stimulus": 8, "trial": 25, "rt": 1194, "response": "Alpha"}, "26": {"stimulus": 6, "trial": 26, "rt": 1989, "response": "Beta"}, "27": {"stimulus": 58, "trial": 27, "rt": 1308, "response": "Gamma"}, "20": {"stimulus": 68, "trial": 20, "rt": 859, "response": "Gamma"}, "21": {"stimulus": 32, "trial": 21, "rt": 1496, "response": "Beta"}, "22": {"stimulus": 28, "trial": 22, "rt": 813, "response": "Alpha"}, "23": {"stimulus": 26, "trial": 23, "rt": 855, "response": "Gamma"}, "46": {"stimulus": 53, "trial": 46, "rt": 763, "response": "Beta"}, "47": {"stimulus": 56, "trial": 47, "rt": 604, "response": "Alpha"}, "44": {"stimulus": 23, "trial": 44, "rt": 747, "response": "Beta"}, "45": {"stimulus": 21, "trial": 45, "rt": 644, "response": "Alpha"}, "28": {"stimulus": 4, "trial": 28, "rt": 907, "response": "Alpha"}, "29": {"stimulus": 77, "trial": 29, "rt": 1333, "response": "Beta"}, "40": {"stimulus": 73, "trial": 40, "rt": 774, "response": "Gamma"}, "41": {"stimulus": 61, "trial": 41, "rt": 527, "response": "Alpha"}, "1": {"stimulus": 29, "trial": 1, "rt": 2173, "response": "Alpha"}, "0": {"stimulus": 75, "trial": 0, "rt": 1980, "response": "Alpha"}, "3": {"stimulus": 71, "trial": 3, "rt": 863, "response": "Alpha"}, "2": {"stimulus": 78, "trial": 2, "rt": 1090, "response": "Beta"}, "5": {"stimulus": 27, "trial": 5, "rt": 1392, "response": "Alpha"}, "4": {"stimulus": 46, "trial": 4, "rt": 1074, "response": "Gamma"}, "7": {"stimulus": 25, "trial": 7, "rt": 948, "response": "Alpha"}, "6": {"stimulus": 19, "trial": 6, "rt": 986, "response": "Beta"}, "9": {"stimulus": 49, "trial": 9, "rt": 907, "response": "Alpha"}, "8": {"stimulus": 76, "trial": 8, "rt": 781, "response": "Beta"}, "78": {"stimulus": 16, "trial": 78, "rt": 716, "response": "Alpha"}, "51": {"stimulus": 69, "trial": 51, "rt": 1061, "response": "Alpha"}, "39": {"stimulus": 31, "trial": 39, "rt": 967, "response": "Alpha"}, "65": {"stimulus": 10, "trial": 65, "rt": 2044, "response": "Alpha"}, "76": {"stimulus": 70, "trial": 76, "rt": 814, "response": "Alpha"}, "75": {"stimulus": 79, "trial": 75, "rt": 816, "response": "Alpha"}, "38": {"stimulus": 30, "trial": 38, "rt": 606, "response": "Beta"}, "73": {"stimulus": 17, "trial": 73, "rt": 1794, "response": "Gamma"}, "72": {"stimulus": 43, "trial": 72, "rt": 824, "response": "Beta"}, "71": {"stimulus": 48, "trial": 71, "rt": 1110, "response": "Alpha"}, "70": {"stimulus": 18, "trial": 70, "rt": 1177, "response": "Beta"}, "59": {"stimulus": 14, "trial": 59, "rt": 697, "response": "Alpha"}, "79": {"stimulus": 5, "trial": 79, "rt": 1409, "response": "Gamma"}, "58": {"stimulus": 7, "trial": 58, "rt": 742, "response": "Alpha"}, "11": {"stimulus": 22, "trial": 11, "rt": 803, "response": "Beta"}, "10": {"stimulus": 80, "trial": 10, "rt": 1017, "response": "Gamma"}, "13": {"stimulus": 47, "trial": 13, "rt": 739, "response": "Alpha"}, "12": {"stimulus": 34, "trial": 12, "rt": 876, "response": "Alpha"}, "15": {"stimulus": 50, "trial": 15, "rt": 1236, "response": "Alpha"}, "14": {"stimulus": 60, "trial": 14, "rt": 1290, "response": "Alpha"}, "17": {"stimulus": 11, "trial": 17, "rt": 871, "response": "Beta"}, "16": {"stimulus": 39, "trial": 16, "rt": 1372, "response": "Gamma"}, "19": {"stimulus": 2, "trial": 19, "rt": 1069, "response": "Alpha"}, "18": {"stimulus": 74, "trial": 18, "rt": 1130, "response": "Beta"}, "31": {"stimulus": 52, "trial": 31, "rt": 1033, "response": "Gamma"}, "30": {"stimulus": 20, "trial": 30, "rt": 697, "response": "Beta"}, "37": {"stimulus": 54, "trial": 37, "rt": 1034, "response": "Alpha"}, "36": {"stimulus": 72, "trial": 36, "rt": 1357, "response": "Beta"}, "35": {"stimulus": 57, "trial": 35, "rt": 811, "response": "Alpha"}, "34": {"stimulus": 62, "trial": 34, "rt": 838, "response": "Alpha"}, "33": {"stimulus": 0, "trial": 33, "rt": 717, "response": "Alpha"}, "55": {"stimulus": 51, "trial": 55, "rt": 773, "response": "Gamma"}, "74": {"stimulus": 40, "trial": 74, "rt": 1132, "response": "Beta"}, "32": {"stimulus": 3, "trial": 32, "rt": 836, "response": "Alpha"}, "57": {"stimulus": 1, "trial": 57, "rt": 962, "response": "Alpha"}, "50": {"stimulus": 67, "trial": 50, "rt": 958, "response": "Gamma"}}, "experiment": {"Paradigm": "TACL", "Stimuli": "Size-Color Squares", "Experiment": "Generating-Multiple-Categories"}, "submit": {"timeTotal": 305122, "age": "28", "comments": "good", "sex": "male"}}