{"info": {"finish": 1535365679983, "participant": 97, "exposed": true, "lab": false, "start": 1535364880826, "counterbalance": 2, "gentype": 1, "condition": "Bottom", "browser": {"platform": "Win32", "userAgent": "Mozilla/5.0 (Windows NT 6.1) AppleWebKit/537.36 (KHTML, like Gecko) Chrome/68.0.3440.106 Safari/537.36"}}, "observation": {"11": {"stimulus": 14, "trial": 11, "rt": 1814}, "10": {"stimulus": 32, "trial": 10, "rt": 1734}, "1": {"stimulus": 32, "trial": 1, "rt": 4216}, "0": {"stimulus": 30, "trial": 0, "rt": 2602}, "3": {"stimulus": 14, "trial": 3, "rt": 190672}, "2": {"stimulus": 12, "trial": 2, "rt": 11794}, "5": {"stimulus": 12, "trial": 5, "rt": 2382}, "4": {"stimulus": 14, "trial": 4, "rt": 3652}, "7": {"stimulus": 32, "trial": 7, "rt": 1813}, "6": {"stimulus": 30, "trial": 6, "rt": 3128}, "9": {"stimulus": 30, "trial": 9, "rt": 1804}, "8": {"stimulus": 12, "trial": 8, "rt": 3399}}, "generation": {"1": {"category": "Beta", "trial": 1, "stimulus": 55, "rt": 7377}, "0": {"category": "Beta", "trial": 0, "stimulus": 31, "rt": 18340}, "3": {"category": "Beta", "trial": 3, "stimulus": 41, "rt": 4285}, "2": {"category": "Beta", "trial": 2, "stimulus": 38, "rt": 7388}, "5": {"category": "Beta", "trial": 5, "stimulus": 65, "rt": 58282}, "4": {"category": "Beta", "trial": 4, "stimulus": 56, "rt": 7531}, "7": {"category": "Beta", "trial": 7, "stimulus": 14, "rt": 3894}, "6": {"category": "Beta", "trial": 6, "stimulus": 43, "rt": 4286}}, "generalization": {"56": {"stimulus": 67, "trial": 56, "rt": 1376, "response": "Alpha"}, "77": {"stimulus": 45, "trial": 77, "rt": 524, "response": "Alpha"}, "54": {"stimulus": 29, "trial": 54, "rt": 1501, "response": "Beta"}, "42": {"stimulus": 32, "trial": 42, "rt": 1023, "response": "Beta"}, "48": {"stimulus": 53, "trial": 48, "rt": 976, "response": "Beta"}, "43": {"stimulus": 75, "trial": 43, "rt": 757, "response": "Alpha"}, "60": {"stimulus": 48, "trial": 60, "rt": 1278, "response": "Alpha"}, "61": {"stimulus": 27, "trial": 61, "rt": 487, "response": "Alpha"}, "62": {"stimulus": 70, "trial": 62, "rt": 508, "response": "Alpha"}, "63": {"stimulus": 62, "trial": 63, "rt": 687, "response": "Beta"}, "64": {"stimulus": 42, "trial": 64, "rt": 592, "response": "Beta"}, "49": {"stimulus": 73, "trial": 49, "rt": 1083, "response": "Alpha"}, "66": {"stimulus": 13, "trial": 66, "rt": 1038, "response": "Alpha"}, "67": {"stimulus": 59, "trial": 67, "rt": 760, "response": "Alpha"}, "68": {"stimulus": 33, "trial": 68, "rt": 550, "response": "Alpha"}, "69": {"stimulus": 12, "trial": 69, "rt": 726, "response": "Alpha"}, "80": {"stimulus": 76, "trial": 80, "rt": 692, "response": "Alpha"}, "52": {"stimulus": 1, "trial": 52, "rt": 751, "response": "Alpha"}, "53": {"stimulus": 69, "trial": 53, "rt": 1040, "response": "Beta"}, "24": {"stimulus": 6, "trial": 24, "rt": 726, "response": "Beta"}, "25": {"stimulus": 24, "trial": 25, "rt": 527, "response": "Beta"}, "26": {"stimulus": 18, "trial": 26, "rt": 912, "response": "Alpha"}, "27": {"stimulus": 21, "trial": 27, "rt": 1248, "response": "Alpha"}, "20": {"stimulus": 28, "trial": 20, "rt": 879, "response": "Alpha"}, "21": {"stimulus": 54, "trial": 21, "rt": 905, "response": "Alpha"}, "22": {"stimulus": 14, "trial": 22, "rt": 901, "response": "Beta"}, "23": {"stimulus": 20, "trial": 23, "rt": 1106, "response": "Alpha"}, "46": {"stimulus": 35, "trial": 46, "rt": 654, "response": "Beta"}, "47": {"stimulus": 78, "trial": 47, "rt": 1102, "response": "Alpha"}, "44": {"stimulus": 63, "trial": 44, "rt": 868, "response": "Alpha"}, "45": {"stimulus": 44, "trial": 45, "rt": 1006, "response": "Beta"}, "28": {"stimulus": 61, "trial": 28, "rt": 783, "response": "Beta"}, "29": {"stimulus": 74, "trial": 29, "rt": 751, "response": "Alpha"}, "40": {"stimulus": 38, "trial": 40, "rt": 1522, "response": "Alpha"}, "41": {"stimulus": 16, "trial": 41, "rt": 1014, "response": "Beta"}, "1": {"stimulus": 3, "trial": 1, "rt": 1137, "response": "Beta"}, "0": {"stimulus": 46, "trial": 0, "rt": 6325, "response": "Alpha"}, "3": {"stimulus": 17, "trial": 3, "rt": 975, "response": "Beta"}, "2": {"stimulus": 47, "trial": 2, "rt": 985, "response": "Alpha"}, "5": {"stimulus": 39, "trial": 5, "rt": 744, "response": "Alpha"}, "4": {"stimulus": 51, "trial": 4, "rt": 1125, "response": "Beta"}, "7": {"stimulus": 52, "trial": 7, "rt": 1299, "response": "Beta"}, "6": {"stimulus": 55, "trial": 6, "rt": 781, "response": "Beta"}, "9": {"stimulus": 23, "trial": 9, "rt": 2182, "response": "Alpha"}, "8": {"stimulus": 49, "trial": 8, "rt": 740, "response": "Alpha"}, "78": {"stimulus": 57, "trial": 78, "rt": 535, "response": "Alpha"}, "51": {"stimulus": 41, "trial": 51, "rt": 787, "response": "Beta"}, "39": {"stimulus": 71, "trial": 39, "rt": 9806, "response": "Beta"}, "65": {"stimulus": 7, "trial": 65, "rt": 516, "response": "Beta"}, "76": {"stimulus": 56, "trial": 76, "rt": 655, "response": "Alpha"}, "75": {"stimulus": 34, "trial": 75, "rt": 1057, "response": "Beta"}, "38": {"stimulus": 65, "trial": 38, "rt": 1455, "response": "Alpha"}, "73": {"stimulus": 30, "trial": 73, "rt": 718, "response": "Alpha"}, "72": {"stimulus": 60, "trial": 72, "rt": 2277, "response": "Alpha"}, "71": {"stimulus": 26, "trial": 71, "rt": 682, "response": "Beta"}, "70": {"stimulus": 36, "trial": 70, "rt": 461, "response": "Alpha"}, "59": {"stimulus": 77, "trial": 59, "rt": 832, "response": "Beta"}, "79": {"stimulus": 66, "trial": 79, "rt": 1113, "response": "Alpha"}, "58": {"stimulus": 15, "trial": 58, "rt": 820, "response": "Beta"}, "11": {"stimulus": 19, "trial": 11, "rt": 783, "response": "Alpha"}, "10": {"stimulus": 31, "trial": 10, "rt": 1014, "response": "Beta"}, "13": {"stimulus": 37, "trial": 13, "rt": 742, "response": "Alpha"}, "12": {"stimulus": 5, "trial": 12, "rt": 1214, "response": "Beta"}, "15": {"stimulus": 72, "trial": 15, "rt": 1120, "response": "Alpha"}, "14": {"stimulus": 40, "trial": 14, "rt": 646, "response": "Alpha"}, "17": {"stimulus": 79, "trial": 17, "rt": 854, "response": "Beta"}, "16": {"stimulus": 9, "trial": 16, "rt": 606, "response": "Alpha"}, "19": {"stimulus": 80, "trial": 19, "rt": 894, "response": "Beta"}, "18": {"stimulus": 2, "trial": 18, "rt": 1384, "response": "Alpha"}, "31": {"stimulus": 58, "trial": 31, "rt": 911, "response": "Beta"}, "30": {"stimulus": 11, "trial": 30, "rt": 676, "response": "Alpha"}, "37": {"stimulus": 0, "trial": 37, "rt": 1144, "response": "Alpha"}, "36": {"stimulus": 4, "trial": 36, "rt": 789, "response": "Alpha"}, "35": {"stimulus": 8, "trial": 35, "rt": 638, "response": "Beta"}, "34": {"stimulus": 25, "trial": 34, "rt": 957, "response": "Beta"}, "33": {"stimulus": 64, "trial": 33, "rt": 1093, "response": "Alpha"}, "55": {"stimulus": 10, "trial": 55, "rt": 1068, "response": "Beta"}, "74": {"stimulus": 68, "trial": 74, "rt": 415, "response": "Alpha"}, "32": {"stimulus": 43, "trial": 32, "rt": 1241, "response": "Beta"}, "57": {"stimulus": 50, "trial": 57, "rt": 1265, "response": "Beta"}, "50": {"stimulus": 22, "trial": 50, "rt": 1194, "response": "Alpha"}}, "experiment": {"Paradigm": "TACL", "Stimuli": "Size-Color Squares", "Experiment": "Generating-Multiple-Categories"}, "submit": {"timeTotal": 801438, "age": "73", "comments": "good", "sex": "male"}}