{"info": {"finish": 1535365778406, "participant": 98, "exposed": true, "lab": false, "start": 1535365415506, "counterbalance": 4, "gentype": 2, "condition": "Middle", "browser": {"platform": "Win32", "userAgent": "Mozilla/5.0 (Windows NT 6.1; Win64; x64) AppleWebKit/537.36 (KHTML, like Gecko) Chrome/68.0.3440.106 Safari/537.36"}}, "observation": {"11": {"stimulus": 48, "trial": 11, "rt": 2261}, "10": {"stimulus": 32, "trial": 10, "rt": 1496}, "1": {"stimulus": 48, "trial": 1, "rt": 2207}, "0": {"stimulus": 50, "trial": 0, "rt": 3345}, "3": {"stimulus": 32, "trial": 3, "rt": 1493}, "2": {"stimulus": 30, "trial": 2, "rt": 2005}, "5": {"stimulus": 48, "trial": 5, "rt": 1816}, "4": {"stimulus": 32, "trial": 4, "rt": 1534}, "7": {"stimulus": 50, "trial": 7, "rt": 1446}, "6": {"stimulus": 30, "trial": 6, "rt": 1551}, "9": {"stimulus": 30, "trial": 9, "rt": 1455}, "8": {"stimulus": 50, "trial": 8, "rt": 1430}}, "generation": {"1": {"category": "Beta", "trial": 1, "stimulus": 72, "rt": 5238}, "0": {"category": "Beta", "trial": 0, "stimulus": 36, "rt": 18548}, "3": {"category": "Beta", "trial": 3, "stimulus": 27, "rt": 4958}, "2": {"category": "Beta", "trial": 2, "stimulus": 0, "rt": 4887}, "5": {"category": "Gamma", "trial": 5, "stimulus": 2, "rt": 5326}, "4": {"category": "Gamma", "trial": 4, "stimulus": 0, "rt": 13701}, "7": {"category": "Gamma", "trial": 7, "stimulus": 8, "rt": 4851}, "6": {"category": "Gamma", "trial": 6, "stimulus": 5, "rt": 2526}}, "generalization": {"56": {"stimulus": 73, "trial": 56, "rt": 831, "response": "Beta"}, "77": {"stimulus": 12, "trial": 77, "rt": 2607, "response": "Gamma"}, "54": {"stimulus": 46, "trial": 54, "rt": 966, "response": "Beta"}, "42": {"stimulus": 3, "trial": 42, "rt": 1303, "response": "Gamma"}, "48": {"stimulus": 1, "trial": 48, "rt": 1264, "response": "Beta"}, "43": {"stimulus": 38, "trial": 43, "rt": 1702, "response": "Alpha"}, "60": {"stimulus": 70, "trial": 60, "rt": 917, "response": "Alpha"}, "61": {"stimulus": 52, "trial": 61, "rt": 894, "response": "Alpha"}, "62": {"stimulus": 28, "trial": 62, "rt": 1991, "response": "Gamma"}, "63": {"stimulus": 65, "trial": 63, "rt": 1309, "response": "Alpha"}, "64": {"stimulus": 33, "trial": 64, "rt": 3480, "response": "Gamma"}, "49": {"stimulus": 11, "trial": 49, "rt": 1518, "response": "Alpha"}, "66": {"stimulus": 32, "trial": 66, "rt": 2403, "response": "Alpha"}, "67": {"stimulus": 15, "trial": 67, "rt": 5327, "response": "Gamma"}, "68": {"stimulus": 4, "trial": 68, "rt": 1432, "response": "Gamma"}, "69": {"stimulus": 39, "trial": 69, "rt": 1270, "response": "Alpha"}, "80": {"stimulus": 42, "trial": 80, "rt": 1048, "response": "Alpha"}, "52": {"stimulus": 16, "trial": 52, "rt": 2719, "response": "Alpha"}, "53": {"stimulus": 59, "trial": 53, "rt": 895, "response": "Alpha"}, "24": {"stimulus": 14, "trial": 24, "rt": 1190, "response": "Alpha"}, "25": {"stimulus": 27, "trial": 25, "rt": 997, "response": "Beta"}, "26": {"stimulus": 5, "trial": 26, "rt": 1166, "response": "Gamma"}, "27": {"stimulus": 9, "trial": 27, "rt": 920, "response": "Beta"}, "20": {"stimulus": 37, "trial": 20, "rt": 925, "response": "Beta"}, "21": {"stimulus": 48, "trial": 21, "rt": 2336, "response": "Alpha"}, "22": {"stimulus": 23, "trial": 22, "rt": 1103, "response": "Alpha"}, "23": {"stimulus": 78, "trial": 23, "rt": 1142, "response": "Alpha"}, "46": {"stimulus": 71, "trial": 46, "rt": 1398, "response": "Alpha"}, "47": {"stimulus": 19, "trial": 47, "rt": 974, "response": "Beta"}, "44": {"stimulus": 20, "trial": 44, "rt": 1567, "response": "Beta"}, "45": {"stimulus": 26, "trial": 45, "rt": 1045, "response": "Alpha"}, "28": {"stimulus": 43, "trial": 28, "rt": 900, "response": "Alpha"}, "29": {"stimulus": 21, "trial": 29, "rt": 1414, "response": "Alpha"}, "40": {"stimulus": 50, "trial": 40, "rt": 990, "response": "Alpha"}, "41": {"stimulus": 76, "trial": 41, "rt": 623, "response": "Alpha"}, "1": {"stimulus": 53, "trial": 1, "rt": 1534, "response": "Alpha"}, "0": {"stimulus": 6, "trial": 0, "rt": 8269, "response": "Gamma"}, "3": {"stimulus": 34, "trial": 3, "rt": 1862, "response": "Alpha"}, "2": {"stimulus": 29, "trial": 2, "rt": 2383, "response": "Beta"}, "5": {"stimulus": 60, "trial": 5, "rt": 2039, "response": "Alpha"}, "4": {"stimulus": 2, "trial": 4, "rt": 3119, "response": "Gamma"}, "7": {"stimulus": 22, "trial": 7, "rt": 966, "response": "Alpha"}, "6": {"stimulus": 67, "trial": 6, "rt": 869, "response": "Alpha"}, "9": {"stimulus": 41, "trial": 9, "rt": 823, "response": "Alpha"}, "8": {"stimulus": 68, "trial": 8, "rt": 952, "response": "Alpha"}, "78": {"stimulus": 58, "trial": 78, "rt": 1087, "response": "Alpha"}, "51": {"stimulus": 75, "trial": 51, "rt": 1200, "response": "Alpha"}, "39": {"stimulus": 72, "trial": 39, "rt": 1022, "response": "Beta"}, "65": {"stimulus": 24, "trial": 65, "rt": 1468, "response": "Gamma"}, "76": {"stimulus": 66, "trial": 76, "rt": 1103, "response": "Alpha"}, "75": {"stimulus": 45, "trial": 75, "rt": 1447, "response": "Beta"}, "38": {"stimulus": 25, "trial": 38, "rt": 1326, "response": "Alpha"}, "73": {"stimulus": 63, "trial": 73, "rt": 960, "response": "Beta"}, "72": {"stimulus": 51, "trial": 72, "rt": 1213, "response": "Alpha"}, "71": {"stimulus": 56, "trial": 71, "rt": 1871, "response": "Alpha"}, "70": {"stimulus": 17, "trial": 70, "rt": 1495, "response": "Gamma"}, "59": {"stimulus": 36, "trial": 59, "rt": 880, "response": "Beta"}, "79": {"stimulus": 49, "trial": 79, "rt": 1262, "response": "Alpha"}, "58": {"stimulus": 74, "trial": 58, "rt": 1078, "response": "Alpha"}, "11": {"stimulus": 55, "trial": 11, "rt": 973, "response": "Beta"}, "10": {"stimulus": 18, "trial": 10, "rt": 1409, "response": "Beta"}, "13": {"stimulus": 10, "trial": 13, "rt": 606, "response": "Beta"}, "12": {"stimulus": 64, "trial": 12, "rt": 615, "response": "Beta"}, "15": {"stimulus": 79, "trial": 15, "rt": 775, "response": "Alpha"}, "14": {"stimulus": 40, "trial": 14, "rt": 966, "response": "Alpha"}, "17": {"stimulus": 7, "trial": 17, "rt": 1255, "response": "Gamma"}, "16": {"stimulus": 77, "trial": 16, "rt": 551, "response": "Alpha"}, "19": {"stimulus": 54, "trial": 19, "rt": 1111, "response": "Beta"}, "18": {"stimulus": 61, "trial": 18, "rt": 1358, "response": "Alpha"}, "31": {"stimulus": 44, "trial": 31, "rt": 910, "response": "Alpha"}, "30": {"stimulus": 80, "trial": 30, "rt": 1181, "response": "Alpha"}, "37": {"stimulus": 0, "trial": 37, "rt": 663, "response": "Beta"}, "36": {"stimulus": 13, "trial": 36, "rt": 1205, "response": "Alpha"}, "35": {"stimulus": 57, "trial": 35, "rt": 751, "response": "Beta"}, "34": {"stimulus": 47, "trial": 34, "rt": 2390, "response": "Beta"}, "33": {"stimulus": 62, "trial": 33, "rt": 824, "response": "Alpha"}, "55": {"stimulus": 35, "trial": 55, "rt": 887, "response": "Alpha"}, "74": {"stimulus": 8, "trial": 74, "rt": 1294, "response": "Gamma"}, "32": {"stimulus": 31, "trial": 32, "rt": 1015, "response": "Alpha"}, "57": {"stimulus": 30, "trial": 57, "rt": 1230, "response": "Alpha"}, "50": {"stimulus": 69, "trial": 50, "rt": 1286, "response": "Alpha"}}, "experiment": {"Paradigm": "TACL", "Stimuli": "Size-Color Squares", "Experiment": "Generating-Multiple-Categories"}, "submit": {"timeTotal": 363028, "age": "41", "comments": "", "sex": "male"}}