{"info": {"finish": 1535367543821, "participant": 99, "exposed": true, "lab": false, "start": 1535367213769, "counterbalance": 2, "gentype": 2, "condition": "Bottom", "browser": {"platform": "Win32", "userAgent": "Mozilla/5.0 (Windows NT 10.0; Win64; x64) AppleWebKit/537.36 (KHTML, like Gecko) Chrome/68.0.3440.106 Safari/537.36"}}, "observation": {"11": {"stimulus": 32, "trial": 11, "rt": 1183}, "10": {"stimulus": 12, "trial": 10, "rt": 1149}, "1": {"stimulus": 12, "trial": 1, "rt": 1509}, "0": {"stimulus": 14, "trial": 0, "rt": 4818}, "3": {"stimulus": 30, "trial": 3, "rt": 1413}, "2": {"stimulus": 32, "trial": 2, "rt": 1486}, "5": {"stimulus": 12, "trial": 5, "rt": 1196}, "4": {"stimulus": 32, "trial": 4, "rt": 1153}, "7": {"stimulus": 30, "trial": 7, "rt": 1114}, "6": {"stimulus": 14, "trial": 6, "rt": 1353}, "9": {"stimulus": 14, "trial": 9, "rt": 1121}, "8": {"stimulus": 30, "trial": 8, "rt": 1270}}, "generation": {"1": {"category": "Beta", "trial": 1, "stimulus": 71, "rt": 8197}, "0": {"category": "Beta", "trial": 0, "stimulus": 80, "rt": 21288}, "3": {"category": "Beta", "trial": 3, "stimulus": 72, "rt": 4663}, "2": {"category": "Beta", "trial": 2, "stimulus": 63, "rt": 7280}, "5": {"category": "Gamma", "trial": 5, "stimulus": 56, "rt": 3004}, "4": {"category": "Gamma", "trial": 4, "stimulus": 61, "rt": 8547}, "7": {"category": "Gamma", "trial": 7, "stimulus": 76, "rt": 3136}, "6": {"category": "Gamma", "trial": 6, "stimulus": 53, "rt": 9447}}, "generalization": {"56": {"stimulus": 67, "trial": 56, "rt": 1071, "response": "Beta"}, "77": {"stimulus": 47, "trial": 77, "rt": 956, "response": "Beta"}, "54": {"stimulus": 39, "trial": 54, "rt": 778, "response": "Gamma"}, "42": {"stimulus": 62, "trial": 42, "rt": 1301, "response": "Gamma"}, "48": {"stimulus": 29, "trial": 48, "rt": 1474, "response": "Gamma"}, "43": {"stimulus": 11, "trial": 43, "rt": 2406, "response": "Beta"}, "60": {"stimulus": 36, "trial": 60, "rt": 1144, "response": "Gamma"}, "61": {"stimulus": 75, "trial": 61, "rt": 1289, "response": "Beta"}, "62": {"stimulus": 22, "trial": 62, "rt": 1591, "response": "Gamma"}, "63": {"stimulus": 40, "trial": 63, "rt": 870, "response": "Beta"}, "64": {"stimulus": 51, "trial": 64, "rt": 998, "response": "Beta"}, "49": {"stimulus": 57, "trial": 49, "rt": 1481, "response": "Beta"}, "66": {"stimulus": 4, "trial": 66, "rt": 1285, "response": "Alpha"}, "67": {"stimulus": 74, "trial": 67, "rt": 1322, "response": "Beta"}, "68": {"stimulus": 35, "trial": 68, "rt": 540, "response": "Gamma"}, "69": {"stimulus": 17, "trial": 69, "rt": 1490, "response": "Alpha"}, "80": {"stimulus": 5, "trial": 80, "rt": 1387, "response": "Alpha"}, "52": {"stimulus": 33, "trial": 52, "rt": 10765, "response": "Beta"}, "53": {"stimulus": 52, "trial": 53, "rt": 1261, "response": "Gamma"}, "24": {"stimulus": 64, "trial": 24, "rt": 867, "response": "Gamma"}, "25": {"stimulus": 42, "trial": 25, "rt": 845, "response": "Beta"}, "26": {"stimulus": 3, "trial": 26, "rt": 1272, "response": "Alpha"}, "27": {"stimulus": 10, "trial": 27, "rt": 518, "response": "Alpha"}, "20": {"stimulus": 44, "trial": 20, "rt": 1301, "response": "Gamma"}, "21": {"stimulus": 73, "trial": 21, "rt": 2384, "response": "Beta"}, "22": {"stimulus": 71, "trial": 22, "rt": 924, "response": "Beta"}, "23": {"stimulus": 78, "trial": 23, "rt": 1267, "response": "Beta"}, "46": {"stimulus": 9, "trial": 46, "rt": 849, "response": "Alpha"}, "47": {"stimulus": 31, "trial": 47, "rt": 1538, "response": "Beta"}, "44": {"stimulus": 37, "trial": 44, "rt": 852, "response": "Beta"}, "45": {"stimulus": 16, "trial": 45, "rt": 947, "response": "Alpha"}, "28": {"stimulus": 13, "trial": 28, "rt": 482, "response": "Alpha"}, "29": {"stimulus": 59, "trial": 29, "rt": 1481, "response": "Gamma"}, "40": {"stimulus": 45, "trial": 40, "rt": 583, "response": "Beta"}, "41": {"stimulus": 15, "trial": 41, "rt": 1402, "response": "Alpha"}, "1": {"stimulus": 54, "trial": 1, "rt": 1504, "response": "Beta"}, "0": {"stimulus": 65, "trial": 0, "rt": 2451, "response": "Beta"}, "3": {"stimulus": 49, "trial": 3, "rt": 886, "response": "Gamma"}, "2": {"stimulus": 23, "trial": 2, "rt": 1086, "response": "Alpha"}, "5": {"stimulus": 69, "trial": 5, "rt": 796, "response": "Beta"}, "4": {"stimulus": 6, "trial": 4, "rt": 1142, "response": "Alpha"}, "7": {"stimulus": 77, "trial": 7, "rt": 533, "response": "Beta"}, "6": {"stimulus": 43, "trial": 6, "rt": 1128, "response": "Gamma"}, "9": {"stimulus": 76, "trial": 9, "rt": 910, "response": "Beta"}, "8": {"stimulus": 56, "trial": 8, "rt": 1520, "response": "Beta"}, "78": {"stimulus": 28, "trial": 78, "rt": 987, "response": "Beta"}, "51": {"stimulus": 55, "trial": 51, "rt": 2197, "response": "Beta"}, "39": {"stimulus": 18, "trial": 39, "rt": 1325, "response": "Beta"}, "65": {"stimulus": 60, "trial": 65, "rt": 1012, "response": "Beta"}, "76": {"stimulus": 79, "trial": 76, "rt": 2728, "response": "Beta"}, "75": {"stimulus": 19, "trial": 75, "rt": 2553, "response": "Beta"}, "38": {"stimulus": 30, "trial": 38, "rt": 509, "response": "Beta"}, "73": {"stimulus": 0, "trial": 73, "rt": 1416, "response": "Alpha"}, "72": {"stimulus": 2, "trial": 72, "rt": 1212, "response": "Alpha"}, "71": {"stimulus": 1, "trial": 71, "rt": 1371, "response": "Alpha"}, "70": {"stimulus": 24, "trial": 70, "rt": 1411, "response": "Beta"}, "59": {"stimulus": 32, "trial": 59, "rt": 1735, "response": "Gamma"}, "79": {"stimulus": 58, "trial": 79, "rt": 937, "response": "Beta"}, "58": {"stimulus": 70, "trial": 58, "rt": 1029, "response": "Beta"}, "11": {"stimulus": 7, "trial": 11, "rt": 1078, "response": "Alpha"}, "10": {"stimulus": 48, "trial": 10, "rt": 559, "response": "Gamma"}, "13": {"stimulus": 26, "trial": 13, "rt": 2896, "response": "Gamma"}, "12": {"stimulus": 61, "trial": 12, "rt": 1500, "response": "Beta"}, "15": {"stimulus": 8, "trial": 15, "rt": 938, "response": "Alpha"}, "14": {"stimulus": 25, "trial": 14, "rt": 1826, "response": "Beta"}, "17": {"stimulus": 46, "trial": 17, "rt": 1472, "response": "Gamma"}, "16": {"stimulus": 53, "trial": 16, "rt": 1006, "response": "Beta"}, "19": {"stimulus": 21, "trial": 19, "rt": 1627, "response": "Beta"}, "18": {"stimulus": 41, "trial": 18, "rt": 2197, "response": "Beta"}, "31": {"stimulus": 27, "trial": 31, "rt": 677, "response": "Beta"}, "30": {"stimulus": 50, "trial": 30, "rt": 1144, "response": "Gamma"}, "37": {"stimulus": 38, "trial": 37, "rt": 859, "response": "Gamma"}, "36": {"stimulus": 80, "trial": 36, "rt": 532, "response": "Beta"}, "35": {"stimulus": 66, "trial": 35, "rt": 1290, "response": "Beta"}, "34": {"stimulus": 20, "trial": 34, "rt": 447, "response": "Alpha"}, "33": {"stimulus": 14, "trial": 33, "rt": 570, "response": "Alpha"}, "55": {"stimulus": 72, "trial": 55, "rt": 1827, "response": "Beta"}, "74": {"stimulus": 12, "trial": 74, "rt": 1862, "response": "Alpha"}, "32": {"stimulus": 34, "trial": 32, "rt": 1093, "response": "Beta"}, "57": {"stimulus": 68, "trial": 57, "rt": 632, "response": "Beta"}, "50": {"stimulus": 63, "trial": 50, "rt": 3107, "response": "Beta"}}, "experiment": {"Paradigm": "TACL", "Stimuli": "Size-Color Squares", "Experiment": "Generating-Multiple-Categories"}, "submit": {"timeTotal": 330837, "age": "29", "comments": "", "sex": "male"}}