{"info": {"finish": 1548041714643, "participant": 1, "exposed": true, "lab": true, "start": 1548041488351, "counterbalance": 6, "gentype": 2, "condition": "Row", "browser": {"platform": "MacIntel", "userAgent": "Mozilla/5.0 (Macintosh; Intel Mac OS X 10.14; rv:64.0) Gecko/20100101 Firefox/64.0"}}, "observation": {"11": {"stimulus": 612, "trial": 11, "rt": 1413}, "10": {"stimulus": 493, "trial": 10, "rt": 1368}, "1": {"stimulus": 493, "trial": 1, "rt": 2054}, "0": {"stimulus": 582, "trial": 0, "rt": 2748}, "3": {"stimulus": 612, "trial": 3, "rt": 1610}, "2": {"stimulus": 421, "trial": 2, "rt": 1480}, "5": {"stimulus": 612, "trial": 5, "rt": 1382}, "4": {"stimulus": 582, "trial": 4, "rt": 1413}, "7": {"stimulus": 421, "trial": 7, "rt": 2044}, "6": {"stimulus": 493, "trial": 6, "rt": 15693}, "9": {"stimulus": 582, "trial": 9, "rt": 1411}, "8": {"stimulus": 421, "trial": 8, "rt": 1887}}, "generation": {"1": {"category": "Beta", "trial": 1, "stimulus": 527, "rt": 3098}, "0": {"category": "Beta", "trial": 0, "stimulus": 2029, "rt": 6116}, "3": {"category": "Beta", "trial": 3, "stimulus": 2232, "rt": 1237}, "2": {"category": "Beta", "trial": 2, "stimulus": 955, "rt": 2319}, "5": {"category": "Gamma", "trial": 5, "stimulus": 1055, "rt": 1821}, "4": {"category": "Gamma", "trial": 4, "stimulus": 2230, "rt": 1810}, "7": {"category": "Gamma", "trial": 7, "stimulus": 2240, "rt": 1098}, "6": {"category": "Gamma", "trial": 6, "stimulus": 2224, "rt": 1053}}, "generalization": {"56": {"stimulus": 937, "trial": 56, "rt": 101, "response": "Alpha"}, "77": {"stimulus": 218, "trial": 77, "rt": 491, "response": "Gamma"}, "54": {"stimulus": 374, "trial": 54, "rt": 400, "response": "Alpha"}, "42": {"stimulus": 2374, "trial": 42, "rt": 282, "response": "Alpha"}, "48": {"stimulus": 30, "trial": 48, "rt": 405, "response": "Alpha"}, "43": {"stimulus": 562, "trial": 43, "rt": 280, "response": "Alpha"}, "60": {"stimulus": 687, "trial": 60, "rt": 246, "response": "Beta"}, "61": {"stimulus": 280, "trial": 61, "rt": 325, "response": "Beta"}, "62": {"stimulus": 624, "trial": 62, "rt": 321, "response": "Beta"}, "63": {"stimulus": 249, "trial": 63, "rt": 264, "response": "Beta"}, "64": {"stimulus": 343, "trial": 64, "rt": 274, "response": "Beta"}, "49": {"stimulus": 968, "trial": 49, "rt": 365, "response": "Alpha"}, "66": {"stimulus": 1124, "trial": 66, "rt": 210, "response": "Beta"}, "67": {"stimulus": 530, "trial": 67, "rt": 218, "response": "Beta"}, "68": {"stimulus": 2249, "trial": 68, "rt": 219, "response": "Beta"}, "69": {"stimulus": 187, "trial": 69, "rt": 185, "response": "Beta"}, "80": {"stimulus": 2405, "trial": 80, "rt": 174, "response": "Gamma"}, "52": {"stimulus": 655, "trial": 52, "rt": 407, "response": "Alpha"}, "53": {"stimulus": 1249, "trial": 53, "rt": 404, "response": "Alpha"}, "24": {"stimulus": 1905, "trial": 24, "rt": 145, "response": "Alpha"}, "25": {"stimulus": 1093, "trial": 25, "rt": 639, "response": "Alpha"}, "26": {"stimulus": 780, "trial": 26, "rt": 460, "response": "Alpha"}, "27": {"stimulus": 874, "trial": 27, "rt": 290, "response": "Alpha"}, "20": {"stimulus": 0, "trial": 20, "rt": 99, "response": "Alpha"}, "21": {"stimulus": 2155, "trial": 21, "rt": 231, "response": "Alpha"}, "22": {"stimulus": 1218, "trial": 22, "rt": 368, "response": "Alpha"}, "23": {"stimulus": 593, "trial": 23, "rt": 115, "response": "Alpha"}, "46": {"stimulus": 2280, "trial": 46, "rt": 407, "response": "Alpha"}, "47": {"stimulus": 1155, "trial": 47, "rt": 538, "response": "Alpha"}, "44": {"stimulus": 62, "trial": 44, "rt": 206, "response": "Alpha"}, "45": {"stimulus": 2343, "trial": 45, "rt": 569, "response": "Alpha"}, "28": {"stimulus": 1968, "trial": 28, "rt": 348, "response": "Alpha"}, "29": {"stimulus": 999, "trial": 29, "rt": 249, "response": "Alpha"}, "40": {"stimulus": 1999, "trial": 40, "rt": 237, "response": "Alpha"}, "41": {"stimulus": 843, "trial": 41, "rt": 302, "response": "Alpha"}, "1": {"stimulus": 312, "trial": 1, "rt": 37892, "response": "Beta"}, "0": {"stimulus": 93, "trial": 0, "rt": 686, "response": "Gamma"}, "3": {"stimulus": 1655, "trial": 3, "rt": 289, "response": "Beta"}, "2": {"stimulus": 2468, "trial": 2, "rt": 273, "response": "Beta"}, "5": {"stimulus": 905, "trial": 5, "rt": 190, "response": "Beta"}, "4": {"stimulus": 1874, "trial": 4, "rt": 235, "response": "Beta"}, "7": {"stimulus": 2187, "trial": 7, "rt": 133, "response": "Beta"}, "6": {"stimulus": 1280, "trial": 6, "rt": 157, "response": "Beta"}, "9": {"stimulus": 1030, "trial": 9, "rt": 273, "response": "Alpha"}, "8": {"stimulus": 1405, "trial": 8, "rt": 530, "response": "Beta"}, "78": {"stimulus": 1593, "trial": 78, "rt": 618, "response": "Gamma"}, "51": {"stimulus": 1062, "trial": 51, "rt": 437, "response": "Alpha"}, "39": {"stimulus": 468, "trial": 39, "rt": 176, "response": "Alpha"}, "65": {"stimulus": 2218, "trial": 65, "rt": 174, "response": "Beta"}, "76": {"stimulus": 155, "trial": 76, "rt": 277, "response": "Gamma"}, "75": {"stimulus": 2062, "trial": 75, "rt": 311, "response": "Gamma"}, "38": {"stimulus": 1468, "trial": 38, "rt": 244, "response": "Alpha"}, "73": {"stimulus": 1530, "trial": 73, "rt": 291, "response": "Gamma"}, "72": {"stimulus": 1499, "trial": 72, "rt": 459, "response": "Alpha"}, "71": {"stimulus": 1749, "trial": 71, "rt": 304, "response": "Alpha"}, "70": {"stimulus": 1718, "trial": 70, "rt": 213, "response": "Alpha"}, "59": {"stimulus": 812, "trial": 59, "rt": 327, "response": "Beta"}, "79": {"stimulus": 1437, "trial": 79, "rt": 278, "response": "Gamma"}, "58": {"stimulus": 1562, "trial": 58, "rt": 483, "response": "Alpha"}, "11": {"stimulus": 1624, "trial": 11, "rt": 452, "response": "Alpha"}, "10": {"stimulus": 1780, "trial": 10, "rt": 183, "response": "Alpha"}, "13": {"stimulus": 1312, "trial": 13, "rt": 241, "response": "Alpha"}, "12": {"stimulus": 1937, "trial": 12, "rt": 273, "response": "Alpha"}, "15": {"stimulus": 405, "trial": 15, "rt": 169, "response": "Alpha"}, "14": {"stimulus": 718, "trial": 14, "rt": 422, "response": "Alpha"}, "17": {"stimulus": 1343, "trial": 17, "rt": 228, "response": "Alpha"}, "16": {"stimulus": 749, "trial": 16, "rt": 202, "response": "Alpha"}, "19": {"stimulus": 2312, "trial": 19, "rt": 194, "response": "Alpha"}, "18": {"stimulus": 2124, "trial": 18, "rt": 231, "response": "Alpha"}, "31": {"stimulus": 1187, "trial": 31, "rt": 98, "response": "Alpha"}, "30": {"stimulus": 1687, "trial": 30, "rt": 247, "response": "Alpha"}, "37": {"stimulus": 1843, "trial": 37, "rt": 279, "response": "Alpha"}, "36": {"stimulus": 437, "trial": 36, "rt": 206, "response": "Alpha"}, "35": {"stimulus": 2030, "trial": 35, "rt": 229, "response": "Alpha"}, "34": {"stimulus": 124, "trial": 34, "rt": 113, "response": "Alpha"}, "33": {"stimulus": 1374, "trial": 33, "rt": 258, "response": "Alpha"}, "55": {"stimulus": 1812, "trial": 55, "rt": 296, "response": "Alpha"}, "74": {"stimulus": 2437, "trial": 74, "rt": 254, "response": "Gamma"}, "32": {"stimulus": 2499, "trial": 32, "rt": 175, "response": "Alpha"}, "57": {"stimulus": 499, "trial": 57, "rt": 415, "response": "Alpha"}, "50": {"stimulus": 2093, "trial": 50, "rt": 498, "response": "Alpha"}}, "experiment": {"Paradigm": "TACL", "Stimuli": "Size-Color Squares", "Experiment": "Generating-Multiple-Categories"}, "submit": {"timeTotal": 226365, "age": "43", "comments": "dqwed", "sex": "3"}}