{"info": {"finish": 1548043388632, "participant": 11, "exposed": true, "lab": false, "start": 1548042866755, "counterbalance": 7, "gentype": 0, "condition": "Cluster", "browser": {"platform": "Win32", "userAgent": "Mozilla/5.0 (Windows NT 6.1; Win64; x64) AppleWebKit/537.36 (KHTML, like Gecko) Chrome/71.0.3578.98 Safari/537.36"}}, "observation": {"11": {"stimulus": 392, "trial": 11, "rt": 2504}, "10": {"stimulus": 583, "trial": 10, "rt": 2447}, "1": {"stimulus": 392, "trial": 1, "rt": 4896}, "0": {"stimulus": 1083, "trial": 0, "rt": 6625}, "3": {"stimulus": 583, "trial": 3, "rt": 4960}, "2": {"stimulus": 1093, "trial": 2, "rt": 6061}, "5": {"stimulus": 1083, "trial": 5, "rt": 3269}, "4": {"stimulus": 1093, "trial": 4, "rt": 4632}, "7": {"stimulus": 392, "trial": 7, "rt": 4608}, "6": {"stimulus": 583, "trial": 6, "rt": 3926}, "9": {"stimulus": 1083, "trial": 9, "rt": 3158}, "8": {"stimulus": 1093, "trial": 8, "rt": 4350}}, "generation": {"1": {"category": "Not-Alpha", "trial": 1, "stimulus": 2458, "rt": 11171}, "0": {"category": "Not-Alpha", "trial": 0, "stimulus": 2055, "rt": 16211}, "3": {"category": "Not-Alpha", "trial": 3, "stimulus": 802, "rt": 7173}, "2": {"category": "Not-Alpha", "trial": 2, "stimulus": 811, "rt": 9961}, "5": {"category": "Not-Alpha", "trial": 5, "stimulus": 1419, "rt": 5111}, "4": {"category": "Not-Alpha", "trial": 4, "stimulus": 1768, "rt": 5688}, "7": {"category": "Not-Alpha", "trial": 7, "stimulus": 1103, "rt": 6099}, "6": {"category": "Not-Alpha", "trial": 6, "stimulus": 1769, "rt": 6870}}, "generalization": {"56": {"stimulus": 1624, "trial": 56, "rt": 1198, "response": "Alpha"}, "77": {"stimulus": 2437, "trial": 77, "rt": 1870, "response": "Alpha"}, "54": {"stimulus": 530, "trial": 54, "rt": 1382, "response": "Alpha"}, "42": {"stimulus": 2374, "trial": 42, "rt": 1958, "response": "Beta"}, "48": {"stimulus": 1124, "trial": 48, "rt": 3944, "response": "Beta"}, "43": {"stimulus": 1249, "trial": 43, "rt": 2146, "response": "Beta"}, "60": {"stimulus": 312, "trial": 60, "rt": 1950, "response": "Beta"}, "61": {"stimulus": 1593, "trial": 61, "rt": 10335, "response": "Beta"}, "62": {"stimulus": 2218, "trial": 62, "rt": 3390, "response": "Beta"}, "63": {"stimulus": 1780, "trial": 63, "rt": 1467, "response": "Alpha"}, "64": {"stimulus": 1687, "trial": 64, "rt": 22207, "response": "Alpha"}, "49": {"stimulus": 1218, "trial": 49, "rt": 1581, "response": "Beta"}, "66": {"stimulus": 155, "trial": 66, "rt": 5444, "response": "Beta"}, "67": {"stimulus": 1405, "trial": 67, "rt": 2322, "response": "Beta"}, "68": {"stimulus": 1968, "trial": 68, "rt": 2239, "response": "Beta"}, "69": {"stimulus": 2030, "trial": 69, "rt": 2098, "response": "Alpha"}, "80": {"stimulus": 2093, "trial": 80, "rt": 1478, "response": "Beta"}, "52": {"stimulus": 499, "trial": 52, "rt": 1447, "response": "Alpha"}, "53": {"stimulus": 1343, "trial": 53, "rt": 1406, "response": "Beta"}, "24": {"stimulus": 249, "trial": 24, "rt": 1060, "response": "Alpha"}, "25": {"stimulus": 999, "trial": 25, "rt": 1287, "response": "Beta"}, "26": {"stimulus": 843, "trial": 26, "rt": 1203, "response": "Beta"}, "27": {"stimulus": 2468, "trial": 27, "rt": 1617, "response": "Beta"}, "20": {"stimulus": 2343, "trial": 20, "rt": 1184, "response": "Alpha"}, "21": {"stimulus": 1905, "trial": 21, "rt": 1248, "response": "Beta"}, "22": {"stimulus": 187, "trial": 22, "rt": 985, "response": "Alpha"}, "23": {"stimulus": 1749, "trial": 23, "rt": 926, "response": "Alpha"}, "46": {"stimulus": 1093, "trial": 46, "rt": 1671, "response": "Alpha"}, "47": {"stimulus": 30, "trial": 47, "rt": 2238, "response": "Alpha"}, "44": {"stimulus": 1468, "trial": 44, "rt": 1003, "response": "Beta"}, "45": {"stimulus": 1374, "trial": 45, "rt": 8797, "response": "Beta"}, "28": {"stimulus": 218, "trial": 28, "rt": 1935, "response": "Beta"}, "29": {"stimulus": 937, "trial": 29, "rt": 2432, "response": "Alpha"}, "40": {"stimulus": 2124, "trial": 40, "rt": 1744, "response": "Alpha"}, "41": {"stimulus": 1312, "trial": 41, "rt": 1494, "response": "Beta"}, "1": {"stimulus": 1187, "trial": 1, "rt": 910, "response": "Alpha"}, "0": {"stimulus": 718, "trial": 0, "rt": 3251, "response": "Beta"}, "3": {"stimulus": 812, "trial": 3, "rt": 1236, "response": "Beta"}, "2": {"stimulus": 1030, "trial": 2, "rt": 1549, "response": "Alpha"}, "5": {"stimulus": 405, "trial": 5, "rt": 723, "response": "Beta"}, "4": {"stimulus": 655, "trial": 4, "rt": 849, "response": "Beta"}, "7": {"stimulus": 1718, "trial": 7, "rt": 945, "response": "Beta"}, "6": {"stimulus": 562, "trial": 6, "rt": 705, "response": "Beta"}, "9": {"stimulus": 1812, "trial": 9, "rt": 1292, "response": "Beta"}, "8": {"stimulus": 280, "trial": 8, "rt": 1047, "response": "Alpha"}, "78": {"stimulus": 874, "trial": 78, "rt": 1849, "response": "Beta"}, "51": {"stimulus": 1874, "trial": 51, "rt": 2429, "response": "Alpha"}, "39": {"stimulus": 624, "trial": 39, "rt": 1383, "response": "Beta"}, "65": {"stimulus": 1999, "trial": 65, "rt": 1220, "response": "Beta"}, "76": {"stimulus": 2499, "trial": 76, "rt": 4216, "response": "Beta"}, "75": {"stimulus": 2062, "trial": 75, "rt": 1326, "response": "Beta"}, "38": {"stimulus": 968, "trial": 38, "rt": 1220, "response": "Beta"}, "73": {"stimulus": 62, "trial": 73, "rt": 1324, "response": "Beta"}, "72": {"stimulus": 1530, "trial": 72, "rt": 2494, "response": "Alpha"}, "71": {"stimulus": 93, "trial": 71, "rt": 1414, "response": "Beta"}, "70": {"stimulus": 374, "trial": 70, "rt": 1191, "response": "Alpha"}, "59": {"stimulus": 1280, "trial": 59, "rt": 1615, "response": "Alpha"}, "79": {"stimulus": 1062, "trial": 79, "rt": 1443, "response": "Beta"}, "58": {"stimulus": 780, "trial": 58, "rt": 2399, "response": "Alpha"}, "11": {"stimulus": 1843, "trial": 11, "rt": 2470, "response": "Alpha"}, "10": {"stimulus": 1655, "trial": 10, "rt": 1749, "response": "Beta"}, "13": {"stimulus": 1437, "trial": 13, "rt": 1515, "response": "Alpha"}, "12": {"stimulus": 468, "trial": 12, "rt": 931, "response": "Beta"}, "15": {"stimulus": 437, "trial": 15, "rt": 1056, "response": "Alpha"}, "14": {"stimulus": 124, "trial": 14, "rt": 2374, "response": "Beta"}, "17": {"stimulus": 593, "trial": 17, "rt": 1153, "response": "Alpha"}, "16": {"stimulus": 2249, "trial": 16, "rt": 1188, "response": "Alpha"}, "19": {"stimulus": 749, "trial": 19, "rt": 1048, "response": "Alpha"}, "18": {"stimulus": 1155, "trial": 18, "rt": 1297, "response": "Beta"}, "31": {"stimulus": 1562, "trial": 31, "rt": 1413, "response": "Beta"}, "30": {"stimulus": 0, "trial": 30, "rt": 1297, "response": "Beta"}, "37": {"stimulus": 343, "trial": 37, "rt": 1946, "response": "Alpha"}, "36": {"stimulus": 2312, "trial": 36, "rt": 684, "response": "Beta"}, "35": {"stimulus": 2280, "trial": 35, "rt": 1232, "response": "Alpha"}, "34": {"stimulus": 1499, "trial": 34, "rt": 1901, "response": "Beta"}, "33": {"stimulus": 687, "trial": 33, "rt": 2035, "response": "Alpha"}, "55": {"stimulus": 2155, "trial": 55, "rt": 1004, "response": "Beta"}, "74": {"stimulus": 2187, "trial": 74, "rt": 11402, "response": "Beta"}, "32": {"stimulus": 905, "trial": 32, "rt": 847, "response": "Beta"}, "57": {"stimulus": 2405, "trial": 57, "rt": 1805, "response": "Beta"}, "50": {"stimulus": 1937, "trial": 50, "rt": 1695, "response": "Alpha"}}, "experiment": {"Paradigm": "TACL", "Stimuli": "Size-Color Squares", "Experiment": "Generating-Multiple-Categories"}, "submit": {"timeTotal": 523687, "age": "28", "comments": "good and interesting", "sex": "male"}}