{"info": {"finish": 1548046942348, "participant": 125, "exposed": true, "lab": false, "start": 1548046607338, "counterbalance": 1, "gentype": 1, "condition": "Row", "browser": {"platform": "Win32", "userAgent": "Mozilla/5.0 (Windows NT 10.0; Win64; x64; rv:64.0) Gecko/20100101 Firefox/64.0"}}, "observation": {"11": {"stimulus": 493, "trial": 11, "rt": 1408}, "10": {"stimulus": 612, "trial": 10, "rt": 1424}, "1": {"stimulus": 582, "trial": 1, "rt": 2575}, "0": {"stimulus": 421, "trial": 0, "rt": 3308}, "3": {"stimulus": 612, "trial": 3, "rt": 3128}, "2": {"stimulus": 493, "trial": 2, "rt": 3496}, "5": {"stimulus": 421, "trial": 5, "rt": 2350}, "4": {"stimulus": 582, "trial": 4, "rt": 3046}, "7": {"stimulus": 612, "trial": 7, "rt": 1656}, "6": {"stimulus": 493, "trial": 6, "rt": 1992}, "9": {"stimulus": 582, "trial": 9, "rt": 1447}, "8": {"stimulus": 421, "trial": 8, "rt": 1896}}, "generation": {"1": {"category": "Beta", "trial": 1, "stimulus": 2400, "rt": 7424}, "0": {"category": "Beta", "trial": 0, "stimulus": 2499, "rt": 11417}, "3": {"category": "Beta", "trial": 3, "stimulus": 2442, "rt": 5561}, "2": {"category": "Beta", "trial": 2, "stimulus": 2426, "rt": 7496}, "5": {"category": "Beta", "trial": 5, "stimulus": 2439, "rt": 4326}, "4": {"category": "Beta", "trial": 4, "stimulus": 2415, "rt": 11432}, "7": {"category": "Beta", "trial": 7, "stimulus": 2421, "rt": 3759}, "6": {"category": "Beta", "trial": 6, "stimulus": 2407, "rt": 9865}}, "generalization": {"56": {"stimulus": 1562, "trial": 56, "rt": 1567, "response": "Alpha"}, "77": {"stimulus": 843, "trial": 77, "rt": 912, "response": "Alpha"}, "54": {"stimulus": 187, "trial": 54, "rt": 822, "response": "Beta"}, "42": {"stimulus": 1437, "trial": 42, "rt": 944, "response": "Alpha"}, "48": {"stimulus": 718, "trial": 48, "rt": 919, "response": "Alpha"}, "43": {"stimulus": 1780, "trial": 43, "rt": 1640, "response": "Alpha"}, "60": {"stimulus": 2374, "trial": 60, "rt": 944, "response": "Beta"}, "61": {"stimulus": 937, "trial": 61, "rt": 1303, "response": "Alpha"}, "62": {"stimulus": 2124, "trial": 62, "rt": 950, "response": "Beta"}, "63": {"stimulus": 812, "trial": 63, "rt": 1096, "response": "Alpha"}, "64": {"stimulus": 2249, "trial": 64, "rt": 1062, "response": "Beta"}, "49": {"stimulus": 2187, "trial": 49, "rt": 1007, "response": "Beta"}, "66": {"stimulus": 2218, "trial": 66, "rt": 791, "response": "Beta"}, "67": {"stimulus": 624, "trial": 67, "rt": 1255, "response": "Alpha"}, "68": {"stimulus": 2093, "trial": 68, "rt": 1016, "response": "Beta"}, "69": {"stimulus": 780, "trial": 69, "rt": 1375, "response": "Alpha"}, "80": {"stimulus": 155, "trial": 80, "rt": 1064, "response": "Beta"}, "52": {"stimulus": 93, "trial": 52, "rt": 1048, "response": "Beta"}, "53": {"stimulus": 343, "trial": 53, "rt": 863, "response": "Beta"}, "24": {"stimulus": 1468, "trial": 24, "rt": 1216, "response": "Alpha"}, "25": {"stimulus": 1249, "trial": 25, "rt": 935, "response": "Alpha"}, "26": {"stimulus": 468, "trial": 26, "rt": 1569, "response": "Alpha"}, "27": {"stimulus": 218, "trial": 27, "rt": 935, "response": "Beta"}, "20": {"stimulus": 437, "trial": 20, "rt": 1424, "response": "Alpha"}, "21": {"stimulus": 1093, "trial": 21, "rt": 919, "response": "Alpha"}, "22": {"stimulus": 530, "trial": 22, "rt": 2352, "response": "Alpha"}, "23": {"stimulus": 374, "trial": 23, "rt": 1030, "response": "Alpha"}, "46": {"stimulus": 1218, "trial": 46, "rt": 902, "response": "Alpha"}, "47": {"stimulus": 1749, "trial": 47, "rt": 2191, "response": "Alpha"}, "44": {"stimulus": 1968, "trial": 44, "rt": 1830, "response": "Beta"}, "45": {"stimulus": 874, "trial": 45, "rt": 1040, "response": "Alpha"}, "28": {"stimulus": 2405, "trial": 28, "rt": 952, "response": "Beta"}, "29": {"stimulus": 62, "trial": 29, "rt": 1134, "response": "Beta"}, "40": {"stimulus": 1593, "trial": 40, "rt": 992, "response": "Alpha"}, "41": {"stimulus": 905, "trial": 41, "rt": 912, "response": "Alpha"}, "1": {"stimulus": 1280, "trial": 1, "rt": 1511, "response": "Alpha"}, "0": {"stimulus": 1405, "trial": 0, "rt": 2262, "response": "Alpha"}, "3": {"stimulus": 1155, "trial": 3, "rt": 1199, "response": "Alpha"}, "2": {"stimulus": 1999, "trial": 2, "rt": 1775, "response": "Beta"}, "5": {"stimulus": 1124, "trial": 5, "rt": 1152, "response": "Alpha"}, "4": {"stimulus": 1312, "trial": 4, "rt": 1095, "response": "Alpha"}, "7": {"stimulus": 1530, "trial": 7, "rt": 1672, "response": "Alpha"}, "6": {"stimulus": 124, "trial": 6, "rt": 1296, "response": "Beta"}, "9": {"stimulus": 1624, "trial": 9, "rt": 1078, "response": "Alpha"}, "8": {"stimulus": 1687, "trial": 8, "rt": 1087, "response": "Alpha"}, "78": {"stimulus": 562, "trial": 78, "rt": 1430, "response": "Alpha"}, "51": {"stimulus": 687, "trial": 51, "rt": 1223, "response": "Alpha"}, "39": {"stimulus": 2437, "trial": 39, "rt": 904, "response": "Beta"}, "65": {"stimulus": 2062, "trial": 65, "rt": 807, "response": "Beta"}, "76": {"stimulus": 312, "trial": 76, "rt": 1462, "response": "Beta"}, "75": {"stimulus": 1030, "trial": 75, "rt": 791, "response": "Alpha"}, "38": {"stimulus": 499, "trial": 38, "rt": 920, "response": "Beta"}, "73": {"stimulus": 2343, "trial": 73, "rt": 792, "response": "Beta"}, "72": {"stimulus": 1187, "trial": 72, "rt": 950, "response": "Alpha"}, "71": {"stimulus": 1499, "trial": 71, "rt": 1103, "response": "Alpha"}, "70": {"stimulus": 2280, "trial": 70, "rt": 823, "response": "Beta"}, "59": {"stimulus": 749, "trial": 59, "rt": 1200, "response": "Alpha"}, "79": {"stimulus": 1812, "trial": 79, "rt": 1231, "response": "Beta"}, "58": {"stimulus": 1718, "trial": 58, "rt": 1535, "response": "Alpha"}, "11": {"stimulus": 968, "trial": 11, "rt": 1280, "response": "Alpha"}, "10": {"stimulus": 2030, "trial": 10, "rt": 1008, "response": "Beta"}, "13": {"stimulus": 1374, "trial": 13, "rt": 1158, "response": "Alpha"}, "12": {"stimulus": 249, "trial": 12, "rt": 1232, "response": "Beta"}, "15": {"stimulus": 1062, "trial": 15, "rt": 927, "response": "Alpha"}, "14": {"stimulus": 999, "trial": 14, "rt": 1030, "response": "Alpha"}, "17": {"stimulus": 280, "trial": 17, "rt": 1016, "response": "Beta"}, "16": {"stimulus": 405, "trial": 16, "rt": 1159, "response": "Beta"}, "19": {"stimulus": 1874, "trial": 19, "rt": 912, "response": "Beta"}, "18": {"stimulus": 1655, "trial": 18, "rt": 1080, "response": "Beta"}, "31": {"stimulus": 655, "trial": 31, "rt": 1480, "response": "Alpha"}, "30": {"stimulus": 1343, "trial": 30, "rt": 792, "response": "Alpha"}, "37": {"stimulus": 30, "trial": 37, "rt": 951, "response": "Beta"}, "36": {"stimulus": 2468, "trial": 36, "rt": 919, "response": "Beta"}, "35": {"stimulus": 1843, "trial": 35, "rt": 1048, "response": "Beta"}, "34": {"stimulus": 0, "trial": 34, "rt": 960, "response": "Beta"}, "33": {"stimulus": 1937, "trial": 33, "rt": 1055, "response": "Beta"}, "55": {"stimulus": 2155, "trial": 55, "rt": 1375, "response": "Beta"}, "74": {"stimulus": 593, "trial": 74, "rt": 1047, "response": "Alpha"}, "32": {"stimulus": 2312, "trial": 32, "rt": 879, "response": "Beta"}, "57": {"stimulus": 2499, "trial": 57, "rt": 1022, "response": "Beta"}, "50": {"stimulus": 1905, "trial": 50, "rt": 896, "response": "Beta"}}, "experiment": {"Paradigm": "TACL", "Stimuli": "Size-Color Squares", "Experiment": "Generating-Multiple-Categories"}, "submit": {"timeTotal": 335227, "age": "22", "comments": "Since there wasn't a very wide range of examples for the Alpha category (and none for the Beta category), it oftentimes felt like a lot of my answers for the categorization portion were mostly guess. While some uncertainty is necessary, it occasionally felt like too much.", "sex": "Female"}}