{"info": {"finish": 1548049064825, "participant": 127, "exposed": true, "lab": false, "start": 1548048724825, "counterbalance": 1, "gentype": 0, "condition": "Cluster", "browser": {"platform": "Linux x86_64", "userAgent": "Mozilla/5.0 (X11; CrOS x86_64 10575.58.0) AppleWebKit/537.36 (KHTML, like Gecko) Chrome/67.0.3396.101 Safari/537.36"}}, "observation": {"11": {"stimulus": 392, "trial": 11, "rt": 1392}, "10": {"stimulus": 583, "trial": 10, "rt": 1624}, "1": {"stimulus": 1093, "trial": 1, "rt": 2354}, "0": {"stimulus": 583, "trial": 0, "rt": 6402}, "3": {"stimulus": 392, "trial": 3, "rt": 4083}, "2": {"stimulus": 1083, "trial": 2, "rt": 2359}, "5": {"stimulus": 1083, "trial": 5, "rt": 1527}, "4": {"stimulus": 392, "trial": 4, "rt": 1625}, "7": {"stimulus": 1093, "trial": 7, "rt": 1545}, "6": {"stimulus": 583, "trial": 6, "rt": 1687}, "9": {"stimulus": 1093, "trial": 9, "rt": 1892}, "8": {"stimulus": 1083, "trial": 8, "rt": 1425}}, "generation": {"1": {"category": "Not-Alpha", "trial": 1, "stimulus": 2450, "rt": 8552}, "0": {"category": "Not-Alpha", "trial": 0, "stimulus": 2499, "rt": 11929}, "3": {"category": "Not-Alpha", "trial": 3, "stimulus": 2466, "rt": 8036}, "2": {"category": "Not-Alpha", "trial": 2, "stimulus": 2474, "rt": 8230}, "5": {"category": "Not-Alpha", "trial": 5, "stimulus": 2479, "rt": 4625}, "4": {"category": "Not-Alpha", "trial": 4, "stimulus": 2484, "rt": 4151}, "7": {"category": "Not-Alpha", "trial": 7, "stimulus": 0, "rt": 5551}, "6": {"category": "Not-Alpha", "trial": 6, "stimulus": 2464, "rt": 3619}}, "generalization": {"56": {"stimulus": 1437, "trial": 56, "rt": 1235, "response": "Beta"}, "77": {"stimulus": 593, "trial": 77, "rt": 1315, "response": "Beta"}, "54": {"stimulus": 1530, "trial": 54, "rt": 860, "response": "Alpha"}, "42": {"stimulus": 2405, "trial": 42, "rt": 1297, "response": "Beta"}, "48": {"stimulus": 1624, "trial": 48, "rt": 1907, "response": "Alpha"}, "43": {"stimulus": 1249, "trial": 43, "rt": 881, "response": "Alpha"}, "60": {"stimulus": 2374, "trial": 60, "rt": 3336, "response": "Alpha"}, "61": {"stimulus": 1187, "trial": 61, "rt": 976, "response": "Alpha"}, "62": {"stimulus": 1093, "trial": 62, "rt": 844, "response": "Beta"}, "63": {"stimulus": 280, "trial": 63, "rt": 832, "response": "Beta"}, "64": {"stimulus": 1655, "trial": 64, "rt": 618, "response": "Alpha"}, "49": {"stimulus": 843, "trial": 49, "rt": 646, "response": "Alpha"}, "66": {"stimulus": 1874, "trial": 66, "rt": 820, "response": "Alpha"}, "67": {"stimulus": 124, "trial": 67, "rt": 1882, "response": "Beta"}, "68": {"stimulus": 718, "trial": 68, "rt": 1465, "response": "Beta"}, "69": {"stimulus": 1155, "trial": 69, "rt": 802, "response": "Beta"}, "80": {"stimulus": 1937, "trial": 80, "rt": 723, "response": "Beta"}, "52": {"stimulus": 2312, "trial": 52, "rt": 1316, "response": "Beta"}, "53": {"stimulus": 0, "trial": 53, "rt": 777, "response": "Beta"}, "24": {"stimulus": 1968, "trial": 24, "rt": 666, "response": "Alpha"}, "25": {"stimulus": 30, "trial": 25, "rt": 633, "response": "Beta"}, "26": {"stimulus": 624, "trial": 26, "rt": 720, "response": "Beta"}, "27": {"stimulus": 780, "trial": 27, "rt": 959, "response": "Alpha"}, "20": {"stimulus": 155, "trial": 20, "rt": 744, "response": "Beta"}, "21": {"stimulus": 687, "trial": 21, "rt": 549, "response": "Alpha"}, "22": {"stimulus": 1843, "trial": 22, "rt": 4827, "response": "Alpha"}, "23": {"stimulus": 530, "trial": 23, "rt": 960, "response": "Beta"}, "46": {"stimulus": 2249, "trial": 46, "rt": 1235, "response": "Beta"}, "47": {"stimulus": 312, "trial": 47, "rt": 50179, "response": "Beta"}, "44": {"stimulus": 468, "trial": 44, "rt": 587, "response": "Beta"}, "45": {"stimulus": 1280, "trial": 45, "rt": 652, "response": "Alpha"}, "28": {"stimulus": 968, "trial": 28, "rt": 732, "response": "Alpha"}, "29": {"stimulus": 1593, "trial": 29, "rt": 775, "response": "Alpha"}, "40": {"stimulus": 499, "trial": 40, "rt": 1267, "response": "Alpha"}, "41": {"stimulus": 1562, "trial": 41, "rt": 776, "response": "Alpha"}, "1": {"stimulus": 2499, "trial": 1, "rt": 945, "response": "Beta"}, "0": {"stimulus": 749, "trial": 0, "rt": 2192, "response": "Alpha"}, "3": {"stimulus": 1780, "trial": 3, "rt": 1496, "response": "Beta"}, "2": {"stimulus": 93, "trial": 2, "rt": 1921, "response": "Beta"}, "5": {"stimulus": 62, "trial": 5, "rt": 819, "response": "Beta"}, "4": {"stimulus": 905, "trial": 4, "rt": 1612, "response": "Beta"}, "7": {"stimulus": 1374, "trial": 7, "rt": 1547, "response": "Alpha"}, "6": {"stimulus": 2437, "trial": 6, "rt": 745, "response": "Beta"}, "9": {"stimulus": 874, "trial": 9, "rt": 640, "response": "Alpha"}, "8": {"stimulus": 2187, "trial": 8, "rt": 845, "response": "Beta"}, "78": {"stimulus": 1905, "trial": 78, "rt": 864, "response": "Beta"}, "51": {"stimulus": 1124, "trial": 51, "rt": 546, "response": "Alpha"}, "39": {"stimulus": 1030, "trial": 39, "rt": 1061, "response": "Beta"}, "65": {"stimulus": 1749, "trial": 65, "rt": 1018, "response": "Alpha"}, "76": {"stimulus": 2155, "trial": 76, "rt": 817, "response": "Beta"}, "75": {"stimulus": 343, "trial": 75, "rt": 801, "response": "Beta"}, "38": {"stimulus": 1218, "trial": 38, "rt": 987, "response": "Alpha"}, "73": {"stimulus": 1499, "trial": 73, "rt": 1015, "response": "Alpha"}, "72": {"stimulus": 218, "trial": 72, "rt": 994, "response": "Beta"}, "71": {"stimulus": 2343, "trial": 71, "rt": 974, "response": "Beta"}, "70": {"stimulus": 1405, "trial": 70, "rt": 1085, "response": "Beta"}, "59": {"stimulus": 2468, "trial": 59, "rt": 1529, "response": "Alpha"}, "79": {"stimulus": 1343, "trial": 79, "rt": 1096, "response": "Beta"}, "58": {"stimulus": 937, "trial": 58, "rt": 1159, "response": "Alpha"}, "11": {"stimulus": 1062, "trial": 11, "rt": 574, "response": "Alpha"}, "10": {"stimulus": 2062, "trial": 10, "rt": 744, "response": "Beta"}, "13": {"stimulus": 655, "trial": 13, "rt": 858, "response": "Beta"}, "12": {"stimulus": 1468, "trial": 12, "rt": 961, "response": "Alpha"}, "15": {"stimulus": 187, "trial": 15, "rt": 937, "response": "Alpha"}, "14": {"stimulus": 1718, "trial": 14, "rt": 372, "response": "Alpha"}, "17": {"stimulus": 405, "trial": 17, "rt": 1091, "response": "Beta"}, "16": {"stimulus": 437, "trial": 16, "rt": 505, "response": "Alpha"}, "19": {"stimulus": 2093, "trial": 19, "rt": 1045, "response": "Beta"}, "18": {"stimulus": 1312, "trial": 18, "rt": 1059, "response": "Alpha"}, "31": {"stimulus": 1687, "trial": 31, "rt": 618, "response": "Alpha"}, "30": {"stimulus": 374, "trial": 30, "rt": 1100, "response": "Alpha"}, "37": {"stimulus": 2124, "trial": 37, "rt": 1667, "response": "Alpha"}, "36": {"stimulus": 812, "trial": 36, "rt": 690, "response": "Beta"}, "35": {"stimulus": 2030, "trial": 35, "rt": 1101, "response": "Alpha"}, "34": {"stimulus": 1999, "trial": 34, "rt": 841, "response": "Beta"}, "33": {"stimulus": 249, "trial": 33, "rt": 997, "response": "Beta"}, "55": {"stimulus": 2280, "trial": 55, "rt": 907, "response": "Alpha"}, "74": {"stimulus": 2218, "trial": 74, "rt": 1272, "response": "Alpha"}, "32": {"stimulus": 1812, "trial": 32, "rt": 955, "response": "Beta"}, "57": {"stimulus": 999, "trial": 57, "rt": 749, "response": "Beta"}, "50": {"stimulus": 562, "trial": 50, "rt": 961, "response": "Beta"}}, "experiment": {"Paradigm": "TACL", "Stimuli": "Size-Color Squares", "Experiment": "Generating-Multiple-Categories"}, "submit": {"timeTotal": 340676, "age": "21", "comments": "Seemed kinda confusing", "sex": "Male"}}