{"info": {"finish": 1548050119381, "participant": 128, "exposed": true, "lab": false, "start": 1548049883889, "counterbalance": 2, "gentype": 0, "condition": "Row", "browser": {"platform": "Win32", "userAgent": "Mozilla/5.0 (Windows NT 10.0; Win64; x64) AppleWebKit/537.36 (KHTML, like Gecko) Chrome/71.0.3578.98 Safari/537.36"}}, "observation": {"11": {"stimulus": 612, "trial": 11, "rt": 1494}, "10": {"stimulus": 493, "trial": 10, "rt": 36727}, "1": {"stimulus": 582, "trial": 1, "rt": 1768}, "0": {"stimulus": 421, "trial": 0, "rt": 1957}, "3": {"stimulus": 493, "trial": 3, "rt": 1143}, "2": {"stimulus": 612, "trial": 2, "rt": 1350}, "5": {"stimulus": 582, "trial": 5, "rt": 1429}, "4": {"stimulus": 612, "trial": 4, "rt": 1174}, "7": {"stimulus": 493, "trial": 7, "rt": 1678}, "6": {"stimulus": 421, "trial": 6, "rt": 1335}, "9": {"stimulus": 582, "trial": 9, "rt": 1358}, "8": {"stimulus": 421, "trial": 8, "rt": 2055}}, "generation": {"1": {"category": "Not-Alpha", "trial": 1, "stimulus": 1137, "rt": 2763}, "0": {"category": "Not-Alpha", "trial": 0, "stimulus": 966, "rt": 4142}, "3": {"category": "Not-Alpha", "trial": 3, "stimulus": 889, "rt": 3078}, "2": {"category": "Not-Alpha", "trial": 2, "stimulus": 1427, "rt": 2503}, "5": {"category": "Not-Alpha", "trial": 5, "stimulus": 2119, "rt": 3951}, "4": {"category": "Not-Alpha", "trial": 4, "stimulus": 1156, "rt": 2359}, "7": {"category": "Not-Alpha", "trial": 7, "stimulus": 1289, "rt": 2302}, "6": {"category": "Not-Alpha", "trial": 6, "stimulus": 866, "rt": 6110}}, "generalization": {"56": {"stimulus": 905, "trial": 56, "rt": 24031, "response": "Alpha"}, "77": {"stimulus": 593, "trial": 77, "rt": 439, "response": "Beta"}, "54": {"stimulus": 1437, "trial": 54, "rt": 663, "response": "Alpha"}, "42": {"stimulus": 1343, "trial": 42, "rt": 200, "response": "Alpha"}, "48": {"stimulus": 530, "trial": 48, "rt": 270, "response": "Alpha"}, "43": {"stimulus": 1405, "trial": 43, "rt": 182, "response": "Beta"}, "60": {"stimulus": 874, "trial": 60, "rt": 285, "response": "Beta"}, "61": {"stimulus": 1937, "trial": 61, "rt": 271, "response": "Beta"}, "62": {"stimulus": 687, "trial": 62, "rt": 216, "response": "Alpha"}, "63": {"stimulus": 437, "trial": 63, "rt": 197, "response": "Alpha"}, "64": {"stimulus": 624, "trial": 64, "rt": 472, "response": "Beta"}, "49": {"stimulus": 562, "trial": 49, "rt": 559, "response": "Alpha"}, "66": {"stimulus": 843, "trial": 66, "rt": 263, "response": "Alpha"}, "67": {"stimulus": 2249, "trial": 67, "rt": 168, "response": "Beta"}, "68": {"stimulus": 30, "trial": 68, "rt": 229, "response": "Alpha"}, "69": {"stimulus": 468, "trial": 69, "rt": 335, "response": "Beta"}, "80": {"stimulus": 1374, "trial": 80, "rt": 150, "response": "Beta"}, "52": {"stimulus": 655, "trial": 52, "rt": 623, "response": "Beta"}, "53": {"stimulus": 218, "trial": 53, "rt": 198, "response": "Beta"}, "24": {"stimulus": 1280, "trial": 24, "rt": 894, "response": "Alpha"}, "25": {"stimulus": 1749, "trial": 25, "rt": 302, "response": "Alpha"}, "26": {"stimulus": 2280, "trial": 26, "rt": 1071, "response": "Beta"}, "27": {"stimulus": 2312, "trial": 27, "rt": 231, "response": "Alpha"}, "20": {"stimulus": 187, "trial": 20, "rt": 304, "response": "Beta"}, "21": {"stimulus": 1062, "trial": 21, "rt": 102, "response": "Alpha"}, "22": {"stimulus": 2499, "trial": 22, "rt": 183, "response": "Beta"}, "23": {"stimulus": 93, "trial": 23, "rt": 159, "response": "Beta"}, "46": {"stimulus": 1999, "trial": 46, "rt": 511, "response": "Alpha"}, "47": {"stimulus": 2093, "trial": 47, "rt": 191, "response": "Beta"}, "44": {"stimulus": 812, "trial": 44, "rt": 278, "response": "Beta"}, "45": {"stimulus": 2155, "trial": 45, "rt": 190, "response": "Alpha"}, "28": {"stimulus": 2124, "trial": 28, "rt": 343, "response": "Beta"}, "29": {"stimulus": 1124, "trial": 29, "rt": 263, "response": "Alpha"}, "40": {"stimulus": 124, "trial": 40, "rt": 190, "response": "Beta"}, "41": {"stimulus": 1249, "trial": 41, "rt": 247, "response": "Beta"}, "1": {"stimulus": 2343, "trial": 1, "rt": 343, "response": "Alpha"}, "0": {"stimulus": 280, "trial": 0, "rt": 1542, "response": "Beta"}, "3": {"stimulus": 155, "trial": 3, "rt": 204, "response": "Beta"}, "2": {"stimulus": 2030, "trial": 2, "rt": 310, "response": "Alpha"}, "5": {"stimulus": 937, "trial": 5, "rt": 327, "response": "Alpha"}, "4": {"stimulus": 499, "trial": 4, "rt": 240, "response": "Beta"}, "7": {"stimulus": 374, "trial": 7, "rt": 272, "response": "Beta"}, "6": {"stimulus": 1530, "trial": 6, "rt": 142, "response": "Beta"}, "9": {"stimulus": 343, "trial": 9, "rt": 184, "response": "Alpha"}, "8": {"stimulus": 1093, "trial": 8, "rt": 119, "response": "Alpha"}, "78": {"stimulus": 1218, "trial": 78, "rt": 199, "response": "Beta"}, "51": {"stimulus": 2218, "trial": 51, "rt": 175, "response": "Alpha"}, "39": {"stimulus": 2374, "trial": 39, "rt": 159, "response": "Alpha"}, "65": {"stimulus": 968, "trial": 65, "rt": 206, "response": "Beta"}, "76": {"stimulus": 718, "trial": 76, "rt": 176, "response": "Alpha"}, "75": {"stimulus": 1655, "trial": 75, "rt": 110, "response": "Alpha"}, "38": {"stimulus": 780, "trial": 38, "rt": 280, "response": "Beta"}, "73": {"stimulus": 2062, "trial": 73, "rt": 229, "response": "Beta"}, "72": {"stimulus": 1155, "trial": 72, "rt": 270, "response": "Alpha"}, "71": {"stimulus": 1687, "trial": 71, "rt": 263, "response": "Alpha"}, "70": {"stimulus": 749, "trial": 70, "rt": 303, "response": "Beta"}, "59": {"stimulus": 1499, "trial": 59, "rt": 375, "response": "Alpha"}, "79": {"stimulus": 1030, "trial": 79, "rt": 215, "response": "Alpha"}, "58": {"stimulus": 1312, "trial": 58, "rt": 303, "response": "Beta"}, "11": {"stimulus": 2405, "trial": 11, "rt": 287, "response": "Alpha"}, "10": {"stimulus": 2187, "trial": 10, "rt": 117, "response": "Beta"}, "13": {"stimulus": 999, "trial": 13, "rt": 223, "response": "Beta"}, "12": {"stimulus": 1812, "trial": 12, "rt": 110, "response": "Beta"}, "15": {"stimulus": 0, "trial": 15, "rt": 254, "response": "Beta"}, "14": {"stimulus": 1874, "trial": 14, "rt": 168, "response": "Alpha"}, "17": {"stimulus": 1905, "trial": 17, "rt": 335, "response": "Alpha"}, "16": {"stimulus": 249, "trial": 16, "rt": 229, "response": "Beta"}, "19": {"stimulus": 312, "trial": 19, "rt": 133, "response": "Beta"}, "18": {"stimulus": 1968, "trial": 18, "rt": 157, "response": "Alpha"}, "31": {"stimulus": 2468, "trial": 31, "rt": 237, "response": "Beta"}, "30": {"stimulus": 1593, "trial": 30, "rt": 534, "response": "Alpha"}, "37": {"stimulus": 1718, "trial": 37, "rt": 206, "response": "Alpha"}, "36": {"stimulus": 2437, "trial": 36, "rt": 310, "response": "Beta"}, "35": {"stimulus": 1780, "trial": 35, "rt": 606, "response": "Alpha"}, "34": {"stimulus": 62, "trial": 34, "rt": 309, "response": "Beta"}, "33": {"stimulus": 405, "trial": 33, "rt": 206, "response": "Beta"}, "55": {"stimulus": 1624, "trial": 55, "rt": 318, "response": "Beta"}, "74": {"stimulus": 1562, "trial": 74, "rt": 287, "response": "Beta"}, "32": {"stimulus": 1843, "trial": 32, "rt": 207, "response": "Alpha"}, "57": {"stimulus": 1468, "trial": 57, "rt": 327, "response": "Beta"}, "50": {"stimulus": 1187, "trial": 50, "rt": 286, "response": "Beta"}}, "experiment": {"Paradigm": "TACL", "Stimuli": "Size-Color Squares", "Experiment": "Generating-Multiple-Categories"}, "submit": {"timeTotal": 235708, "age": "31", "comments": "", "sex": "male"}}