{"info": {"finish": 1548050661965, "participant": 129, "exposed": true, "lab": false, "start": 1548049895446, "counterbalance": 1, "gentype": 0, "condition": "Cluster", "browser": {"platform": "Win32", "userAgent": "Mozilla/5.0 (Windows NT 6.1; Win64; x64) AppleWebKit/537.36 (KHTML, like Gecko) Chrome/71.0.3578.98 Safari/537.36"}}, "observation": {"11": {"stimulus": 392, "trial": 11, "rt": 1995}, "10": {"stimulus": 583, "trial": 10, "rt": 1999}, "1": {"stimulus": 1093, "trial": 1, "rt": 7045}, "0": {"stimulus": 1083, "trial": 0, "rt": 7468}, "3": {"stimulus": 392, "trial": 3, "rt": 2046}, "2": {"stimulus": 583, "trial": 2, "rt": 3358}, "5": {"stimulus": 1083, "trial": 5, "rt": 3743}, "4": {"stimulus": 1093, "trial": 4, "rt": 2361}, "7": {"stimulus": 392, "trial": 7, "rt": 4767}, "6": {"stimulus": 583, "trial": 6, "rt": 2173}, "9": {"stimulus": 1093, "trial": 9, "rt": 6956}, "8": {"stimulus": 1083, "trial": 8, "rt": 1952}}, "generation": {"1": {"category": "Not-Alpha", "trial": 1, "stimulus": 1379, "rt": 11898}, "0": {"category": "Not-Alpha", "trial": 0, "stimulus": 724, "rt": 30650}, "3": {"category": "Not-Alpha", "trial": 3, "stimulus": 1533, "rt": 10165}, "2": {"category": "Not-Alpha", "trial": 2, "stimulus": 1131, "rt": 189099}, "5": {"category": "Not-Alpha", "trial": 5, "stimulus": 1289, "rt": 18406}, "4": {"category": "Not-Alpha", "trial": 4, "stimulus": 977, "rt": 29204}, "7": {"category": "Not-Alpha", "trial": 7, "stimulus": 759, "rt": 81221}, "6": {"category": "Not-Alpha", "trial": 6, "stimulus": 1036, "rt": 13302}}, "generalization": {"56": {"stimulus": 1905, "trial": 56, "rt": 1839, "response": "Alpha"}, "77": {"stimulus": 1749, "trial": 77, "rt": 926, "response": "Alpha"}, "54": {"stimulus": 1249, "trial": 54, "rt": 1509, "response": "Beta"}, "42": {"stimulus": 1968, "trial": 42, "rt": 863, "response": "Alpha"}, "48": {"stimulus": 2312, "trial": 48, "rt": 6624, "response": "Alpha"}, "43": {"stimulus": 1405, "trial": 43, "rt": 1117, "response": "Beta"}, "60": {"stimulus": 1030, "trial": 60, "rt": 942, "response": "Alpha"}, "61": {"stimulus": 374, "trial": 61, "rt": 2382, "response": "Alpha"}, "62": {"stimulus": 1343, "trial": 62, "rt": 822, "response": "Alpha"}, "63": {"stimulus": 562, "trial": 63, "rt": 949, "response": "Alpha"}, "64": {"stimulus": 999, "trial": 64, "rt": 1278, "response": "Alpha"}, "49": {"stimulus": 593, "trial": 49, "rt": 926, "response": "Alpha"}, "66": {"stimulus": 1937, "trial": 66, "rt": 822, "response": "Alpha"}, "67": {"stimulus": 1687, "trial": 67, "rt": 3789, "response": "Alpha"}, "68": {"stimulus": 1593, "trial": 68, "rt": 823, "response": "Alpha"}, "69": {"stimulus": 280, "trial": 69, "rt": 1133, "response": "Beta"}, "80": {"stimulus": 874, "trial": 80, "rt": 1081, "response": "Alpha"}, "52": {"stimulus": 1655, "trial": 52, "rt": 838, "response": "Alpha"}, "53": {"stimulus": 2124, "trial": 53, "rt": 1645, "response": "Alpha"}, "24": {"stimulus": 1562, "trial": 24, "rt": 885, "response": "Alpha"}, "25": {"stimulus": 2218, "trial": 25, "rt": 2836, "response": "Beta"}, "26": {"stimulus": 1062, "trial": 26, "rt": 1120, "response": "Alpha"}, "27": {"stimulus": 2405, "trial": 27, "rt": 895, "response": "Alpha"}, "20": {"stimulus": 812, "trial": 20, "rt": 1031, "response": "Alpha"}, "21": {"stimulus": 468, "trial": 21, "rt": 1238, "response": "Alpha"}, "22": {"stimulus": 2249, "trial": 22, "rt": 3790, "response": "Alpha"}, "23": {"stimulus": 405, "trial": 23, "rt": 1182, "response": "Alpha"}, "46": {"stimulus": 1280, "trial": 46, "rt": 778, "response": "Alpha"}, "47": {"stimulus": 2155, "trial": 47, "rt": 1526, "response": "Alpha"}, "44": {"stimulus": 1155, "trial": 44, "rt": 773, "response": "Alpha"}, "45": {"stimulus": 218, "trial": 45, "rt": 1003, "response": "Alpha"}, "28": {"stimulus": 1843, "trial": 28, "rt": 1087, "response": "Alpha"}, "29": {"stimulus": 1374, "trial": 29, "rt": 2029, "response": "Alpha"}, "40": {"stimulus": 749, "trial": 40, "rt": 2629, "response": "Alpha"}, "41": {"stimulus": 530, "trial": 41, "rt": 887, "response": "Alpha"}, "1": {"stimulus": 905, "trial": 1, "rt": 5453, "response": "Alpha"}, "0": {"stimulus": 937, "trial": 0, "rt": 6082, "response": "Alpha"}, "3": {"stimulus": 1780, "trial": 3, "rt": 3630, "response": "Alpha"}, "2": {"stimulus": 93, "trial": 2, "rt": 6687, "response": "Beta"}, "5": {"stimulus": 1468, "trial": 5, "rt": 1005, "response": "Alpha"}, "4": {"stimulus": 2187, "trial": 4, "rt": 900, "response": "Alpha"}, "7": {"stimulus": 968, "trial": 7, "rt": 892, "response": "Alpha"}, "6": {"stimulus": 2280, "trial": 6, "rt": 2799, "response": "Alpha"}, "9": {"stimulus": 2468, "trial": 9, "rt": 1603, "response": "Alpha"}, "8": {"stimulus": 2437, "trial": 8, "rt": 1017, "response": "Alpha"}, "78": {"stimulus": 1124, "trial": 78, "rt": 1471, "response": "Alpha"}, "51": {"stimulus": 499, "trial": 51, "rt": 1110, "response": "Alpha"}, "39": {"stimulus": 780, "trial": 39, "rt": 836, "response": "Alpha"}, "65": {"stimulus": 187, "trial": 65, "rt": 1054, "response": "Alpha"}, "76": {"stimulus": 437, "trial": 76, "rt": 944, "response": "Alpha"}, "75": {"stimulus": 687, "trial": 75, "rt": 1007, "response": "Alpha"}, "38": {"stimulus": 62, "trial": 38, "rt": 840, "response": "Alpha"}, "73": {"stimulus": 1312, "trial": 73, "rt": 893, "response": "Alpha"}, "72": {"stimulus": 843, "trial": 72, "rt": 1109, "response": "Alpha"}, "71": {"stimulus": 1093, "trial": 71, "rt": 829, "response": "Alpha"}, "70": {"stimulus": 2374, "trial": 70, "rt": 1534, "response": "Alpha"}, "59": {"stimulus": 1187, "trial": 59, "rt": 766, "response": "Alpha"}, "79": {"stimulus": 1499, "trial": 79, "rt": 719, "response": "Alpha"}, "58": {"stimulus": 1218, "trial": 58, "rt": 759, "response": "Alpha"}, "11": {"stimulus": 1624, "trial": 11, "rt": 2342, "response": "Alpha"}, "10": {"stimulus": 2062, "trial": 10, "rt": 1813, "response": "Alpha"}, "13": {"stimulus": 155, "trial": 13, "rt": 1718, "response": "Alpha"}, "12": {"stimulus": 2093, "trial": 12, "rt": 1428, "response": "Alpha"}, "15": {"stimulus": 2030, "trial": 15, "rt": 861, "response": "Alpha"}, "14": {"stimulus": 249, "trial": 14, "rt": 918, "response": "Alpha"}, "17": {"stimulus": 2343, "trial": 17, "rt": 5502, "response": "Beta"}, "16": {"stimulus": 1874, "trial": 16, "rt": 1231, "response": "Alpha"}, "19": {"stimulus": 1437, "trial": 19, "rt": 3773, "response": "Alpha"}, "18": {"stimulus": 0, "trial": 18, "rt": 1542, "response": "Beta"}, "31": {"stimulus": 1718, "trial": 31, "rt": 1030, "response": "Alpha"}, "30": {"stimulus": 718, "trial": 30, "rt": 1638, "response": "Beta"}, "37": {"stimulus": 655, "trial": 37, "rt": 718, "response": "Alpha"}, "36": {"stimulus": 1530, "trial": 36, "rt": 775, "response": "Alpha"}, "35": {"stimulus": 312, "trial": 35, "rt": 1188, "response": "Alpha"}, "34": {"stimulus": 1999, "trial": 34, "rt": 783, "response": "Alpha"}, "33": {"stimulus": 30, "trial": 33, "rt": 1061, "response": "Alpha"}, "55": {"stimulus": 124, "trial": 55, "rt": 1501, "response": "Alpha"}, "74": {"stimulus": 2499, "trial": 74, "rt": 840, "response": "Alpha"}, "32": {"stimulus": 1812, "trial": 32, "rt": 1157, "response": "Alpha"}, "57": {"stimulus": 624, "trial": 57, "rt": 1085, "response": "Beta"}, "50": {"stimulus": 343, "trial": 50, "rt": 1022, "response": "Alpha"}}, "experiment": {"Paradigm": "TACL", "Stimuli": "Size-Color Squares", "Experiment": "Generating-Multiple-Categories"}, "submit": {"timeTotal": 767906, "age": "28", "comments": "GOOD", "sex": "MALE"}}