{"info": {"finish": 1548052113827, "participant": 139, "exposed": true, "lab": false, "start": 1548051741012, "counterbalance": 3, "gentype": 0, "condition": "XOR", "browser": {"platform": "Win32", "userAgent": "Mozilla/5.0 (Windows NT 10.0; Win64; x64) AppleWebKit/537.36 (KHTML, like Gecko) Chrome/71.0.3578.98 Safari/537.36"}}, "observation": {"11": {"stimulus": 403, "trial": 11, "rt": 1621}, "10": {"stimulus": 1479, "trial": 10, "rt": 1737}, "1": {"stimulus": 1479, "trial": 1, "rt": 3194}, "0": {"stimulus": 1890, "trial": 0, "rt": 2490}, "3": {"stimulus": 818, "trial": 3, "rt": 1774}, "2": {"stimulus": 403, "trial": 2, "rt": 2028}, "5": {"stimulus": 818, "trial": 5, "rt": 1971}, "4": {"stimulus": 403, "trial": 4, "rt": 5469}, "7": {"stimulus": 1479, "trial": 7, "rt": 1642}, "6": {"stimulus": 1890, "trial": 6, "rt": 34095}, "9": {"stimulus": 1890, "trial": 9, "rt": 1650}, "8": {"stimulus": 818, "trial": 8, "rt": 1805}}, "generation": {"1": {"category": "Not-Alpha", "trial": 1, "stimulus": 2246, "rt": 5169}, "0": {"category": "Not-Alpha", "trial": 0, "stimulus": 2450, "rt": 17846}, "3": {"category": "Not-Alpha", "trial": 3, "stimulus": 2234, "rt": 4050}, "2": {"category": "Not-Alpha", "trial": 2, "stimulus": 2237, "rt": 6240}, "5": {"category": "Not-Alpha", "trial": 5, "stimulus": 2209, "rt": 3781}, "4": {"category": "Not-Alpha", "trial": 4, "stimulus": 2226, "rt": 4240}, "7": {"category": "Not-Alpha", "trial": 7, "stimulus": 2249, "rt": 3658}, "6": {"category": "Not-Alpha", "trial": 6, "stimulus": 2481, "rt": 10681}}, "generalization": {"56": {"stimulus": 1530, "trial": 56, "rt": 1243, "response": "Beta"}, "77": {"stimulus": 624, "trial": 77, "rt": 916, "response": "Alpha"}, "54": {"stimulus": 468, "trial": 54, "rt": 1107, "response": "Alpha"}, "42": {"stimulus": 2468, "trial": 42, "rt": 832, "response": "Beta"}, "48": {"stimulus": 562, "trial": 48, "rt": 1000, "response": "Alpha"}, "43": {"stimulus": 1405, "trial": 43, "rt": 1112, "response": "Alpha"}, "60": {"stimulus": 1812, "trial": 60, "rt": 1796, "response": "Beta"}, "61": {"stimulus": 1780, "trial": 61, "rt": 2348, "response": "Beta"}, "62": {"stimulus": 1687, "trial": 62, "rt": 1261, "response": "Beta"}, "63": {"stimulus": 343, "trial": 63, "rt": 1225, "response": "Alpha"}, "64": {"stimulus": 405, "trial": 64, "rt": 1139, "response": "Alpha"}, "49": {"stimulus": 2343, "trial": 49, "rt": 844, "response": "Beta"}, "66": {"stimulus": 655, "trial": 66, "rt": 1317, "response": "Alpha"}, "67": {"stimulus": 1468, "trial": 67, "rt": 1053, "response": "Beta"}, "68": {"stimulus": 2374, "trial": 68, "rt": 1060, "response": "Beta"}, "69": {"stimulus": 1249, "trial": 69, "rt": 1424, "response": "Alpha"}, "80": {"stimulus": 249, "trial": 80, "rt": 1064, "response": "Alpha"}, "52": {"stimulus": 1999, "trial": 52, "rt": 944, "response": "Beta"}, "53": {"stimulus": 2249, "trial": 53, "rt": 1471, "response": "Beta"}, "24": {"stimulus": 1905, "trial": 24, "rt": 1353, "response": "Beta"}, "25": {"stimulus": 1124, "trial": 25, "rt": 1573, "response": "Alpha"}, "26": {"stimulus": 280, "trial": 26, "rt": 1446, "response": "Alpha"}, "27": {"stimulus": 780, "trial": 27, "rt": 1209, "response": "Alpha"}, "20": {"stimulus": 1093, "trial": 20, "rt": 1078, "response": "Alpha"}, "21": {"stimulus": 1624, "trial": 21, "rt": 1013, "response": "Beta"}, "22": {"stimulus": 1937, "trial": 22, "rt": 1006, "response": "Beta"}, "23": {"stimulus": 1218, "trial": 23, "rt": 1599, "response": "Alpha"}, "46": {"stimulus": 1343, "trial": 46, "rt": 1008, "response": "Alpha"}, "47": {"stimulus": 1968, "trial": 47, "rt": 890, "response": "Beta"}, "44": {"stimulus": 124, "trial": 44, "rt": 1098, "response": "Alpha"}, "45": {"stimulus": 2499, "trial": 45, "rt": 1066, "response": "Beta"}, "28": {"stimulus": 687, "trial": 28, "rt": 885, "response": "Beta"}, "29": {"stimulus": 312, "trial": 29, "rt": 925, "response": "Beta"}, "40": {"stimulus": 1312, "trial": 40, "rt": 941, "response": "Alpha"}, "41": {"stimulus": 2437, "trial": 41, "rt": 937, "response": "Beta"}, "1": {"stimulus": 1843, "trial": 1, "rt": 1338, "response": "Beta"}, "0": {"stimulus": 968, "trial": 0, "rt": 2075, "response": "Alpha"}, "3": {"stimulus": 2218, "trial": 3, "rt": 1509, "response": "Beta"}, "2": {"stimulus": 874, "trial": 2, "rt": 1248, "response": "Alpha"}, "5": {"stimulus": 2187, "trial": 5, "rt": 990, "response": "Beta"}, "4": {"stimulus": 2030, "trial": 4, "rt": 1155, "response": "Beta"}, "7": {"stimulus": 187, "trial": 7, "rt": 975, "response": "Alpha"}, "6": {"stimulus": 999, "trial": 6, "rt": 898, "response": "Alpha"}, "9": {"stimulus": 1874, "trial": 9, "rt": 1800, "response": "Beta"}, "8": {"stimulus": 1593, "trial": 8, "rt": 2113, "response": "Beta"}, "78": {"stimulus": 62, "trial": 78, "rt": 1112, "response": "Alpha"}, "51": {"stimulus": 1749, "trial": 51, "rt": 1814, "response": "Alpha"}, "39": {"stimulus": 2155, "trial": 39, "rt": 10897, "response": "Beta"}, "65": {"stimulus": 905, "trial": 65, "rt": 1426, "response": "Alpha"}, "76": {"stimulus": 2093, "trial": 76, "rt": 798, "response": "Beta"}, "75": {"stimulus": 1374, "trial": 75, "rt": 869, "response": "Alpha"}, "38": {"stimulus": 1062, "trial": 38, "rt": 2427, "response": "Beta"}, "73": {"stimulus": 2062, "trial": 73, "rt": 1014, "response": "Beta"}, "72": {"stimulus": 1718, "trial": 72, "rt": 1109, "response": "Beta"}, "71": {"stimulus": 1655, "trial": 71, "rt": 1649, "response": "Beta"}, "70": {"stimulus": 1280, "trial": 70, "rt": 4565, "response": "Alpha"}, "59": {"stimulus": 749, "trial": 59, "rt": 938, "response": "Alpha"}, "79": {"stimulus": 2312, "trial": 79, "rt": 1206, "response": "Beta"}, "58": {"stimulus": 2405, "trial": 58, "rt": 1305, "response": "Beta"}, "11": {"stimulus": 812, "trial": 11, "rt": 1444, "response": "Alpha"}, "10": {"stimulus": 593, "trial": 10, "rt": 1753, "response": "Alpha"}, "13": {"stimulus": 843, "trial": 13, "rt": 953, "response": "Alpha"}, "12": {"stimulus": 437, "trial": 12, "rt": 1237, "response": "Alpha"}, "15": {"stimulus": 1562, "trial": 15, "rt": 1197, "response": "Beta"}, "14": {"stimulus": 530, "trial": 14, "rt": 1506, "response": "Beta"}, "17": {"stimulus": 2280, "trial": 17, "rt": 1263, "response": "Beta"}, "16": {"stimulus": 0, "trial": 16, "rt": 1317, "response": "Beta"}, "19": {"stimulus": 937, "trial": 19, "rt": 884, "response": "Alpha"}, "18": {"stimulus": 93, "trial": 18, "rt": 1186, "response": "Alpha"}, "31": {"stimulus": 1155, "trial": 31, "rt": 1369, "response": "Beta"}, "30": {"stimulus": 218, "trial": 30, "rt": 1310, "response": "Beta"}, "37": {"stimulus": 1030, "trial": 37, "rt": 2192, "response": "Beta"}, "36": {"stimulus": 499, "trial": 36, "rt": 902, "response": "Alpha"}, "35": {"stimulus": 30, "trial": 35, "rt": 1240, "response": "Beta"}, "34": {"stimulus": 718, "trial": 34, "rt": 1072, "response": "Alpha"}, "33": {"stimulus": 1187, "trial": 33, "rt": 985, "response": "Alpha"}, "55": {"stimulus": 155, "trial": 55, "rt": 1159, "response": "Alpha"}, "74": {"stimulus": 1437, "trial": 74, "rt": 1031, "response": "Alpha"}, "32": {"stimulus": 1499, "trial": 32, "rt": 904, "response": "Alpha"}, "57": {"stimulus": 374, "trial": 57, "rt": 1150, "response": "Alpha"}, "50": {"stimulus": 2124, "trial": 50, "rt": 1213, "response": "Beta"}}, "experiment": {"Paradigm": "TACL", "Stimuli": "Size-Color Squares", "Experiment": "Generating-Multiple-Categories"}, "submit": {"timeTotal": 373148, "age": "35", "comments": "It was different... But fun", "sex": "Female"}}