{"info": {"finish": 1548064653071, "participant": 152, "exposed": true, "lab": false, "start": 1548064311763, "counterbalance": 2, "gentype": 1, "condition": "Cluster", "browser": {"platform": "Win32", "userAgent": "Mozilla/5.0 (Windows NT 6.1) AppleWebKit/537.36 (KHTML, like Gecko) Chrome/71.0.3578.98 Safari/537.36"}}, "observation": {"11": {"stimulus": 1083, "trial": 11, "rt": 4704}, "10": {"stimulus": 583, "trial": 10, "rt": 4256}, "1": {"stimulus": 1093, "trial": 1, "rt": 15637}, "0": {"stimulus": 1083, "trial": 0, "rt": 5269}, "3": {"stimulus": 583, "trial": 3, "rt": 1951}, "2": {"stimulus": 392, "trial": 2, "rt": 1913}, "5": {"stimulus": 583, "trial": 5, "rt": 4100}, "4": {"stimulus": 392, "trial": 4, "rt": 1471}, "7": {"stimulus": 1093, "trial": 7, "rt": 3527}, "6": {"stimulus": 1083, "trial": 6, "rt": 1407}, "9": {"stimulus": 1093, "trial": 9, "rt": 1528}, "8": {"stimulus": 392, "trial": 8, "rt": 13288}}, "generation": {"1": {"category": "Beta", "trial": 1, "stimulus": 2450, "rt": 7743}, "0": {"category": "Beta", "trial": 0, "stimulus": 1469, "rt": 4647}, "3": {"category": "Beta", "trial": 3, "stimulus": 835, "rt": 7286}, "2": {"category": "Beta", "trial": 2, "stimulus": 1874, "rt": 5669}, "5": {"category": "Beta", "trial": 5, "stimulus": 983, "rt": 6524}, "4": {"category": "Beta", "trial": 4, "stimulus": 788, "rt": 9556}, "7": {"category": "Beta", "trial": 7, "stimulus": 1385, "rt": 6546}, "6": {"category": "Beta", "trial": 6, "stimulus": 1084, "rt": 20061}}, "generalization": {"56": {"stimulus": 1937, "trial": 56, "rt": 2742, "response": "Beta"}, "77": {"stimulus": 1999, "trial": 77, "rt": 423, "response": "Beta"}, "54": {"stimulus": 343, "trial": 54, "rt": 2352, "response": "Alpha"}, "42": {"stimulus": 2155, "trial": 42, "rt": 632, "response": "Alpha"}, "48": {"stimulus": 624, "trial": 48, "rt": 831, "response": "Alpha"}, "43": {"stimulus": 30, "trial": 43, "rt": 869, "response": "Beta"}, "60": {"stimulus": 2124, "trial": 60, "rt": 15199, "response": "Beta"}, "61": {"stimulus": 1124, "trial": 61, "rt": 4616, "response": "Beta"}, "62": {"stimulus": 405, "trial": 62, "rt": 2062, "response": "Beta"}, "63": {"stimulus": 1343, "trial": 63, "rt": 590, "response": "Alpha"}, "64": {"stimulus": 1218, "trial": 64, "rt": 448, "response": "Beta"}, "49": {"stimulus": 718, "trial": 49, "rt": 375, "response": "Beta"}, "66": {"stimulus": 280, "trial": 66, "rt": 1255, "response": "Beta"}, "67": {"stimulus": 905, "trial": 67, "rt": 470, "response": "Alpha"}, "68": {"stimulus": 2405, "trial": 68, "rt": 406, "response": "Alpha"}, "69": {"stimulus": 155, "trial": 69, "rt": 519, "response": "Alpha"}, "80": {"stimulus": 2218, "trial": 80, "rt": 462, "response": "Beta"}, "52": {"stimulus": 2187, "trial": 52, "rt": 1455, "response": "Beta"}, "53": {"stimulus": 1905, "trial": 53, "rt": 1525, "response": "Beta"}, "24": {"stimulus": 937, "trial": 24, "rt": 576, "response": "Alpha"}, "25": {"stimulus": 1280, "trial": 25, "rt": 669, "response": "Alpha"}, "26": {"stimulus": 93, "trial": 26, "rt": 802, "response": "Alpha"}, "27": {"stimulus": 1843, "trial": 27, "rt": 446, "response": "Alpha"}, "20": {"stimulus": 1749, "trial": 20, "rt": 552, "response": "Beta"}, "21": {"stimulus": 999, "trial": 21, "rt": 415, "response": "Alpha"}, "22": {"stimulus": 1624, "trial": 22, "rt": 518, "response": "Alpha"}, "23": {"stimulus": 1655, "trial": 23, "rt": 341, "response": "Alpha"}, "46": {"stimulus": 2249, "trial": 46, "rt": 750, "response": "Beta"}, "47": {"stimulus": 2499, "trial": 47, "rt": 2823, "response": "Beta"}, "44": {"stimulus": 2374, "trial": 44, "rt": 1167, "response": "Alpha"}, "45": {"stimulus": 2062, "trial": 45, "rt": 503, "response": "Beta"}, "28": {"stimulus": 780, "trial": 28, "rt": 446, "response": "Alpha"}, "29": {"stimulus": 1062, "trial": 29, "rt": 1536, "response": "Alpha"}, "40": {"stimulus": 562, "trial": 40, "rt": 1157, "response": "Beta"}, "41": {"stimulus": 1812, "trial": 41, "rt": 541, "response": "Alpha"}, "1": {"stimulus": 1780, "trial": 1, "rt": 5542, "response": "Alpha"}, "0": {"stimulus": 1530, "trial": 0, "rt": 1331, "response": "Alpha"}, "3": {"stimulus": 1249, "trial": 3, "rt": 502, "response": "Alpha"}, "2": {"stimulus": 1499, "trial": 2, "rt": 2845, "response": "Alpha"}, "5": {"stimulus": 812, "trial": 5, "rt": 397, "response": "Alpha"}, "4": {"stimulus": 593, "trial": 4, "rt": 576, "response": "Alpha"}, "7": {"stimulus": 437, "trial": 7, "rt": 389, "response": "Beta"}, "6": {"stimulus": 874, "trial": 6, "rt": 416, "response": "Beta"}, "9": {"stimulus": 655, "trial": 9, "rt": 357, "response": "Beta"}, "8": {"stimulus": 1687, "trial": 8, "rt": 584, "response": "Alpha"}, "78": {"stimulus": 1312, "trial": 78, "rt": 454, "response": "Beta"}, "51": {"stimulus": 249, "trial": 51, "rt": 446, "response": "Beta"}, "39": {"stimulus": 2437, "trial": 39, "rt": 743, "response": "Beta"}, "65": {"stimulus": 968, "trial": 65, "rt": 720, "response": "Alpha"}, "76": {"stimulus": 1155, "trial": 76, "rt": 495, "response": "Beta"}, "75": {"stimulus": 1593, "trial": 75, "rt": 713, "response": "Beta"}, "38": {"stimulus": 2468, "trial": 38, "rt": 1542, "response": "Beta"}, "73": {"stimulus": 124, "trial": 73, "rt": 360, "response": "Beta"}, "72": {"stimulus": 1874, "trial": 72, "rt": 383, "response": "Alpha"}, "71": {"stimulus": 218, "trial": 71, "rt": 374, "response": "Beta"}, "70": {"stimulus": 374, "trial": 70, "rt": 1950, "response": "Alpha"}, "59": {"stimulus": 312, "trial": 59, "rt": 390, "response": "Beta"}, "79": {"stimulus": 468, "trial": 79, "rt": 446, "response": "Beta"}, "58": {"stimulus": 499, "trial": 58, "rt": 439, "response": "Beta"}, "11": {"stimulus": 2280, "trial": 11, "rt": 1701, "response": "Beta"}, "10": {"stimulus": 187, "trial": 10, "rt": 374, "response": "Alpha"}, "13": {"stimulus": 1437, "trial": 13, "rt": 524, "response": "Beta"}, "12": {"stimulus": 1030, "trial": 12, "rt": 550, "response": "Alpha"}, "15": {"stimulus": 1718, "trial": 15, "rt": 359, "response": "Beta"}, "14": {"stimulus": 2343, "trial": 14, "rt": 381, "response": "Alpha"}, "17": {"stimulus": 2093, "trial": 17, "rt": 11709, "response": "Beta"}, "16": {"stimulus": 687, "trial": 16, "rt": 509, "response": "Beta"}, "19": {"stimulus": 749, "trial": 19, "rt": 431, "response": "Beta"}, "18": {"stimulus": 1187, "trial": 18, "rt": 752, "response": "Beta"}, "31": {"stimulus": 1374, "trial": 31, "rt": 671, "response": "Beta"}, "30": {"stimulus": 1968, "trial": 30, "rt": 445, "response": "Alpha"}, "37": {"stimulus": 62, "trial": 37, "rt": 1174, "response": "Beta"}, "36": {"stimulus": 843, "trial": 36, "rt": 1574, "response": "Beta"}, "35": {"stimulus": 0, "trial": 35, "rt": 423, "response": "Beta"}, "34": {"stimulus": 1562, "trial": 34, "rt": 584, "response": "Beta"}, "33": {"stimulus": 530, "trial": 33, "rt": 408, "response": "Beta"}, "55": {"stimulus": 1093, "trial": 55, "rt": 1654, "response": "Beta"}, "74": {"stimulus": 1468, "trial": 74, "rt": 493, "response": "Beta"}, "32": {"stimulus": 2312, "trial": 32, "rt": 581, "response": "Beta"}, "57": {"stimulus": 2030, "trial": 57, "rt": 1621, "response": "Beta"}, "50": {"stimulus": 1405, "trial": 50, "rt": 454, "response": "Alpha"}}, "experiment": {"Paradigm": "TACL", "Stimuli": "Size-Color Squares", "Experiment": "Generating-Multiple-Categories"}, "submit": {"timeTotal": 343212, "age": "27", "comments": "good", "sex": "male"}}