{"info": {"finish": 1548071831865, "participant": 164, "exposed": true, "lab": false, "start": 1548071544637, "counterbalance": 4, "gentype": 0, "condition": "Cluster", "browser": {"platform": "Win32", "userAgent": "Mozilla/5.0 (Windows NT 10.0; Win64; x64) AppleWebKit/537.36 (KHTML, like Gecko) Chrome/71.0.3578.98 Safari/537.36"}}, "observation": {"11": {"stimulus": 1093, "trial": 11, "rt": 1373}, "10": {"stimulus": 392, "trial": 10, "rt": 1342}, "1": {"stimulus": 392, "trial": 1, "rt": 2351}, "0": {"stimulus": 1093, "trial": 0, "rt": 2578}, "3": {"stimulus": 1083, "trial": 3, "rt": 1868}, "2": {"stimulus": 583, "trial": 2, "rt": 1334}, "5": {"stimulus": 583, "trial": 5, "rt": 1376}, "4": {"stimulus": 1083, "trial": 4, "rt": 1356}, "7": {"stimulus": 1093, "trial": 7, "rt": 1381}, "6": {"stimulus": 392, "trial": 6, "rt": 1381}, "9": {"stimulus": 1083, "trial": 9, "rt": 1340}, "8": {"stimulus": 583, "trial": 8, "rt": 1359}}, "generation": {"1": {"category": "Not-Alpha", "trial": 1, "stimulus": 1750, "rt": 5780}, "0": {"category": "Not-Alpha", "trial": 0, "stimulus": 2450, "rt": 7372}, "3": {"category": "Not-Alpha", "trial": 3, "stimulus": 0, "rt": 3621}, "2": {"category": "Not-Alpha", "trial": 2, "stimulus": 1050, "rt": 3289}, "5": {"category": "Not-Alpha", "trial": 5, "stimulus": 1353, "rt": 6930}, "4": {"category": "Not-Alpha", "trial": 4, "stimulus": 505, "rt": 6055}, "7": {"category": "Not-Alpha", "trial": 7, "stimulus": 1200, "rt": 6826}, "6": {"category": "Not-Alpha", "trial": 6, "stimulus": 200, "rt": 4822}}, "generalization": {"56": {"stimulus": 1062, "trial": 56, "rt": 820, "response": "Beta"}, "77": {"stimulus": 468, "trial": 77, "rt": 1229, "response": "Alpha"}, "54": {"stimulus": 843, "trial": 54, "rt": 681, "response": "Alpha"}, "42": {"stimulus": 905, "trial": 42, "rt": 804, "response": "Beta"}, "48": {"stimulus": 1030, "trial": 48, "rt": 453, "response": "Alpha"}, "43": {"stimulus": 1874, "trial": 43, "rt": 972, "response": "Alpha"}, "60": {"stimulus": 1405, "trial": 60, "rt": 913, "response": "Beta"}, "61": {"stimulus": 624, "trial": 61, "rt": 1031, "response": "Alpha"}, "62": {"stimulus": 280, "trial": 62, "rt": 516, "response": "Alpha"}, "63": {"stimulus": 1155, "trial": 63, "rt": 792, "response": "Beta"}, "64": {"stimulus": 1343, "trial": 64, "rt": 493, "response": "Alpha"}, "49": {"stimulus": 124, "trial": 49, "rt": 870, "response": "Alpha"}, "66": {"stimulus": 530, "trial": 66, "rt": 696, "response": "Alpha"}, "67": {"stimulus": 249, "trial": 67, "rt": 1058, "response": "Alpha"}, "68": {"stimulus": 2062, "trial": 68, "rt": 949, "response": "Beta"}, "69": {"stimulus": 1780, "trial": 69, "rt": 489, "response": "Alpha"}, "80": {"stimulus": 2124, "trial": 80, "rt": 773, "response": "Alpha"}, "52": {"stimulus": 374, "trial": 52, "rt": 934, "response": "Alpha"}, "53": {"stimulus": 2249, "trial": 53, "rt": 552, "response": "Alpha"}, "24": {"stimulus": 1843, "trial": 24, "rt": 877, "response": "Alpha"}, "25": {"stimulus": 312, "trial": 25, "rt": 3678, "response": "Beta"}, "26": {"stimulus": 1187, "trial": 26, "rt": 832, "response": "Alpha"}, "27": {"stimulus": 1249, "trial": 27, "rt": 1597, "response": "Alpha"}, "20": {"stimulus": 1593, "trial": 20, "rt": 667, "response": "Alpha"}, "21": {"stimulus": 62, "trial": 21, "rt": 754, "response": "Alpha"}, "22": {"stimulus": 499, "trial": 22, "rt": 745, "response": "Alpha"}, "23": {"stimulus": 2405, "trial": 23, "rt": 956, "response": "Beta"}, "46": {"stimulus": 437, "trial": 46, "rt": 557, "response": "Alpha"}, "47": {"stimulus": 937, "trial": 47, "rt": 466, "response": "Alpha"}, "44": {"stimulus": 874, "trial": 44, "rt": 1742, "response": "Alpha"}, "45": {"stimulus": 2187, "trial": 45, "rt": 1037, "response": "Alpha"}, "28": {"stimulus": 1093, "trial": 28, "rt": 474, "response": "Alpha"}, "29": {"stimulus": 1812, "trial": 29, "rt": 1457, "response": "Alpha"}, "40": {"stimulus": 343, "trial": 40, "rt": 425, "response": "Alpha"}, "41": {"stimulus": 1468, "trial": 41, "rt": 1023, "response": "Alpha"}, "1": {"stimulus": 1280, "trial": 1, "rt": 496, "response": "Alpha"}, "0": {"stimulus": 187, "trial": 0, "rt": 1693, "response": "Alpha"}, "3": {"stimulus": 0, "trial": 3, "rt": 932, "response": "Beta"}, "2": {"stimulus": 1374, "trial": 2, "rt": 536, "response": "Alpha"}, "5": {"stimulus": 999, "trial": 5, "rt": 435, "response": "Alpha"}, "4": {"stimulus": 749, "trial": 4, "rt": 593, "response": "Alpha"}, "7": {"stimulus": 2468, "trial": 7, "rt": 1145, "response": "Alpha"}, "6": {"stimulus": 1655, "trial": 6, "rt": 839, "response": "Beta"}, "9": {"stimulus": 562, "trial": 9, "rt": 1018, "response": "Beta"}, "8": {"stimulus": 405, "trial": 8, "rt": 531, "response": "Alpha"}, "78": {"stimulus": 718, "trial": 78, "rt": 8789, "response": "Alpha"}, "51": {"stimulus": 1687, "trial": 51, "rt": 511, "response": "Alpha"}, "39": {"stimulus": 593, "trial": 39, "rt": 462, "response": "Alpha"}, "65": {"stimulus": 1530, "trial": 65, "rt": 585, "response": "Alpha"}, "76": {"stimulus": 812, "trial": 76, "rt": 831, "response": "Beta"}, "75": {"stimulus": 2437, "trial": 75, "rt": 626, "response": "Alpha"}, "38": {"stimulus": 2030, "trial": 38, "rt": 495, "response": "Alpha"}, "73": {"stimulus": 1905, "trial": 73, "rt": 863, "response": "Beta"}, "72": {"stimulus": 1499, "trial": 72, "rt": 605, "response": "Alpha"}, "71": {"stimulus": 1968, "trial": 71, "rt": 1156, "response": "Alpha"}, "70": {"stimulus": 1624, "trial": 70, "rt": 961, "response": "Alpha"}, "59": {"stimulus": 968, "trial": 59, "rt": 954, "response": "Alpha"}, "79": {"stimulus": 1437, "trial": 79, "rt": 869, "response": "Alpha"}, "58": {"stimulus": 1937, "trial": 58, "rt": 880, "response": "Alpha"}, "11": {"stimulus": 2374, "trial": 11, "rt": 885, "response": "Alpha"}, "10": {"stimulus": 2343, "trial": 10, "rt": 1385, "response": "Alpha"}, "13": {"stimulus": 1562, "trial": 13, "rt": 1621, "response": "Beta"}, "12": {"stimulus": 780, "trial": 12, "rt": 520, "response": "Alpha"}, "15": {"stimulus": 2280, "trial": 15, "rt": 705, "response": "Alpha"}, "14": {"stimulus": 687, "trial": 14, "rt": 542, "response": "Alpha"}, "17": {"stimulus": 1218, "trial": 17, "rt": 3537, "response": "Alpha"}, "16": {"stimulus": 1749, "trial": 16, "rt": 461, "response": "Alpha"}, "19": {"stimulus": 1718, "trial": 19, "rt": 1840, "response": "Alpha"}, "18": {"stimulus": 2155, "trial": 18, "rt": 686, "response": "Beta"}, "31": {"stimulus": 2093, "trial": 31, "rt": 1142, "response": "Alpha"}, "30": {"stimulus": 2312, "trial": 30, "rt": 868, "response": "Beta"}, "37": {"stimulus": 155, "trial": 37, "rt": 832, "response": "Beta"}, "36": {"stimulus": 1999, "trial": 36, "rt": 514, "response": "Alpha"}, "35": {"stimulus": 1312, "trial": 35, "rt": 1983, "response": "Beta"}, "34": {"stimulus": 93, "trial": 34, "rt": 1090, "response": "Alpha"}, "33": {"stimulus": 655, "trial": 33, "rt": 857, "response": "Beta"}, "55": {"stimulus": 1124, "trial": 55, "rt": 672, "response": "Alpha"}, "74": {"stimulus": 218, "trial": 74, "rt": 4466, "response": "Alpha"}, "32": {"stimulus": 2499, "trial": 32, "rt": 424, "response": "Alpha"}, "57": {"stimulus": 2218, "trial": 57, "rt": 1816, "response": "Alpha"}, "50": {"stimulus": 30, "trial": 50, "rt": 684, "response": "Alpha"}}, "experiment": {"Paradigm": "TACL", "Stimuli": "Size-Color Squares", "Experiment": "Generating-Multiple-Categories"}, "submit": {"timeTotal": 287497, "age": "26", "comments": "Some of those were right on the edge of being both.", "sex": "Male."}}