{"info": {"finish": 1548072503988, "participant": 166, "exposed": true, "lab": false, "start": 1548071956843, "counterbalance": 5, "gentype": 0, "condition": "Cluster", "browser": {"platform": "Win32", "userAgent": "Mozilla/5.0 (Windows NT 6.3; Win64; x64) AppleWebKit/537.36 (KHTML, like Gecko) Chrome/71.0.3578.98 Safari/537.36"}}, "observation": {"11": {"stimulus": 583, "trial": 11, "rt": 2222}, "10": {"stimulus": 1083, "trial": 10, "rt": 8679}, "1": {"stimulus": 392, "trial": 1, "rt": 2629}, "0": {"stimulus": 1093, "trial": 0, "rt": 3093}, "3": {"stimulus": 1083, "trial": 3, "rt": 1946}, "2": {"stimulus": 583, "trial": 2, "rt": 2007}, "5": {"stimulus": 583, "trial": 5, "rt": 2439}, "4": {"stimulus": 392, "trial": 4, "rt": 2257}, "7": {"stimulus": 1083, "trial": 7, "rt": 1808}, "6": {"stimulus": 1093, "trial": 6, "rt": 2136}, "9": {"stimulus": 392, "trial": 9, "rt": 2098}, "8": {"stimulus": 1093, "trial": 8, "rt": 1931}}, "generation": {"1": {"category": "Not-Alpha", "trial": 1, "stimulus": 483, "rt": 5806}, "0": {"category": "Not-Alpha", "trial": 0, "stimulus": 770, "rt": 4961}, "3": {"category": "Not-Alpha", "trial": 3, "stimulus": 627, "rt": 4402}, "2": {"category": "Not-Alpha", "trial": 2, "stimulus": 475, "rt": 10607}, "5": {"category": "Not-Alpha", "trial": 5, "stimulus": 772, "rt": 4318}, "4": {"category": "Not-Alpha", "trial": 4, "stimulus": 674, "rt": 4591}, "7": {"category": "Not-Alpha", "trial": 7, "stimulus": 527, "rt": 4758}, "6": {"category": "Not-Alpha", "trial": 6, "stimulus": 1084, "rt": 5116}}, "generalization": {"56": {"stimulus": 843, "trial": 56, "rt": 1191, "response": "Alpha"}, "77": {"stimulus": 2249, "trial": 77, "rt": 1508, "response": "Alpha"}, "54": {"stimulus": 187, "trial": 54, "rt": 64480, "response": "Alpha"}, "42": {"stimulus": 1280, "trial": 42, "rt": 1288, "response": "Alpha"}, "48": {"stimulus": 499, "trial": 48, "rt": 1598, "response": "Alpha"}, "43": {"stimulus": 1780, "trial": 43, "rt": 1440, "response": "Beta"}, "60": {"stimulus": 1843, "trial": 60, "rt": 1591, "response": "Alpha"}, "61": {"stimulus": 624, "trial": 61, "rt": 1578, "response": "Beta"}, "62": {"stimulus": 812, "trial": 62, "rt": 1430, "response": "Beta"}, "63": {"stimulus": 2030, "trial": 63, "rt": 1327, "response": "Beta"}, "64": {"stimulus": 468, "trial": 64, "rt": 2166, "response": "Beta"}, "49": {"stimulus": 749, "trial": 49, "rt": 1438, "response": "Alpha"}, "66": {"stimulus": 1187, "trial": 66, "rt": 857, "response": "Alpha"}, "67": {"stimulus": 2062, "trial": 67, "rt": 1578, "response": "Beta"}, "68": {"stimulus": 1312, "trial": 68, "rt": 1209, "response": "Beta"}, "69": {"stimulus": 2218, "trial": 69, "rt": 1129, "response": "Beta"}, "80": {"stimulus": 280, "trial": 80, "rt": 1836, "response": "Beta"}, "52": {"stimulus": 93, "trial": 52, "rt": 1321, "response": "Alpha"}, "53": {"stimulus": 218, "trial": 53, "rt": 11584, "response": "Beta"}, "24": {"stimulus": 1374, "trial": 24, "rt": 1136, "response": "Alpha"}, "25": {"stimulus": 1718, "trial": 25, "rt": 1843, "response": "Beta"}, "26": {"stimulus": 1062, "trial": 26, "rt": 1007, "response": "Beta"}, "27": {"stimulus": 593, "trial": 27, "rt": 1539, "response": "Alpha"}, "20": {"stimulus": 1968, "trial": 20, "rt": 1494, "response": "Beta"}, "21": {"stimulus": 1499, "trial": 21, "rt": 1098, "response": "Beta"}, "22": {"stimulus": 1624, "trial": 22, "rt": 1279, "response": "Beta"}, "23": {"stimulus": 2343, "trial": 23, "rt": 1350, "response": "Alpha"}, "46": {"stimulus": 1812, "trial": 46, "rt": 1595, "response": "Beta"}, "47": {"stimulus": 2405, "trial": 47, "rt": 1714, "response": "Beta"}, "44": {"stimulus": 1562, "trial": 44, "rt": 1055, "response": "Beta"}, "45": {"stimulus": 343, "trial": 45, "rt": 1698, "response": "Alpha"}, "28": {"stimulus": 2187, "trial": 28, "rt": 1457, "response": "Alpha"}, "29": {"stimulus": 874, "trial": 29, "rt": 1731, "response": "Alpha"}, "40": {"stimulus": 2499, "trial": 40, "rt": 1863, "response": "Alpha"}, "41": {"stimulus": 1343, "trial": 41, "rt": 1243, "response": "Alpha"}, "1": {"stimulus": 2280, "trial": 1, "rt": 1387, "response": "Beta"}, "0": {"stimulus": 1437, "trial": 0, "rt": 1783, "response": "Alpha"}, "3": {"stimulus": 1405, "trial": 3, "rt": 959, "response": "Alpha"}, "2": {"stimulus": 2468, "trial": 2, "rt": 1320, "response": "Alpha"}, "5": {"stimulus": 968, "trial": 5, "rt": 1189, "response": "Beta"}, "4": {"stimulus": 1155, "trial": 4, "rt": 968, "response": "Beta"}, "7": {"stimulus": 1030, "trial": 7, "rt": 1447, "response": "Alpha"}, "6": {"stimulus": 249, "trial": 6, "rt": 1658, "response": "Alpha"}, "9": {"stimulus": 124, "trial": 9, "rt": 2002, "response": "Alpha"}, "8": {"stimulus": 374, "trial": 8, "rt": 1080, "response": "Beta"}, "78": {"stimulus": 1655, "trial": 78, "rt": 1223, "response": "Beta"}, "51": {"stimulus": 1249, "trial": 51, "rt": 2230, "response": "Alpha"}, "39": {"stimulus": 2155, "trial": 39, "rt": 1169, "response": "Beta"}, "65": {"stimulus": 437, "trial": 65, "rt": 858, "response": "Alpha"}, "76": {"stimulus": 2437, "trial": 76, "rt": 1260, "response": "Alpha"}, "75": {"stimulus": 2124, "trial": 75, "rt": 1348, "response": "Beta"}, "38": {"stimulus": 1905, "trial": 38, "rt": 1717, "response": "Alpha"}, "73": {"stimulus": 1687, "trial": 73, "rt": 1528, "response": "Alpha"}, "72": {"stimulus": 718, "trial": 72, "rt": 795, "response": "Alpha"}, "71": {"stimulus": 1749, "trial": 71, "rt": 1213, "response": "Alpha"}, "70": {"stimulus": 530, "trial": 70, "rt": 1149, "response": "Beta"}, "59": {"stimulus": 62, "trial": 59, "rt": 1587, "response": "Beta"}, "79": {"stimulus": 937, "trial": 79, "rt": 1332, "response": "Alpha"}, "58": {"stimulus": 687, "trial": 58, "rt": 1922, "response": "Alpha"}, "11": {"stimulus": 1093, "trial": 11, "rt": 2050, "response": "Alpha"}, "10": {"stimulus": 1937, "trial": 10, "rt": 946, "response": "Beta"}, "13": {"stimulus": 1874, "trial": 13, "rt": 961, "response": "Alpha"}, "12": {"stimulus": 562, "trial": 12, "rt": 1105, "response": "Alpha"}, "15": {"stimulus": 999, "trial": 15, "rt": 989, "response": "Beta"}, "14": {"stimulus": 655, "trial": 14, "rt": 1175, "response": "Beta"}, "17": {"stimulus": 312, "trial": 17, "rt": 1716, "response": "Beta"}, "16": {"stimulus": 0, "trial": 16, "rt": 1509, "response": "Beta"}, "19": {"stimulus": 155, "trial": 19, "rt": 981, "response": "Alpha"}, "18": {"stimulus": 2312, "trial": 18, "rt": 1299, "response": "Beta"}, "31": {"stimulus": 30, "trial": 31, "rt": 1677, "response": "Beta"}, "30": {"stimulus": 905, "trial": 30, "rt": 1567, "response": "Beta"}, "37": {"stimulus": 1468, "trial": 37, "rt": 1542, "response": "Beta"}, "36": {"stimulus": 2093, "trial": 36, "rt": 909, "response": "Alpha"}, "35": {"stimulus": 1218, "trial": 35, "rt": 1119, "response": "Alpha"}, "34": {"stimulus": 780, "trial": 34, "rt": 1292, "response": "Alpha"}, "33": {"stimulus": 1530, "trial": 33, "rt": 1379, "response": "Beta"}, "55": {"stimulus": 1593, "trial": 55, "rt": 1352, "response": "Alpha"}, "74": {"stimulus": 405, "trial": 74, "rt": 1041, "response": "Beta"}, "32": {"stimulus": 2374, "trial": 32, "rt": 1547, "response": "Beta"}, "57": {"stimulus": 1999, "trial": 57, "rt": 2849, "response": "Alpha"}, "50": {"stimulus": 1124, "trial": 50, "rt": 6470, "response": "Beta"}}, "experiment": {"Paradigm": "TACL", "Stimuli": "Size-Color Squares", "Experiment": "Generating-Multiple-Categories"}, "submit": {"timeTotal": 547446, "age": "40", "comments": "good", "sex": "female"}}