{"info": {"finish": 1548076041397, "participant": 170, "exposed": true, "lab": false, "start": 1548075458309, "counterbalance": 0, "gentype": 2, "condition": "Cluster", "browser": {"platform": "Win32", "userAgent": "Mozilla/5.0 (Windows NT 6.1; Win64; x64) AppleWebKit/537.36 (KHTML, like Gecko) Chrome/71.0.3578.98 Safari/537.36"}}, "observation": {"11": {"stimulus": 1093, "trial": 11, "rt": 2337}, "10": {"stimulus": 1083, "trial": 10, "rt": 2390}, "1": {"stimulus": 392, "trial": 1, "rt": 4111}, "0": {"stimulus": 1093, "trial": 0, "rt": 3612}, "3": {"stimulus": 583, "trial": 3, "rt": 3806}, "2": {"stimulus": 1083, "trial": 2, "rt": 3585}, "5": {"stimulus": 583, "trial": 5, "rt": 3167}, "4": {"stimulus": 1093, "trial": 4, "rt": 2434}, "7": {"stimulus": 392, "trial": 7, "rt": 3006}, "6": {"stimulus": 1083, "trial": 6, "rt": 2724}, "9": {"stimulus": 583, "trial": 9, "rt": 3132}, "8": {"stimulus": 392, "trial": 8, "rt": 2428}}, "generation": {"1": {"category": "Beta", "trial": 1, "stimulus": 2400, "rt": 24198}, "0": {"category": "Beta", "trial": 0, "stimulus": 2459, "rt": 30036}, "3": {"category": "Beta", "trial": 3, "stimulus": 2155, "rt": 13317}, "2": {"category": "Beta", "trial": 2, "stimulus": 2253, "rt": 12106}, "5": {"category": "Gamma", "trial": 5, "stimulus": 181, "rt": 16021}, "4": {"category": "Gamma", "trial": 4, "stimulus": 31, "rt": 16678}, "7": {"category": "Gamma", "trial": 7, "stimulus": 198, "rt": 18433}, "6": {"category": "Gamma", "trial": 6, "stimulus": 88, "rt": 13409}}, "generalization": {"56": {"stimulus": 1312, "trial": 56, "rt": 1380, "response": "Alpha"}, "77": {"stimulus": 280, "trial": 77, "rt": 2692, "response": "Alpha"}, "54": {"stimulus": 1124, "trial": 54, "rt": 1678, "response": "Alpha"}, "42": {"stimulus": 1280, "trial": 42, "rt": 2513, "response": "Alpha"}, "48": {"stimulus": 1655, "trial": 48, "rt": 10002, "response": "Alpha"}, "43": {"stimulus": 1687, "trial": 43, "rt": 1527, "response": "Alpha"}, "60": {"stimulus": 624, "trial": 60, "rt": 1574, "response": "Alpha"}, "61": {"stimulus": 593, "trial": 61, "rt": 1887, "response": "Alpha"}, "62": {"stimulus": 937, "trial": 62, "rt": 1130, "response": "Alpha"}, "63": {"stimulus": 874, "trial": 63, "rt": 1165, "response": "Alpha"}, "64": {"stimulus": 1562, "trial": 64, "rt": 6659, "response": "Beta"}, "49": {"stimulus": 1405, "trial": 49, "rt": 1323, "response": "Alpha"}, "66": {"stimulus": 2374, "trial": 66, "rt": 997, "response": "Beta"}, "67": {"stimulus": 2124, "trial": 67, "rt": 1504, "response": "Beta"}, "68": {"stimulus": 1530, "trial": 68, "rt": 5096, "response": "Alpha"}, "69": {"stimulus": 718, "trial": 69, "rt": 1059, "response": "Alpha"}, "80": {"stimulus": 530, "trial": 80, "rt": 1152, "response": "Alpha"}, "52": {"stimulus": 687, "trial": 52, "rt": 3572, "response": "Gamma"}, "53": {"stimulus": 1437, "trial": 53, "rt": 4931, "response": "Gamma"}, "24": {"stimulus": 343, "trial": 24, "rt": 2759, "response": "Gamma"}, "25": {"stimulus": 0, "trial": 25, "rt": 1728, "response": "Alpha"}, "26": {"stimulus": 2468, "trial": 26, "rt": 1368, "response": "Beta"}, "27": {"stimulus": 1249, "trial": 27, "rt": 2513, "response": "Gamma"}, "20": {"stimulus": 968, "trial": 20, "rt": 1595, "response": "Alpha"}, "21": {"stimulus": 2155, "trial": 21, "rt": 1405, "response": "Beta"}, "22": {"stimulus": 437, "trial": 22, "rt": 1585, "response": "Alpha"}, "23": {"stimulus": 1624, "trial": 23, "rt": 2294, "response": "Beta"}, "46": {"stimulus": 1968, "trial": 46, "rt": 2309, "response": "Beta"}, "47": {"stimulus": 124, "trial": 47, "rt": 1102, "response": "Alpha"}, "44": {"stimulus": 2343, "trial": 44, "rt": 1571, "response": "Beta"}, "45": {"stimulus": 468, "trial": 45, "rt": 1084, "response": "Alpha"}, "28": {"stimulus": 405, "trial": 28, "rt": 1718, "response": "Alpha"}, "29": {"stimulus": 780, "trial": 29, "rt": 1646, "response": "Alpha"}, "40": {"stimulus": 1999, "trial": 40, "rt": 1902, "response": "Beta"}, "41": {"stimulus": 155, "trial": 41, "rt": 1322, "response": "Alpha"}, "1": {"stimulus": 562, "trial": 1, "rt": 3130, "response": "Alpha"}, "0": {"stimulus": 30, "trial": 0, "rt": 2813, "response": "Alpha"}, "3": {"stimulus": 905, "trial": 3, "rt": 3599, "response": "Beta"}, "2": {"stimulus": 1468, "trial": 2, "rt": 2157, "response": "Alpha"}, "5": {"stimulus": 374, "trial": 5, "rt": 2809, "response": "Alpha"}, "4": {"stimulus": 249, "trial": 4, "rt": 2367, "response": "Gamma"}, "7": {"stimulus": 2437, "trial": 7, "rt": 1059, "response": "Beta"}, "6": {"stimulus": 749, "trial": 6, "rt": 4655, "response": "Gamma"}, "9": {"stimulus": 1218, "trial": 9, "rt": 4249, "response": "Alpha"}, "8": {"stimulus": 655, "trial": 8, "rt": 2242, "response": "Beta"}, "78": {"stimulus": 1187, "trial": 78, "rt": 1348, "response": "Alpha"}, "51": {"stimulus": 2218, "trial": 51, "rt": 1208, "response": "Beta"}, "39": {"stimulus": 1905, "trial": 39, "rt": 1159, "response": "Beta"}, "65": {"stimulus": 312, "trial": 65, "rt": 1140, "response": "Alpha"}, "76": {"stimulus": 2187, "trial": 76, "rt": 2791, "response": "Beta"}, "75": {"stimulus": 1030, "trial": 75, "rt": 1260, "response": "Alpha"}, "38": {"stimulus": 1812, "trial": 38, "rt": 1687, "response": "Beta"}, "73": {"stimulus": 1874, "trial": 73, "rt": 5222, "response": "Alpha"}, "72": {"stimulus": 499, "trial": 72, "rt": 1532, "response": "Gamma"}, "71": {"stimulus": 2280, "trial": 71, "rt": 1047, "response": "Beta"}, "70": {"stimulus": 62, "trial": 70, "rt": 977, "response": "Alpha"}, "59": {"stimulus": 2499, "trial": 59, "rt": 913, "response": "Beta"}, "79": {"stimulus": 2405, "trial": 79, "rt": 1245, "response": "Beta"}, "58": {"stimulus": 1843, "trial": 58, "rt": 3851, "response": "Beta"}, "11": {"stimulus": 1374, "trial": 11, "rt": 4033, "response": "Alpha"}, "10": {"stimulus": 1062, "trial": 10, "rt": 2135, "response": "Alpha"}, "13": {"stimulus": 1093, "trial": 13, "rt": 2112, "response": "Alpha"}, "12": {"stimulus": 1937, "trial": 12, "rt": 2239, "response": "Beta"}, "15": {"stimulus": 1749, "trial": 15, "rt": 3883, "response": "Beta"}, "14": {"stimulus": 218, "trial": 14, "rt": 1119, "response": "Alpha"}, "17": {"stimulus": 1343, "trial": 17, "rt": 6509, "response": "Beta"}, "16": {"stimulus": 1718, "trial": 16, "rt": 2690, "response": "Beta"}, "19": {"stimulus": 1593, "trial": 19, "rt": 16134, "response": "Beta"}, "18": {"stimulus": 1155, "trial": 18, "rt": 5007, "response": "Alpha"}, "31": {"stimulus": 2312, "trial": 31, "rt": 1159, "response": "Beta"}, "30": {"stimulus": 2249, "trial": 30, "rt": 1459, "response": "Beta"}, "37": {"stimulus": 812, "trial": 37, "rt": 1489, "response": "Alpha"}, "36": {"stimulus": 1499, "trial": 36, "rt": 3680, "response": "Alpha"}, "35": {"stimulus": 93, "trial": 35, "rt": 1284, "response": "Alpha"}, "34": {"stimulus": 843, "trial": 34, "rt": 2462, "response": "Alpha"}, "33": {"stimulus": 999, "trial": 33, "rt": 4370, "response": "Gamma"}, "55": {"stimulus": 1780, "trial": 55, "rt": 4696, "response": "Alpha"}, "74": {"stimulus": 2030, "trial": 74, "rt": 1494, "response": "Alpha"}, "32": {"stimulus": 2062, "trial": 32, "rt": 2033, "response": "Beta"}, "57": {"stimulus": 187, "trial": 57, "rt": 4616, "response": "Gamma"}, "50": {"stimulus": 2093, "trial": 50, "rt": 1506, "response": "Beta"}}, "experiment": {"Paradigm": "TACL", "Stimuli": "Size-Color Squares", "Experiment": "Generating-Multiple-Categories"}, "submit": {"timeTotal": 583305, "age": "56", "comments": "It was interesting to complete.", "sex": "Male"}}