{"info": {"finish": 1548078761576, "participant": 173, "exposed": true, "lab": false, "start": 1548078157519, "counterbalance": 1, "gentype": 0, "condition": "XOR", "browser": {"platform": "Win32", "userAgent": "Mozilla/5.0 (Windows NT 6.1; Win64; x64) AppleWebKit/537.36 (KHTML, like Gecko) Chrome/71.0.3578.98 Safari/537.36"}}, "observation": {"11": {"stimulus": 1479, "trial": 11, "rt": 3178}, "10": {"stimulus": 1890, "trial": 10, "rt": 11978}, "1": {"stimulus": 1890, "trial": 1, "rt": 2816}, "0": {"stimulus": 1479, "trial": 0, "rt": 6251}, "3": {"stimulus": 403, "trial": 3, "rt": 3542}, "2": {"stimulus": 818, "trial": 2, "rt": 3335}, "5": {"stimulus": 1890, "trial": 5, "rt": 4706}, "4": {"stimulus": 1479, "trial": 4, "rt": 2571}, "7": {"stimulus": 818, "trial": 7, "rt": 2464}, "6": {"stimulus": 403, "trial": 6, "rt": 15849}, "9": {"stimulus": 403, "trial": 9, "rt": 1640}, "8": {"stimulus": 818, "trial": 8, "rt": 1847}}, "generation": {"1": {"category": "Not-Alpha", "trial": 1, "stimulus": 49, "rt": 7793}, "0": {"category": "Not-Alpha", "trial": 0, "stimulus": 2450, "rt": 25886}, "3": {"category": "Not-Alpha", "trial": 3, "stimulus": 2461, "rt": 15239}, "2": {"category": "Not-Alpha", "trial": 2, "stimulus": 2474, "rt": 11671}, "5": {"category": "Not-Alpha", "trial": 5, "stimulus": 1950, "rt": 22069}, "4": {"category": "Not-Alpha", "trial": 4, "stimulus": 36, "rt": 17419}, "7": {"category": "Not-Alpha", "trial": 7, "stimulus": 2499, "rt": 34510}, "6": {"category": "Not-Alpha", "trial": 6, "stimulus": 2462, "rt": 6071}}, "generalization": {"56": {"stimulus": 1655, "trial": 56, "rt": 1159, "response": "Beta"}, "77": {"stimulus": 1374, "trial": 77, "rt": 1651, "response": "Beta"}, "54": {"stimulus": 1343, "trial": 54, "rt": 2879, "response": "Alpha"}, "42": {"stimulus": 218, "trial": 42, "rt": 2573, "response": "Alpha"}, "48": {"stimulus": 155, "trial": 48, "rt": 1483, "response": "Alpha"}, "43": {"stimulus": 1155, "trial": 43, "rt": 1051, "response": "Beta"}, "60": {"stimulus": 2030, "trial": 60, "rt": 1603, "response": "Beta"}, "61": {"stimulus": 1562, "trial": 61, "rt": 1150, "response": "Beta"}, "62": {"stimulus": 530, "trial": 62, "rt": 2378, "response": "Alpha"}, "63": {"stimulus": 2405, "trial": 63, "rt": 1016, "response": "Beta"}, "64": {"stimulus": 937, "trial": 64, "rt": 8077, "response": "Alpha"}, "49": {"stimulus": 2280, "trial": 49, "rt": 1920, "response": "Beta"}, "66": {"stimulus": 2437, "trial": 66, "rt": 1334, "response": "Beta"}, "67": {"stimulus": 1749, "trial": 67, "rt": 2111, "response": "Alpha"}, "68": {"stimulus": 1687, "trial": 68, "rt": 1641, "response": "Alpha"}, "69": {"stimulus": 968, "trial": 69, "rt": 1192, "response": "Beta"}, "80": {"stimulus": 1062, "trial": 80, "rt": 1089, "response": "Beta"}, "52": {"stimulus": 655, "trial": 52, "rt": 5028, "response": "Beta"}, "53": {"stimulus": 499, "trial": 53, "rt": 1710, "response": "Beta"}, "24": {"stimulus": 468, "trial": 24, "rt": 3231, "response": "Alpha"}, "25": {"stimulus": 2187, "trial": 25, "rt": 6573, "response": "Alpha"}, "26": {"stimulus": 374, "trial": 26, "rt": 2910, "response": "Alpha"}, "27": {"stimulus": 687, "trial": 27, "rt": 3794, "response": "Beta"}, "20": {"stimulus": 749, "trial": 20, "rt": 2709, "response": "Alpha"}, "21": {"stimulus": 1249, "trial": 21, "rt": 1575, "response": "Alpha"}, "22": {"stimulus": 812, "trial": 22, "rt": 5820, "response": "Beta"}, "23": {"stimulus": 343, "trial": 23, "rt": 3883, "response": "Beta"}, "46": {"stimulus": 2093, "trial": 46, "rt": 2863, "response": "Alpha"}, "47": {"stimulus": 93, "trial": 47, "rt": 3841, "response": "Beta"}, "44": {"stimulus": 1812, "trial": 44, "rt": 1833, "response": "Beta"}, "45": {"stimulus": 2249, "trial": 45, "rt": 13525, "response": "Beta"}, "28": {"stimulus": 905, "trial": 28, "rt": 5251, "response": "Beta"}, "29": {"stimulus": 624, "trial": 29, "rt": 2449, "response": "Alpha"}, "40": {"stimulus": 124, "trial": 40, "rt": 5360, "response": "Alpha"}, "41": {"stimulus": 1624, "trial": 41, "rt": 1246, "response": "Beta"}, "1": {"stimulus": 2343, "trial": 1, "rt": 3940, "response": "Alpha"}, "0": {"stimulus": 437, "trial": 0, "rt": 11156, "response": "Alpha"}, "3": {"stimulus": 1937, "trial": 3, "rt": 3294, "response": "Beta"}, "2": {"stimulus": 874, "trial": 2, "rt": 3293, "response": "Alpha"}, "5": {"stimulus": 1187, "trial": 5, "rt": 8327, "response": "Alpha"}, "4": {"stimulus": 405, "trial": 4, "rt": 2750, "response": "Alpha"}, "7": {"stimulus": 1718, "trial": 7, "rt": 2282, "response": "Beta"}, "6": {"stimulus": 593, "trial": 6, "rt": 3012, "response": "Alpha"}, "9": {"stimulus": 1499, "trial": 9, "rt": 6333, "response": "Alpha"}, "8": {"stimulus": 2218, "trial": 8, "rt": 1139, "response": "Beta"}, "78": {"stimulus": 843, "trial": 78, "rt": 3284, "response": "Beta"}, "51": {"stimulus": 62, "trial": 51, "rt": 1649, "response": "Alpha"}, "39": {"stimulus": 1843, "trial": 39, "rt": 1730, "response": "Alpha"}, "65": {"stimulus": 1093, "trial": 65, "rt": 2213, "response": "Alpha"}, "76": {"stimulus": 1968, "trial": 76, "rt": 1414, "response": "Beta"}, "75": {"stimulus": 280, "trial": 75, "rt": 1201, "response": "Alpha"}, "38": {"stimulus": 2062, "trial": 38, "rt": 1453, "response": "Beta"}, "73": {"stimulus": 999, "trial": 73, "rt": 2913, "response": "Beta"}, "72": {"stimulus": 1874, "trial": 72, "rt": 1127, "response": "Beta"}, "71": {"stimulus": 1124, "trial": 71, "rt": 3251, "response": "Beta"}, "70": {"stimulus": 2374, "trial": 70, "rt": 1196, "response": "Beta"}, "59": {"stimulus": 30, "trial": 59, "rt": 6714, "response": "Alpha"}, "79": {"stimulus": 1280, "trial": 79, "rt": 2609, "response": "Beta"}, "58": {"stimulus": 249, "trial": 58, "rt": 8833, "response": "Beta"}, "11": {"stimulus": 2499, "trial": 11, "rt": 1464, "response": "Beta"}, "10": {"stimulus": 1999, "trial": 10, "rt": 1987, "response": "Alpha"}, "13": {"stimulus": 1218, "trial": 13, "rt": 2879, "response": "Alpha"}, "12": {"stimulus": 312, "trial": 12, "rt": 2045, "response": "Alpha"}, "15": {"stimulus": 2155, "trial": 15, "rt": 1100, "response": "Beta"}, "14": {"stimulus": 1405, "trial": 14, "rt": 1214, "response": "Beta"}, "17": {"stimulus": 2312, "trial": 17, "rt": 1652, "response": "Beta"}, "16": {"stimulus": 562, "trial": 16, "rt": 1994, "response": "Alpha"}, "19": {"stimulus": 0, "trial": 19, "rt": 1970, "response": "Alpha"}, "18": {"stimulus": 187, "trial": 18, "rt": 3114, "response": "Alpha"}, "31": {"stimulus": 718, "trial": 31, "rt": 4647, "response": "Beta"}, "30": {"stimulus": 780, "trial": 30, "rt": 1044, "response": "Alpha"}, "37": {"stimulus": 1780, "trial": 37, "rt": 5171, "response": "Beta"}, "36": {"stimulus": 1030, "trial": 36, "rt": 2663, "response": "Alpha"}, "35": {"stimulus": 2468, "trial": 35, "rt": 1486, "response": "Beta"}, "34": {"stimulus": 1530, "trial": 34, "rt": 4420, "response": "Alpha"}, "33": {"stimulus": 1312, "trial": 33, "rt": 1671, "response": "Beta"}, "55": {"stimulus": 2124, "trial": 55, "rt": 2827, "response": "Beta"}, "74": {"stimulus": 1905, "trial": 74, "rt": 1415, "response": "Beta"}, "32": {"stimulus": 1437, "trial": 32, "rt": 4525, "response": "Alpha"}, "57": {"stimulus": 1468, "trial": 57, "rt": 1926, "response": "Beta"}, "50": {"stimulus": 1593, "trial": 50, "rt": 4510, "response": "Alpha"}}, "experiment": {"Paradigm": "TACL", "Stimuli": "Size-Color Squares", "Experiment": "Generating-Multiple-Categories"}, "submit": {"timeTotal": 604192, "age": "32", "comments": "A tad difficult to discern differences between size without additional context. It might be better to surround the image with a frame that remains consistent throughout the experiment. This makes it easier to see if and when the object changes sizes.", "sex": "Male"}}