{"info": {"finish": 1548078508021, "participant": 174, "exposed": true, "lab": false, "start": 1548078181495, "counterbalance": 4, "gentype": 2, "condition": "Row", "browser": {"platform": "Win32", "userAgent": "Mozilla/5.0 (Windows NT 6.3; Win64; x64) AppleWebKit/537.36 (KHTML, like Gecko) Chrome/71.0.3578.98 Safari/537.36"}}, "observation": {"11": {"stimulus": 421, "trial": 11, "rt": 1592}, "10": {"stimulus": 493, "trial": 10, "rt": 1879}, "1": {"stimulus": 493, "trial": 1, "rt": 2780}, "0": {"stimulus": 612, "trial": 0, "rt": 7630}, "3": {"stimulus": 421, "trial": 3, "rt": 1941}, "2": {"stimulus": 582, "trial": 2, "rt": 2785}, "5": {"stimulus": 582, "trial": 5, "rt": 1715}, "4": {"stimulus": 421, "trial": 4, "rt": 1693}, "7": {"stimulus": 612, "trial": 7, "rt": 2429}, "6": {"stimulus": 493, "trial": 6, "rt": 1923}, "9": {"stimulus": 612, "trial": 9, "rt": 1436}, "8": {"stimulus": 582, "trial": 8, "rt": 1429}}, "generation": {"1": {"category": "Beta", "trial": 1, "stimulus": 44, "rt": 9910}, "0": {"category": "Beta", "trial": 0, "stimulus": 49, "rt": 14595}, "3": {"category": "Beta", "trial": 3, "stimulus": 43, "rt": 9292}, "2": {"category": "Beta", "trial": 2, "stimulus": 47, "rt": 5363}, "5": {"category": "Gamma", "trial": 5, "stimulus": 2452, "rt": 4770}, "4": {"category": "Gamma", "trial": 4, "stimulus": 2450, "rt": 4713}, "7": {"category": "Gamma", "trial": 7, "stimulus": 2460, "rt": 5673}, "6": {"category": "Gamma", "trial": 6, "stimulus": 2457, "rt": 4118}}, "generalization": {"56": {"stimulus": 2437, "trial": 56, "rt": 1220, "response": "Gamma"}, "77": {"stimulus": 1562, "trial": 77, "rt": 777, "response": "Gamma"}, "54": {"stimulus": 1937, "trial": 54, "rt": 1172, "response": "Gamma"}, "42": {"stimulus": 1468, "trial": 42, "rt": 953, "response": "Gamma"}, "48": {"stimulus": 437, "trial": 48, "rt": 1738, "response": "Alpha"}, "43": {"stimulus": 2280, "trial": 43, "rt": 938, "response": "Gamma"}, "60": {"stimulus": 155, "trial": 60, "rt": 671, "response": "Alpha"}, "61": {"stimulus": 1093, "trial": 61, "rt": 2160, "response": "Alpha"}, "62": {"stimulus": 2124, "trial": 62, "rt": 898, "response": "Gamma"}, "63": {"stimulus": 2062, "trial": 63, "rt": 1050, "response": "Gamma"}, "64": {"stimulus": 2155, "trial": 64, "rt": 650, "response": "Gamma"}, "49": {"stimulus": 1718, "trial": 49, "rt": 1068, "response": "Gamma"}, "66": {"stimulus": 843, "trial": 66, "rt": 639, "response": "Alpha"}, "67": {"stimulus": 93, "trial": 67, "rt": 538, "response": "Alpha"}, "68": {"stimulus": 187, "trial": 68, "rt": 713, "response": "Beta"}, "69": {"stimulus": 1249, "trial": 69, "rt": 1507, "response": "Alpha"}, "80": {"stimulus": 2187, "trial": 80, "rt": 544, "response": "Gamma"}, "52": {"stimulus": 374, "trial": 52, "rt": 575, "response": "Beta"}, "53": {"stimulus": 562, "trial": 53, "rt": 525, "response": "Beta"}, "24": {"stimulus": 1374, "trial": 24, "rt": 555, "response": "Alpha"}, "25": {"stimulus": 1218, "trial": 25, "rt": 2346, "response": "Alpha"}, "26": {"stimulus": 280, "trial": 26, "rt": 10940, "response": "Beta"}, "27": {"stimulus": 968, "trial": 27, "rt": 954, "response": "Alpha"}, "20": {"stimulus": 218, "trial": 20, "rt": 1260, "response": "Alpha"}, "21": {"stimulus": 2093, "trial": 21, "rt": 1587, "response": "Gamma"}, "22": {"stimulus": 1280, "trial": 22, "rt": 835, "response": "Beta"}, "23": {"stimulus": 1437, "trial": 23, "rt": 795, "response": "Alpha"}, "46": {"stimulus": 1655, "trial": 46, "rt": 673, "response": "Gamma"}, "47": {"stimulus": 1062, "trial": 47, "rt": 1662, "response": "Alpha"}, "44": {"stimulus": 499, "trial": 44, "rt": 1404, "response": "Alpha"}, "45": {"stimulus": 2218, "trial": 45, "rt": 1083, "response": "Gamma"}, "28": {"stimulus": 343, "trial": 28, "rt": 922, "response": "Beta"}, "29": {"stimulus": 468, "trial": 29, "rt": 1066, "response": "Alpha"}, "40": {"stimulus": 1405, "trial": 40, "rt": 952, "response": "Alpha"}, "41": {"stimulus": 405, "trial": 41, "rt": 810, "response": "Alpha"}, "1": {"stimulus": 1968, "trial": 1, "rt": 4367, "response": "Gamma"}, "0": {"stimulus": 874, "trial": 0, "rt": 1539, "response": "Alpha"}, "3": {"stimulus": 1499, "trial": 3, "rt": 1554, "response": "Alpha"}, "2": {"stimulus": 1530, "trial": 2, "rt": 3030, "response": "Gamma"}, "5": {"stimulus": 312, "trial": 5, "rt": 1568, "response": "Alpha"}, "4": {"stimulus": 2343, "trial": 4, "rt": 1681, "response": "Gamma"}, "7": {"stimulus": 999, "trial": 7, "rt": 1087, "response": "Beta"}, "6": {"stimulus": 1593, "trial": 6, "rt": 1497, "response": "Alpha"}, "9": {"stimulus": 593, "trial": 9, "rt": 2128, "response": "Beta"}, "8": {"stimulus": 2374, "trial": 8, "rt": 1014, "response": "Gamma"}, "78": {"stimulus": 2312, "trial": 78, "rt": 778, "response": "Gamma"}, "51": {"stimulus": 62, "trial": 51, "rt": 1107, "response": "Beta"}, "39": {"stimulus": 0, "trial": 39, "rt": 784, "response": "Beta"}, "65": {"stimulus": 655, "trial": 65, "rt": 1312, "response": "Alpha"}, "76": {"stimulus": 2468, "trial": 76, "rt": 647, "response": "Gamma"}, "75": {"stimulus": 1812, "trial": 75, "rt": 521, "response": "Gamma"}, "38": {"stimulus": 937, "trial": 38, "rt": 898, "response": "Beta"}, "73": {"stimulus": 2405, "trial": 73, "rt": 930, "response": "Gamma"}, "72": {"stimulus": 780, "trial": 72, "rt": 1015, "response": "Alpha"}, "71": {"stimulus": 1155, "trial": 71, "rt": 1294, "response": "Alpha"}, "70": {"stimulus": 1749, "trial": 70, "rt": 1617, "response": "Gamma"}, "59": {"stimulus": 249, "trial": 59, "rt": 1114, "response": "Alpha"}, "79": {"stimulus": 2499, "trial": 79, "rt": 551, "response": "Gamma"}, "58": {"stimulus": 1312, "trial": 58, "rt": 607, "response": "Gamma"}, "11": {"stimulus": 1343, "trial": 11, "rt": 801, "response": "Alpha"}, "10": {"stimulus": 1124, "trial": 10, "rt": 1076, "response": "Alpha"}, "13": {"stimulus": 30, "trial": 13, "rt": 956, "response": "Beta"}, "12": {"stimulus": 687, "trial": 12, "rt": 1521, "response": "Beta"}, "15": {"stimulus": 2030, "trial": 15, "rt": 1231, "response": "Gamma"}, "14": {"stimulus": 812, "trial": 14, "rt": 1611, "response": "Alpha"}, "17": {"stimulus": 1687, "trial": 17, "rt": 748, "response": "Gamma"}, "16": {"stimulus": 2249, "trial": 16, "rt": 609, "response": "Gamma"}, "19": {"stimulus": 718, "trial": 19, "rt": 1462, "response": "Alpha"}, "18": {"stimulus": 1999, "trial": 18, "rt": 545, "response": "Gamma"}, "31": {"stimulus": 624, "trial": 31, "rt": 697, "response": "Alpha"}, "30": {"stimulus": 530, "trial": 30, "rt": 671, "response": "Alpha"}, "37": {"stimulus": 1843, "trial": 37, "rt": 1084, "response": "Gamma"}, "36": {"stimulus": 124, "trial": 36, "rt": 1066, "response": "Beta"}, "35": {"stimulus": 1187, "trial": 35, "rt": 1647, "response": "Alpha"}, "34": {"stimulus": 749, "trial": 34, "rt": 1379, "response": "Alpha"}, "33": {"stimulus": 1624, "trial": 33, "rt": 850, "response": "Alpha"}, "55": {"stimulus": 1030, "trial": 55, "rt": 1018, "response": "Alpha"}, "74": {"stimulus": 1874, "trial": 74, "rt": 519, "response": "Gamma"}, "32": {"stimulus": 905, "trial": 32, "rt": 905, "response": "Alpha"}, "57": {"stimulus": 1905, "trial": 57, "rt": 711, "response": "Gamma"}, "50": {"stimulus": 1780, "trial": 50, "rt": 649, "response": "Gamma"}}, "experiment": {"Paradigm": "TACL", "Stimuli": "Size-Color Squares", "Experiment": "Generating-Multiple-Categories"}, "submit": {"timeTotal": 326803, "age": "36", "comments": "", "sex": "female"}}