{"info": {"finish": 1548078685212, "participant": 175, "exposed": true, "lab": false, "start": 1548078303090, "counterbalance": 7, "gentype": 1, "condition": "XOR", "browser": {"platform": "Win32", "userAgent": "Mozilla/5.0 (Windows NT 6.1) AppleWebKit/537.36 (KHTML, like Gecko) Chrome/72.0.3626.64 Safari/537.36"}}, "observation": {"11": {"stimulus": 1890, "trial": 11, "rt": 2895}, "10": {"stimulus": 818, "trial": 10, "rt": 3569}, "1": {"stimulus": 1479, "trial": 1, "rt": 4190}, "0": {"stimulus": 818, "trial": 0, "rt": 3128}, "3": {"stimulus": 1890, "trial": 3, "rt": 7735}, "2": {"stimulus": 403, "trial": 2, "rt": 2375}, "5": {"stimulus": 818, "trial": 5, "rt": 1958}, "4": {"stimulus": 403, "trial": 4, "rt": 1887}, "7": {"stimulus": 1890, "trial": 7, "rt": 1655}, "6": {"stimulus": 1479, "trial": 6, "rt": 2214}, "9": {"stimulus": 1479, "trial": 9, "rt": 2357}, "8": {"stimulus": 403, "trial": 8, "rt": 1671}}, "generation": {"1": {"category": "Beta", "trial": 1, "stimulus": 1634, "rt": 6637}, "0": {"category": "Beta", "trial": 0, "stimulus": 1583, "rt": 13190}, "3": {"category": "Beta", "trial": 3, "stimulus": 920, "rt": 11893}, "2": {"category": "Beta", "trial": 2, "stimulus": 300, "rt": 6343}, "5": {"category": "Beta", "trial": 5, "stimulus": 714, "rt": 5496}, "4": {"category": "Beta", "trial": 4, "stimulus": 458, "rt": 8141}, "7": {"category": "Beta", "trial": 7, "stimulus": 706, "rt": 6990}, "6": {"category": "Beta", "trial": 6, "stimulus": 849, "rt": 7942}}, "generalization": {"56": {"stimulus": 999, "trial": 56, "rt": 935, "response": "Beta"}, "77": {"stimulus": 1093, "trial": 77, "rt": 4110, "response": "Beta"}, "54": {"stimulus": 124, "trial": 54, "rt": 303, "response": "Alpha"}, "42": {"stimulus": 624, "trial": 42, "rt": 487, "response": "Alpha"}, "48": {"stimulus": 1749, "trial": 48, "rt": 1717, "response": "Alpha"}, "43": {"stimulus": 1593, "trial": 43, "rt": 559, "response": "Alpha"}, "60": {"stimulus": 499, "trial": 60, "rt": 927, "response": "Alpha"}, "61": {"stimulus": 1312, "trial": 61, "rt": 5321, "response": "Beta"}, "62": {"stimulus": 1280, "trial": 62, "rt": 959, "response": "Beta"}, "63": {"stimulus": 1343, "trial": 63, "rt": 838, "response": "Alpha"}, "64": {"stimulus": 780, "trial": 64, "rt": 695, "response": "Beta"}, "49": {"stimulus": 2312, "trial": 49, "rt": 1543, "response": "Alpha"}, "66": {"stimulus": 249, "trial": 66, "rt": 478, "response": "Alpha"}, "67": {"stimulus": 1937, "trial": 67, "rt": 4366, "response": "Beta"}, "68": {"stimulus": 1655, "trial": 68, "rt": 1095, "response": "Alpha"}, "69": {"stimulus": 905, "trial": 69, "rt": 823, "response": "Alpha"}, "80": {"stimulus": 749, "trial": 80, "rt": 783, "response": "Alpha"}, "52": {"stimulus": 405, "trial": 52, "rt": 566, "response": "Alpha"}, "53": {"stimulus": 530, "trial": 53, "rt": 350, "response": "Alpha"}, "24": {"stimulus": 874, "trial": 24, "rt": 25144, "response": "Alpha"}, "25": {"stimulus": 1499, "trial": 25, "rt": 1215, "response": "Beta"}, "26": {"stimulus": 2187, "trial": 26, "rt": 767, "response": "Alpha"}, "27": {"stimulus": 593, "trial": 27, "rt": 966, "response": "Beta"}, "20": {"stimulus": 2437, "trial": 20, "rt": 928, "response": "Alpha"}, "21": {"stimulus": 2062, "trial": 21, "rt": 1087, "response": "Alpha"}, "22": {"stimulus": 1687, "trial": 22, "rt": 1215, "response": "Alpha"}, "23": {"stimulus": 1218, "trial": 23, "rt": 967, "response": "Alpha"}, "46": {"stimulus": 1905, "trial": 46, "rt": 302, "response": "Beta"}, "47": {"stimulus": 437, "trial": 47, "rt": 439, "response": "Beta"}, "44": {"stimulus": 2093, "trial": 44, "rt": 510, "response": "Beta"}, "45": {"stimulus": 155, "trial": 45, "rt": 350, "response": "Beta"}, "28": {"stimulus": 968, "trial": 28, "rt": 6110, "response": "Alpha"}, "29": {"stimulus": 1812, "trial": 29, "rt": 783, "response": "Beta"}, "40": {"stimulus": 1187, "trial": 40, "rt": 326, "response": "Alpha"}, "41": {"stimulus": 0, "trial": 41, "rt": 743, "response": "Alpha"}, "1": {"stimulus": 374, "trial": 1, "rt": 1374, "response": "Alpha"}, "0": {"stimulus": 2343, "trial": 0, "rt": 13149, "response": "Alpha"}, "3": {"stimulus": 687, "trial": 3, "rt": 1207, "response": "Beta"}, "2": {"stimulus": 218, "trial": 2, "rt": 711, "response": "Beta"}, "5": {"stimulus": 1155, "trial": 5, "rt": 1351, "response": "Alpha"}, "4": {"stimulus": 1405, "trial": 4, "rt": 823, "response": "Alpha"}, "7": {"stimulus": 937, "trial": 7, "rt": 1582, "response": "Alpha"}, "6": {"stimulus": 1468, "trial": 6, "rt": 5663, "response": "Alpha"}, "9": {"stimulus": 2374, "trial": 9, "rt": 663, "response": "Beta"}, "8": {"stimulus": 2499, "trial": 8, "rt": 1510, "response": "Beta"}, "78": {"stimulus": 2280, "trial": 78, "rt": 1039, "response": "Alpha"}, "51": {"stimulus": 1874, "trial": 51, "rt": 20080, "response": "Alpha"}, "39": {"stimulus": 2468, "trial": 39, "rt": 423, "response": "Alpha"}, "65": {"stimulus": 30, "trial": 65, "rt": 478, "response": "Alpha"}, "76": {"stimulus": 62, "trial": 76, "rt": 735, "response": "Alpha"}, "75": {"stimulus": 1249, "trial": 75, "rt": 598, "response": "Beta"}, "38": {"stimulus": 1437, "trial": 38, "rt": 1190, "response": "Beta"}, "73": {"stimulus": 1530, "trial": 73, "rt": 8035, "response": "Beta"}, "72": {"stimulus": 843, "trial": 72, "rt": 511, "response": "Alpha"}, "71": {"stimulus": 1718, "trial": 71, "rt": 695, "response": "Alpha"}, "70": {"stimulus": 562, "trial": 70, "rt": 895, "response": "Beta"}, "59": {"stimulus": 2218, "trial": 59, "rt": 704, "response": "Beta"}, "79": {"stimulus": 812, "trial": 79, "rt": 1191, "response": "Alpha"}, "58": {"stimulus": 1562, "trial": 58, "rt": 999, "response": "Alpha"}, "11": {"stimulus": 1999, "trial": 11, "rt": 663, "response": "Alpha"}, "10": {"stimulus": 2405, "trial": 10, "rt": 1743, "response": "Beta"}, "13": {"stimulus": 93, "trial": 13, "rt": 1718, "response": "Alpha"}, "12": {"stimulus": 2155, "trial": 12, "rt": 1616, "response": "Alpha"}, "15": {"stimulus": 343, "trial": 15, "rt": 670, "response": "Beta"}, "14": {"stimulus": 2124, "trial": 14, "rt": 615, "response": "Alpha"}, "17": {"stimulus": 1843, "trial": 17, "rt": 679, "response": "Alpha"}, "16": {"stimulus": 1624, "trial": 16, "rt": 726, "response": "Alpha"}, "19": {"stimulus": 312, "trial": 19, "rt": 1887, "response": "Beta"}, "18": {"stimulus": 1374, "trial": 18, "rt": 15510, "response": "Beta"}, "31": {"stimulus": 2030, "trial": 31, "rt": 391, "response": "Alpha"}, "30": {"stimulus": 1968, "trial": 30, "rt": 511, "response": "Alpha"}, "37": {"stimulus": 718, "trial": 37, "rt": 374, "response": "Alpha"}, "36": {"stimulus": 2249, "trial": 36, "rt": 343, "response": "Alpha"}, "35": {"stimulus": 1030, "trial": 35, "rt": 383, "response": "Alpha"}, "34": {"stimulus": 468, "trial": 34, "rt": 615, "response": "Alpha"}, "33": {"stimulus": 1062, "trial": 33, "rt": 623, "response": "Beta"}, "55": {"stimulus": 1780, "trial": 55, "rt": 311, "response": "Alpha"}, "74": {"stimulus": 1124, "trial": 74, "rt": 847, "response": "Alpha"}, "32": {"stimulus": 655, "trial": 32, "rt": 415, "response": "Alpha"}, "57": {"stimulus": 280, "trial": 57, "rt": 4043, "response": "Alpha"}, "50": {"stimulus": 187, "trial": 50, "rt": 527, "response": "Alpha"}}, "experiment": {"Paradigm": "TACL", "Stimuli": "Size-Color Squares", "Experiment": "Generating-Multiple-Categories"}, "submit": {"timeTotal": 382943, "age": "28", "comments": "nice experiment", "sex": "male"}}