{"info": {"finish": 1548085251949, "participant": 184, "exposed": true, "lab": false, "start": 1548085013512, "counterbalance": 3, "gentype": 1, "condition": "Row", "browser": {"platform": "MacIntel", "userAgent": "Mozilla/5.0 (Macintosh; Intel Mac OS X 10_13_6) AppleWebKit/537.36 (KHTML, like Gecko) Chrome/71.0.3578.98 Safari/537.36"}}, "observation": {"11": {"stimulus": 493, "trial": 11, "rt": 1537}, "10": {"stimulus": 421, "trial": 10, "rt": 1523}, "1": {"stimulus": 421, "trial": 1, "rt": 3383}, "0": {"stimulus": 612, "trial": 0, "rt": 2464}, "3": {"stimulus": 493, "trial": 3, "rt": 1534}, "2": {"stimulus": 582, "trial": 2, "rt": 2849}, "5": {"stimulus": 582, "trial": 5, "rt": 1508}, "4": {"stimulus": 493, "trial": 4, "rt": 1473}, "7": {"stimulus": 612, "trial": 7, "rt": 1822}, "6": {"stimulus": 421, "trial": 6, "rt": 1901}, "9": {"stimulus": 612, "trial": 9, "rt": 1553}, "8": {"stimulus": 582, "trial": 8, "rt": 1112}}, "generation": {"1": {"category": "Beta", "trial": 1, "stimulus": 2485, "rt": 7919}, "0": {"category": "Beta", "trial": 0, "stimulus": 2488, "rt": 6511}, "3": {"category": "Beta", "trial": 3, "stimulus": 2490, "rt": 11101}, "2": {"category": "Beta", "trial": 2, "stimulus": 2494, "rt": 3630}, "5": {"category": "Beta", "trial": 5, "stimulus": 2478, "rt": 6419}, "4": {"category": "Beta", "trial": 4, "stimulus": 2224, "rt": 4272}, "7": {"category": "Beta", "trial": 7, "stimulus": 2467, "rt": 4199}, "6": {"category": "Beta", "trial": 6, "stimulus": 2489, "rt": 3959}}, "generalization": {"56": {"stimulus": 937, "trial": 56, "rt": 298, "response": "Alpha"}, "77": {"stimulus": 1437, "trial": 77, "rt": 3022, "response": "Beta"}, "54": {"stimulus": 1780, "trial": 54, "rt": 290, "response": "Beta"}, "42": {"stimulus": 2405, "trial": 42, "rt": 149, "response": "Beta"}, "48": {"stimulus": 1999, "trial": 48, "rt": 310, "response": "Beta"}, "43": {"stimulus": 749, "trial": 43, "rt": 666, "response": "Alpha"}, "60": {"stimulus": 343, "trial": 60, "rt": 526, "response": "Beta"}, "61": {"stimulus": 1843, "trial": 61, "rt": 578, "response": "Beta"}, "62": {"stimulus": 2093, "trial": 62, "rt": 510, "response": "Beta"}, "63": {"stimulus": 2499, "trial": 63, "rt": 573, "response": "Beta"}, "64": {"stimulus": 187, "trial": 64, "rt": 1259, "response": "Beta"}, "49": {"stimulus": 2374, "trial": 49, "rt": 282, "response": "Beta"}, "66": {"stimulus": 2030, "trial": 66, "rt": 873, "response": "Alpha"}, "67": {"stimulus": 718, "trial": 67, "rt": 390, "response": "Beta"}, "68": {"stimulus": 2437, "trial": 68, "rt": 367, "response": "Beta"}, "69": {"stimulus": 1749, "trial": 69, "rt": 306, "response": "Beta"}, "80": {"stimulus": 780, "trial": 80, "rt": 403, "response": "Beta"}, "52": {"stimulus": 1530, "trial": 52, "rt": 357, "response": "Beta"}, "53": {"stimulus": 499, "trial": 53, "rt": 274, "response": "Beta"}, "24": {"stimulus": 30, "trial": 24, "rt": 366, "response": "Alpha"}, "25": {"stimulus": 1562, "trial": 25, "rt": 393, "response": "Alpha"}, "26": {"stimulus": 2187, "trial": 26, "rt": 390, "response": "Alpha"}, "27": {"stimulus": 2155, "trial": 27, "rt": 918, "response": "Beta"}, "20": {"stimulus": 2062, "trial": 20, "rt": 306, "response": "Alpha"}, "21": {"stimulus": 1062, "trial": 21, "rt": 786, "response": "Alpha"}, "22": {"stimulus": 999, "trial": 22, "rt": 391, "response": "Beta"}, "23": {"stimulus": 968, "trial": 23, "rt": 349, "response": "Alpha"}, "46": {"stimulus": 124, "trial": 46, "rt": 372, "response": "Beta"}, "47": {"stimulus": 312, "trial": 47, "rt": 412, "response": "Beta"}, "44": {"stimulus": 1687, "trial": 44, "rt": 405, "response": "Beta"}, "45": {"stimulus": 62, "trial": 45, "rt": 393, "response": "Alpha"}, "28": {"stimulus": 218, "trial": 28, "rt": 564, "response": "Beta"}, "29": {"stimulus": 874, "trial": 29, "rt": 302, "response": "Alpha"}, "40": {"stimulus": 1655, "trial": 40, "rt": 237, "response": "Alpha"}, "41": {"stimulus": 1718, "trial": 41, "rt": 174, "response": "Alpha"}, "1": {"stimulus": 812, "trial": 1, "rt": 977, "response": "Alpha"}, "0": {"stimulus": 93, "trial": 0, "rt": 1839, "response": "Alpha"}, "3": {"stimulus": 437, "trial": 3, "rt": 602, "response": "Alpha"}, "2": {"stimulus": 1312, "trial": 2, "rt": 712, "response": "Alpha"}, "5": {"stimulus": 1968, "trial": 5, "rt": 562, "response": "Beta"}, "4": {"stimulus": 1499, "trial": 4, "rt": 1375, "response": "Beta"}, "7": {"stimulus": 1905, "trial": 7, "rt": 541, "response": "Beta"}, "6": {"stimulus": 2468, "trial": 6, "rt": 436, "response": "Beta"}, "9": {"stimulus": 843, "trial": 9, "rt": 547, "response": "Alpha"}, "8": {"stimulus": 405, "trial": 8, "rt": 883, "response": "Alpha"}, "78": {"stimulus": 2280, "trial": 78, "rt": 335, "response": "Beta"}, "51": {"stimulus": 2124, "trial": 51, "rt": 341, "response": "Beta"}, "39": {"stimulus": 1030, "trial": 39, "rt": 294, "response": "Alpha"}, "65": {"stimulus": 155, "trial": 65, "rt": 509, "response": "Beta"}, "76": {"stimulus": 2249, "trial": 76, "rt": 821, "response": "Alpha"}, "75": {"stimulus": 1280, "trial": 75, "rt": 898, "response": "Beta"}, "38": {"stimulus": 1124, "trial": 38, "rt": 422, "response": "Alpha"}, "73": {"stimulus": 562, "trial": 73, "rt": 200, "response": "Beta"}, "72": {"stimulus": 624, "trial": 72, "rt": 222, "response": "Beta"}, "71": {"stimulus": 655, "trial": 71, "rt": 155, "response": "Beta"}, "70": {"stimulus": 1093, "trial": 70, "rt": 398, "response": "Beta"}, "59": {"stimulus": 2312, "trial": 59, "rt": 443, "response": "Beta"}, "79": {"stimulus": 530, "trial": 79, "rt": 433, "response": "Beta"}, "58": {"stimulus": 1374, "trial": 58, "rt": 287, "response": "Beta"}, "11": {"stimulus": 0, "trial": 11, "rt": 702, "response": "Alpha"}, "10": {"stimulus": 2218, "trial": 10, "rt": 895, "response": "Beta"}, "13": {"stimulus": 1812, "trial": 13, "rt": 977, "response": "Beta"}, "12": {"stimulus": 687, "trial": 12, "rt": 515, "response": "Alpha"}, "15": {"stimulus": 2343, "trial": 15, "rt": 1267, "response": "Beta"}, "14": {"stimulus": 374, "trial": 14, "rt": 1122, "response": "Alpha"}, "17": {"stimulus": 280, "trial": 17, "rt": 488, "response": "Alpha"}, "16": {"stimulus": 249, "trial": 16, "rt": 1443, "response": "Alpha"}, "19": {"stimulus": 1937, "trial": 19, "rt": 239, "response": "Alpha"}, "18": {"stimulus": 1343, "trial": 18, "rt": 347, "response": "Alpha"}, "31": {"stimulus": 1155, "trial": 31, "rt": 401, "response": "Alpha"}, "30": {"stimulus": 1468, "trial": 30, "rt": 313, "response": "Alpha"}, "37": {"stimulus": 1624, "trial": 37, "rt": 373, "response": "Alpha"}, "36": {"stimulus": 593, "trial": 36, "rt": 405, "response": "Beta"}, "35": {"stimulus": 1405, "trial": 35, "rt": 480, "response": "Alpha"}, "34": {"stimulus": 468, "trial": 34, "rt": 142, "response": "Alpha"}, "33": {"stimulus": 1874, "trial": 33, "rt": 413, "response": "Alpha"}, "55": {"stimulus": 1249, "trial": 55, "rt": 243, "response": "Beta"}, "74": {"stimulus": 1187, "trial": 74, "rt": 231, "response": "Beta"}, "32": {"stimulus": 1593, "trial": 32, "rt": 579, "response": "Alpha"}, "57": {"stimulus": 905, "trial": 57, "rt": 421, "response": "Beta"}, "50": {"stimulus": 1218, "trial": 50, "rt": 373, "response": "Beta"}}, "experiment": {"Paradigm": "TACL", "Stimuli": "Size-Color Squares", "Experiment": "Generating-Multiple-Categories"}, "submit": {"timeTotal": 238725, "age": "33", "comments": "none", "sex": "Female"}}