{"info": {"finish": 1548086354271, "participant": 188, "exposed": true, "lab": false, "start": 1548086028677, "counterbalance": 2, "gentype": 2, "condition": "Row", "browser": {"platform": "Win32", "userAgent": "Mozilla/5.0 (Windows NT 10.0; Win64; x64; rv:64.0) Gecko/20100101 Firefox/64.0"}}, "observation": {"11": {"stimulus": 612, "trial": 11, "rt": 1410}, "10": {"stimulus": 421, "trial": 10, "rt": 1426}, "1": {"stimulus": 582, "trial": 1, "rt": 1598}, "0": {"stimulus": 421, "trial": 0, "rt": 2680}, "3": {"stimulus": 493, "trial": 3, "rt": 1749}, "2": {"stimulus": 612, "trial": 2, "rt": 1709}, "5": {"stimulus": 582, "trial": 5, "rt": 1565}, "4": {"stimulus": 493, "trial": 4, "rt": 1508}, "7": {"stimulus": 421, "trial": 7, "rt": 1453}, "6": {"stimulus": 612, "trial": 6, "rt": 1492}, "9": {"stimulus": 582, "trial": 9, "rt": 1617}, "8": {"stimulus": 493, "trial": 8, "rt": 1487}}, "generation": {"1": {"category": "Beta", "trial": 1, "stimulus": 2499, "rt": 5920}, "0": {"category": "Beta", "trial": 0, "stimulus": 2450, "rt": 13102}, "3": {"category": "Beta", "trial": 3, "stimulus": 2467, "rt": 3300}, "2": {"category": "Beta", "trial": 2, "stimulus": 2476, "rt": 4697}, "5": {"category": "Gamma", "trial": 5, "stimulus": 1200, "rt": 7393}, "4": {"category": "Gamma", "trial": 4, "stimulus": 1199, "rt": 4849}, "7": {"category": "Gamma", "trial": 7, "stimulus": 1219, "rt": 5073}, "6": {"category": "Gamma", "trial": 6, "stimulus": 1231, "rt": 4471}}, "generalization": {"56": {"stimulus": 2187, "trial": 56, "rt": 789, "response": "Beta"}, "77": {"stimulus": 1374, "trial": 77, "rt": 1160, "response": "Gamma"}, "54": {"stimulus": 1593, "trial": 54, "rt": 1968, "response": "Gamma"}, "42": {"stimulus": 1187, "trial": 42, "rt": 1202, "response": "Gamma"}, "48": {"stimulus": 2468, "trial": 48, "rt": 839, "response": "Beta"}, "43": {"stimulus": 249, "trial": 43, "rt": 1044, "response": "Alpha"}, "60": {"stimulus": 312, "trial": 60, "rt": 1054, "response": "Alpha"}, "61": {"stimulus": 2405, "trial": 61, "rt": 1327, "response": "Beta"}, "62": {"stimulus": 468, "trial": 62, "rt": 966, "response": "Alpha"}, "63": {"stimulus": 1530, "trial": 63, "rt": 1290, "response": "Gamma"}, "64": {"stimulus": 1405, "trial": 64, "rt": 1644, "response": "Gamma"}, "49": {"stimulus": 1905, "trial": 49, "rt": 1846, "response": "Beta"}, "66": {"stimulus": 2030, "trial": 66, "rt": 976, "response": "Beta"}, "67": {"stimulus": 2249, "trial": 67, "rt": 892, "response": "Beta"}, "68": {"stimulus": 1155, "trial": 68, "rt": 1593, "response": "Gamma"}, "69": {"stimulus": 62, "trial": 69, "rt": 1445, "response": "Alpha"}, "80": {"stimulus": 1624, "trial": 80, "rt": 1230, "response": "Gamma"}, "52": {"stimulus": 2280, "trial": 52, "rt": 1235, "response": "Beta"}, "53": {"stimulus": 624, "trial": 53, "rt": 1462, "response": "Gamma"}, "24": {"stimulus": 280, "trial": 24, "rt": 972, "response": "Alpha"}, "25": {"stimulus": 155, "trial": 25, "rt": 722, "response": "Alpha"}, "26": {"stimulus": 1749, "trial": 26, "rt": 1657, "response": "Beta"}, "27": {"stimulus": 1718, "trial": 27, "rt": 1757, "response": "Gamma"}, "20": {"stimulus": 124, "trial": 20, "rt": 860, "response": "Alpha"}, "21": {"stimulus": 874, "trial": 21, "rt": 1616, "response": "Gamma"}, "22": {"stimulus": 1874, "trial": 22, "rt": 757, "response": "Beta"}, "23": {"stimulus": 1655, "trial": 23, "rt": 3466, "response": "Beta"}, "46": {"stimulus": 1249, "trial": 46, "rt": 1225, "response": "Gamma"}, "47": {"stimulus": 593, "trial": 47, "rt": 1422, "response": "Gamma"}, "44": {"stimulus": 999, "trial": 44, "rt": 1350, "response": "Gamma"}, "45": {"stimulus": 2312, "trial": 45, "rt": 890, "response": "Beta"}, "28": {"stimulus": 937, "trial": 28, "rt": 1229, "response": "Gamma"}, "29": {"stimulus": 2343, "trial": 29, "rt": 932, "response": "Beta"}, "40": {"stimulus": 749, "trial": 40, "rt": 1470, "response": "Gamma"}, "41": {"stimulus": 687, "trial": 41, "rt": 1077, "response": "Gamma"}, "1": {"stimulus": 1218, "trial": 1, "rt": 1423, "response": "Gamma"}, "0": {"stimulus": 2062, "trial": 0, "rt": 3819, "response": "Beta"}, "3": {"stimulus": 405, "trial": 3, "rt": 987, "response": "Alpha"}, "2": {"stimulus": 1843, "trial": 2, "rt": 2299, "response": "Gamma"}, "5": {"stimulus": 1968, "trial": 5, "rt": 1965, "response": "Beta"}, "4": {"stimulus": 1687, "trial": 4, "rt": 2053, "response": "Gamma"}, "7": {"stimulus": 0, "trial": 7, "rt": 987, "response": "Alpha"}, "6": {"stimulus": 1999, "trial": 6, "rt": 1483, "response": "Beta"}, "9": {"stimulus": 499, "trial": 9, "rt": 809, "response": "Alpha"}, "8": {"stimulus": 437, "trial": 8, "rt": 787, "response": "Alpha"}, "78": {"stimulus": 812, "trial": 78, "rt": 1125, "response": "Gamma"}, "51": {"stimulus": 1093, "trial": 51, "rt": 1187, "response": "Gamma"}, "39": {"stimulus": 187, "trial": 39, "rt": 1246, "response": "Alpha"}, "65": {"stimulus": 1499, "trial": 65, "rt": 959, "response": "Gamma"}, "76": {"stimulus": 2499, "trial": 76, "rt": 886, "response": "Beta"}, "75": {"stimulus": 1812, "trial": 75, "rt": 3644, "response": "Gamma"}, "38": {"stimulus": 905, "trial": 38, "rt": 1288, "response": "Gamma"}, "73": {"stimulus": 843, "trial": 73, "rt": 1123, "response": "Gamma"}, "72": {"stimulus": 2437, "trial": 72, "rt": 1152, "response": "Beta"}, "71": {"stimulus": 1937, "trial": 71, "rt": 1825, "response": "Beta"}, "70": {"stimulus": 562, "trial": 70, "rt": 1493, "response": "Gamma"}, "59": {"stimulus": 780, "trial": 59, "rt": 1671, "response": "Gamma"}, "79": {"stimulus": 1280, "trial": 79, "rt": 1099, "response": "Gamma"}, "58": {"stimulus": 1343, "trial": 58, "rt": 992, "response": "Gamma"}, "11": {"stimulus": 968, "trial": 11, "rt": 715, "response": "Gamma"}, "10": {"stimulus": 1062, "trial": 10, "rt": 1247, "response": "Gamma"}, "13": {"stimulus": 1437, "trial": 13, "rt": 1704, "response": "Gamma"}, "12": {"stimulus": 2218, "trial": 12, "rt": 1017, "response": "Beta"}, "15": {"stimulus": 1312, "trial": 15, "rt": 2082, "response": "Gamma"}, "14": {"stimulus": 530, "trial": 14, "rt": 1100, "response": "Alpha"}, "17": {"stimulus": 2155, "trial": 17, "rt": 1175, "response": "Beta"}, "16": {"stimulus": 1124, "trial": 16, "rt": 745, "response": "Gamma"}, "19": {"stimulus": 2124, "trial": 19, "rt": 1351, "response": "Beta"}, "18": {"stimulus": 655, "trial": 18, "rt": 3155, "response": "Gamma"}, "31": {"stimulus": 93, "trial": 31, "rt": 916, "response": "Alpha"}, "30": {"stimulus": 1780, "trial": 30, "rt": 4023, "response": "Beta"}, "37": {"stimulus": 374, "trial": 37, "rt": 1138, "response": "Alpha"}, "36": {"stimulus": 1468, "trial": 36, "rt": 859, "response": "Gamma"}, "35": {"stimulus": 2093, "trial": 35, "rt": 1171, "response": "Beta"}, "34": {"stimulus": 30, "trial": 34, "rt": 1030, "response": "Alpha"}, "33": {"stimulus": 343, "trial": 33, "rt": 1029, "response": "Alpha"}, "55": {"stimulus": 1562, "trial": 55, "rt": 935, "response": "Gamma"}, "74": {"stimulus": 718, "trial": 74, "rt": 1175, "response": "Gamma"}, "32": {"stimulus": 218, "trial": 32, "rt": 1457, "response": "Alpha"}, "57": {"stimulus": 2374, "trial": 57, "rt": 770, "response": "Beta"}, "50": {"stimulus": 1030, "trial": 50, "rt": 884, "response": "Gamma"}}, "experiment": {"Paradigm": "TACL", "Stimuli": "Size-Color Squares", "Experiment": "Generating-Multiple-Categories"}, "submit": {"timeTotal": 326042, "age": "50", "comments": "Everything was fine. Thank you. ", "sex": "Male"}}