{"info": {"finish": 1548092221780, "participant": 198, "exposed": true, "lab": false, "start": 1548091927914, "counterbalance": 3, "gentype": 2, "condition": "Row", "browser": {"platform": "MacIntel", "userAgent": "Mozilla/5.0 (Macintosh; Intel Mac OS X 10_14_2) AppleWebKit/537.36 (KHTML, like Gecko) Chrome/71.0.3578.98 Safari/537.36"}}, "observation": {"11": {"stimulus": 582, "trial": 11, "rt": 1454}, "10": {"stimulus": 421, "trial": 10, "rt": 1884}, "1": {"stimulus": 612, "trial": 1, "rt": 2313}, "0": {"stimulus": 421, "trial": 0, "rt": 2182}, "3": {"stimulus": 493, "trial": 3, "rt": 1422}, "2": {"stimulus": 582, "trial": 2, "rt": 1511}, "5": {"stimulus": 493, "trial": 5, "rt": 1428}, "4": {"stimulus": 612, "trial": 4, "rt": 1556}, "7": {"stimulus": 582, "trial": 7, "rt": 1410}, "6": {"stimulus": 421, "trial": 6, "rt": 1348}, "9": {"stimulus": 493, "trial": 9, "rt": 1462}, "8": {"stimulus": 612, "trial": 8, "rt": 1540}}, "generation": {"1": {"category": "Beta", "trial": 1, "stimulus": 1882, "rt": 4256}, "0": {"category": "Beta", "trial": 0, "stimulus": 1886, "rt": 10076}, "3": {"category": "Beta", "trial": 3, "stimulus": 2242, "rt": 2278}, "2": {"category": "Beta", "trial": 2, "stimulus": 2238, "rt": 1656}, "5": {"category": "Gamma", "trial": 5, "stimulus": 77, "rt": 2447}, "4": {"category": "Gamma", "trial": 4, "stimulus": 23, "rt": 4249}, "7": {"category": "Gamma", "trial": 7, "stimulus": 28, "rt": 3014}, "6": {"category": "Gamma", "trial": 6, "stimulus": 79, "rt": 2683}}, "generalization": {"56": {"stimulus": 1812, "trial": 56, "rt": 1527, "response": "Beta"}, "77": {"stimulus": 280, "trial": 77, "rt": 1006, "response": "Gamma"}, "54": {"stimulus": 2374, "trial": 54, "rt": 871, "response": "Beta"}, "42": {"stimulus": 1999, "trial": 42, "rt": 558, "response": "Beta"}, "48": {"stimulus": 999, "trial": 48, "rt": 559, "response": "Alpha"}, "43": {"stimulus": 593, "trial": 43, "rt": 1325, "response": "Gamma"}, "60": {"stimulus": 218, "trial": 60, "rt": 884, "response": "Gamma"}, "61": {"stimulus": 2280, "trial": 61, "rt": 646, "response": "Beta"}, "62": {"stimulus": 124, "trial": 62, "rt": 1485, "response": "Gamma"}, "63": {"stimulus": 1218, "trial": 63, "rt": 775, "response": "Alpha"}, "64": {"stimulus": 155, "trial": 64, "rt": 934, "response": "Gamma"}, "49": {"stimulus": 2343, "trial": 49, "rt": 878, "response": "Beta"}, "66": {"stimulus": 843, "trial": 66, "rt": 922, "response": "Alpha"}, "67": {"stimulus": 312, "trial": 67, "rt": 1590, "response": "Gamma"}, "68": {"stimulus": 1937, "trial": 68, "rt": 911, "response": "Alpha"}, "69": {"stimulus": 749, "trial": 69, "rt": 815, "response": "Alpha"}, "80": {"stimulus": 2249, "trial": 80, "rt": 663, "response": "Beta"}, "52": {"stimulus": 1187, "trial": 52, "rt": 1065, "response": "Alpha"}, "53": {"stimulus": 0, "trial": 53, "rt": 859, "response": "Gamma"}, "24": {"stimulus": 499, "trial": 24, "rt": 508, "response": "Alpha"}, "25": {"stimulus": 1468, "trial": 25, "rt": 623, "response": "Alpha"}, "26": {"stimulus": 2437, "trial": 26, "rt": 787, "response": "Beta"}, "27": {"stimulus": 1405, "trial": 27, "rt": 719, "response": "Alpha"}, "20": {"stimulus": 1249, "trial": 20, "rt": 690, "response": "Alpha"}, "21": {"stimulus": 530, "trial": 21, "rt": 1148, "response": "Gamma"}, "22": {"stimulus": 1749, "trial": 22, "rt": 931, "response": "Beta"}, "23": {"stimulus": 1155, "trial": 23, "rt": 1111, "response": "Alpha"}, "46": {"stimulus": 812, "trial": 46, "rt": 1342, "response": "Alpha"}, "47": {"stimulus": 937, "trial": 47, "rt": 749, "response": "Alpha"}, "44": {"stimulus": 780, "trial": 44, "rt": 1064, "response": "Gamma"}, "45": {"stimulus": 1437, "trial": 45, "rt": 873, "response": "Alpha"}, "28": {"stimulus": 1499, "trial": 28, "rt": 2246, "response": "Alpha"}, "29": {"stimulus": 1655, "trial": 29, "rt": 803, "response": "Alpha"}, "40": {"stimulus": 1593, "trial": 40, "rt": 605, "response": "Alpha"}, "41": {"stimulus": 2124, "trial": 41, "rt": 605, "response": "Beta"}, "1": {"stimulus": 1905, "trial": 1, "rt": 846, "response": "Beta"}, "0": {"stimulus": 30, "trial": 0, "rt": 2190, "response": "Alpha"}, "3": {"stimulus": 718, "trial": 3, "rt": 801, "response": "Alpha"}, "2": {"stimulus": 1843, "trial": 2, "rt": 511, "response": "Beta"}, "5": {"stimulus": 1687, "trial": 5, "rt": 604, "response": "Beta"}, "4": {"stimulus": 687, "trial": 4, "rt": 748, "response": "Alpha"}, "7": {"stimulus": 1312, "trial": 7, "rt": 45101, "response": "Alpha"}, "6": {"stimulus": 2030, "trial": 6, "rt": 892, "response": "Beta"}, "9": {"stimulus": 437, "trial": 9, "rt": 1287, "response": "Gamma"}, "8": {"stimulus": 62, "trial": 8, "rt": 973, "response": "Gamma"}, "78": {"stimulus": 187, "trial": 78, "rt": 1136, "response": "Gamma"}, "51": {"stimulus": 1530, "trial": 51, "rt": 1125, "response": "Beta"}, "39": {"stimulus": 343, "trial": 39, "rt": 684, "response": "Alpha"}, "65": {"stimulus": 1718, "trial": 65, "rt": 951, "response": "Beta"}, "76": {"stimulus": 2218, "trial": 76, "rt": 2182, "response": "Beta"}, "75": {"stimulus": 1030, "trial": 75, "rt": 959, "response": "Alpha"}, "38": {"stimulus": 2468, "trial": 38, "rt": 1058, "response": "Beta"}, "73": {"stimulus": 2312, "trial": 73, "rt": 567, "response": "Beta"}, "72": {"stimulus": 1343, "trial": 72, "rt": 959, "response": "Alpha"}, "71": {"stimulus": 2093, "trial": 71, "rt": 750, "response": "Beta"}, "70": {"stimulus": 405, "trial": 70, "rt": 1377, "response": "Gamma"}, "59": {"stimulus": 2187, "trial": 59, "rt": 819, "response": "Beta"}, "79": {"stimulus": 1562, "trial": 79, "rt": 1381, "response": "Alpha"}, "58": {"stimulus": 562, "trial": 58, "rt": 2102, "response": "Alpha"}, "11": {"stimulus": 655, "trial": 11, "rt": 904, "response": "Gamma"}, "10": {"stimulus": 374, "trial": 10, "rt": 948, "response": "Gamma"}, "13": {"stimulus": 1280, "trial": 13, "rt": 758, "response": "Alpha"}, "12": {"stimulus": 1124, "trial": 12, "rt": 588, "response": "Alpha"}, "15": {"stimulus": 1093, "trial": 15, "rt": 692, "response": "Alpha"}, "14": {"stimulus": 468, "trial": 14, "rt": 1353, "response": "Gamma"}, "17": {"stimulus": 874, "trial": 17, "rt": 1188, "response": "Alpha"}, "16": {"stimulus": 1874, "trial": 16, "rt": 694, "response": "Beta"}, "19": {"stimulus": 968, "trial": 19, "rt": 991, "response": "Alpha"}, "18": {"stimulus": 1374, "trial": 18, "rt": 1446, "response": "Beta"}, "31": {"stimulus": 1624, "trial": 31, "rt": 617, "response": "Alpha"}, "30": {"stimulus": 1780, "trial": 30, "rt": 899, "response": "Alpha"}, "37": {"stimulus": 1968, "trial": 37, "rt": 1173, "response": "Alpha"}, "36": {"stimulus": 624, "trial": 36, "rt": 725, "response": "Alpha"}, "35": {"stimulus": 2062, "trial": 35, "rt": 689, "response": "Beta"}, "34": {"stimulus": 2155, "trial": 34, "rt": 3179, "response": "Beta"}, "33": {"stimulus": 93, "trial": 33, "rt": 1569, "response": "Gamma"}, "55": {"stimulus": 1062, "trial": 55, "rt": 716, "response": "Alpha"}, "74": {"stimulus": 2405, "trial": 74, "rt": 535, "response": "Beta"}, "32": {"stimulus": 249, "trial": 32, "rt": 1254, "response": "Gamma"}, "57": {"stimulus": 2499, "trial": 57, "rt": 824, "response": "Beta"}, "50": {"stimulus": 905, "trial": 50, "rt": 928, "response": "Alpha"}}, "experiment": {"Paradigm": "TACL", "Stimuli": "Size-Color Squares", "Experiment": "Generating-Multiple-Categories"}, "submit": {"timeTotal": 294018, "age": "30", "comments": "", "sex": "female"}}