{"info": {"finish": 1548099250779, "participant": 207, "exposed": true, "lab": false, "start": 1548098844019, "counterbalance": 5, "gentype": 0, "condition": "Cluster", "browser": {"platform": "Win32", "userAgent": "Mozilla/5.0 (Windows NT 6.3; Win64; x64) AppleWebKit/537.36 (KHTML, like Gecko) Chrome/71.0.3578.98 Safari/537.36"}}, "observation": {"11": {"stimulus": 1083, "trial": 11, "rt": 1689}, "10": {"stimulus": 583, "trial": 10, "rt": 1652}, "1": {"stimulus": 1083, "trial": 1, "rt": 2442}, "0": {"stimulus": 1093, "trial": 0, "rt": 3938}, "3": {"stimulus": 392, "trial": 3, "rt": 8391}, "2": {"stimulus": 583, "trial": 2, "rt": 2628}, "5": {"stimulus": 1083, "trial": 5, "rt": 2246}, "4": {"stimulus": 1093, "trial": 4, "rt": 3017}, "7": {"stimulus": 583, "trial": 7, "rt": 2228}, "6": {"stimulus": 392, "trial": 6, "rt": 1587}, "9": {"stimulus": 1093, "trial": 9, "rt": 1693}, "8": {"stimulus": 392, "trial": 8, "rt": 2365}}, "generation": {"1": {"category": "Not-Alpha", "trial": 1, "stimulus": 550, "rt": 11346}, "0": {"category": "Not-Alpha", "trial": 0, "stimulus": 0, "rt": 16791}, "3": {"category": "Not-Alpha", "trial": 3, "stimulus": 1550, "rt": 5454}, "2": {"category": "Not-Alpha", "trial": 2, "stimulus": 1000, "rt": 6770}, "5": {"category": "Not-Alpha", "trial": 5, "stimulus": 3, "rt": 8880}, "4": {"category": "Not-Alpha", "trial": 4, "stimulus": 2450, "rt": 6086}, "7": {"category": "Not-Alpha", "trial": 7, "stimulus": 505, "rt": 4984}, "6": {"category": "Not-Alpha", "trial": 6, "stimulus": 258, "rt": 7003}}, "generalization": {"56": {"stimulus": 1437, "trial": 56, "rt": 666, "response": "Alpha"}, "77": {"stimulus": 1780, "trial": 77, "rt": 1598, "response": "Alpha"}, "54": {"stimulus": 655, "trial": 54, "rt": 2714, "response": "Beta"}, "42": {"stimulus": 1343, "trial": 42, "rt": 1027, "response": "Alpha"}, "48": {"stimulus": 530, "trial": 48, "rt": 1617, "response": "Beta"}, "43": {"stimulus": 2312, "trial": 43, "rt": 1660, "response": "Beta"}, "60": {"stimulus": 1374, "trial": 60, "rt": 1816, "response": "Alpha"}, "61": {"stimulus": 2062, "trial": 61, "rt": 1650, "response": "Beta"}, "62": {"stimulus": 1968, "trial": 62, "rt": 1233, "response": "Beta"}, "63": {"stimulus": 1312, "trial": 63, "rt": 1046, "response": "Beta"}, "64": {"stimulus": 1218, "trial": 64, "rt": 1203, "response": "Alpha"}, "49": {"stimulus": 2437, "trial": 49, "rt": 1050, "response": "Alpha"}, "66": {"stimulus": 1249, "trial": 66, "rt": 1542, "response": "Alpha"}, "67": {"stimulus": 1905, "trial": 67, "rt": 1126, "response": "Beta"}, "68": {"stimulus": 1937, "trial": 68, "rt": 1148, "response": "Alpha"}, "69": {"stimulus": 1562, "trial": 69, "rt": 1138, "response": "Beta"}, "80": {"stimulus": 2187, "trial": 80, "rt": 589, "response": "Alpha"}, "52": {"stimulus": 562, "trial": 52, "rt": 1136, "response": "Beta"}, "53": {"stimulus": 1593, "trial": 53, "rt": 1237, "response": "Alpha"}, "24": {"stimulus": 187, "trial": 24, "rt": 1173, "response": "Alpha"}, "25": {"stimulus": 687, "trial": 25, "rt": 1076, "response": "Alpha"}, "26": {"stimulus": 1530, "trial": 26, "rt": 738, "response": "Alpha"}, "27": {"stimulus": 1718, "trial": 27, "rt": 1647, "response": "Alpha"}, "20": {"stimulus": 968, "trial": 20, "rt": 1137, "response": "Alpha"}, "21": {"stimulus": 405, "trial": 21, "rt": 1147, "response": "Beta"}, "22": {"stimulus": 2468, "trial": 22, "rt": 2867, "response": "Beta"}, "23": {"stimulus": 1749, "trial": 23, "rt": 1166, "response": "Alpha"}, "46": {"stimulus": 218, "trial": 46, "rt": 779, "response": "Beta"}, "47": {"stimulus": 718, "trial": 47, "rt": 663, "response": "Beta"}, "44": {"stimulus": 2093, "trial": 44, "rt": 1139, "response": "Alpha"}, "45": {"stimulus": 1468, "trial": 45, "rt": 1151, "response": "Beta"}, "28": {"stimulus": 1155, "trial": 28, "rt": 21010, "response": "Beta"}, "29": {"stimulus": 1093, "trial": 29, "rt": 1292, "response": "Alpha"}, "40": {"stimulus": 812, "trial": 40, "rt": 712, "response": "Beta"}, "41": {"stimulus": 343, "trial": 41, "rt": 617, "response": "Alpha"}, "1": {"stimulus": 1624, "trial": 1, "rt": 1584, "response": "Alpha"}, "0": {"stimulus": 249, "trial": 0, "rt": 1802, "response": "Alpha"}, "3": {"stimulus": 2030, "trial": 3, "rt": 1114, "response": "Alpha"}, "2": {"stimulus": 2499, "trial": 2, "rt": 1166, "response": "Alpha"}, "5": {"stimulus": 1499, "trial": 5, "rt": 690, "response": "Alpha"}, "4": {"stimulus": 1280, "trial": 4, "rt": 8967, "response": "Alpha"}, "7": {"stimulus": 1874, "trial": 7, "rt": 5100, "response": "Alpha"}, "6": {"stimulus": 2374, "trial": 6, "rt": 1148, "response": "Alpha"}, "9": {"stimulus": 30, "trial": 9, "rt": 1104, "response": "Alpha"}, "8": {"stimulus": 624, "trial": 8, "rt": 1160, "response": "Alpha"}, "78": {"stimulus": 468, "trial": 78, "rt": 776, "response": "Alpha"}, "51": {"stimulus": 499, "trial": 51, "rt": 585, "response": "Alpha"}, "39": {"stimulus": 593, "trial": 39, "rt": 773, "response": "Alpha"}, "65": {"stimulus": 905, "trial": 65, "rt": 1760, "response": "Beta"}, "76": {"stimulus": 0, "trial": 76, "rt": 715, "response": "Beta"}, "75": {"stimulus": 1062, "trial": 75, "rt": 2201, "response": "Beta"}, "38": {"stimulus": 93, "trial": 38, "rt": 585, "response": "Alpha"}, "73": {"stimulus": 2218, "trial": 73, "rt": 1366, "response": "Beta"}, "72": {"stimulus": 1843, "trial": 72, "rt": 1072, "response": "Alpha"}, "71": {"stimulus": 999, "trial": 71, "rt": 1221, "response": "Alpha"}, "70": {"stimulus": 1999, "trial": 70, "rt": 1153, "response": "Alpha"}, "59": {"stimulus": 2405, "trial": 59, "rt": 1564, "response": "Beta"}, "79": {"stimulus": 749, "trial": 79, "rt": 585, "response": "Alpha"}, "58": {"stimulus": 874, "trial": 58, "rt": 2743, "response": "Alpha"}, "11": {"stimulus": 2124, "trial": 11, "rt": 697, "response": "Alpha"}, "10": {"stimulus": 2249, "trial": 10, "rt": 566, "response": "Alpha"}, "13": {"stimulus": 1405, "trial": 13, "rt": 1263, "response": "Beta"}, "12": {"stimulus": 1812, "trial": 12, "rt": 1548, "response": "Alpha"}, "15": {"stimulus": 780, "trial": 15, "rt": 1141, "response": "Alpha"}, "14": {"stimulus": 2343, "trial": 14, "rt": 1064, "response": "Alpha"}, "17": {"stimulus": 1124, "trial": 17, "rt": 1579, "response": "Alpha"}, "16": {"stimulus": 937, "trial": 16, "rt": 1329, "response": "Alpha"}, "19": {"stimulus": 155, "trial": 19, "rt": 1678, "response": "Beta"}, "18": {"stimulus": 437, "trial": 18, "rt": 1148, "response": "Alpha"}, "31": {"stimulus": 2155, "trial": 31, "rt": 1668, "response": "Beta"}, "30": {"stimulus": 1687, "trial": 30, "rt": 1688, "response": "Alpha"}, "37": {"stimulus": 843, "trial": 37, "rt": 1752, "response": "Alpha"}, "36": {"stimulus": 1655, "trial": 36, "rt": 1145, "response": "Beta"}, "35": {"stimulus": 1030, "trial": 35, "rt": 1644, "response": "Alpha"}, "34": {"stimulus": 62, "trial": 34, "rt": 1159, "response": "Beta"}, "33": {"stimulus": 312, "trial": 33, "rt": 1042, "response": "Beta"}, "55": {"stimulus": 280, "trial": 55, "rt": 2212, "response": "Alpha"}, "74": {"stimulus": 2280, "trial": 74, "rt": 1627, "response": "Alpha"}, "32": {"stimulus": 374, "trial": 32, "rt": 3972, "response": "Beta"}, "57": {"stimulus": 124, "trial": 57, "rt": 2517, "response": "Alpha"}, "50": {"stimulus": 1187, "trial": 50, "rt": 631, "response": "Alpha"}}, "experiment": {"Paradigm": "TACL", "Stimuli": "Size-Color Squares", "Experiment": "Generating-Multiple-Categories"}, "submit": {"timeTotal": 406999, "age": "24", "comments": "Fun experiment!", "sex": "Male"}}