{"info": {"finish": 1548105665294, "participant": 222, "exposed": true, "lab": false, "start": 1548105108591, "counterbalance": 3, "gentype": 0, "condition": "XOR", "browser": {"platform": "Win32", "userAgent": "Mozilla/5.0 (Windows NT 10.0; Win64; x64) AppleWebKit/537.36 (KHTML, like Gecko) Chrome/71.0.3578.98 Safari/537.36"}}, "observation": {"11": {"stimulus": 1890, "trial": 11, "rt": 1427}, "10": {"stimulus": 1479, "trial": 10, "rt": 1389}, "1": {"stimulus": 403, "trial": 1, "rt": 2099}, "0": {"stimulus": 1890, "trial": 0, "rt": 2322}, "3": {"stimulus": 818, "trial": 3, "rt": 1589}, "2": {"stimulus": 1479, "trial": 2, "rt": 1826}, "5": {"stimulus": 1479, "trial": 5, "rt": 1421}, "4": {"stimulus": 818, "trial": 4, "rt": 2301}, "7": {"stimulus": 1890, "trial": 7, "rt": 1484}, "6": {"stimulus": 403, "trial": 6, "rt": 1408}, "9": {"stimulus": 403, "trial": 9, "rt": 1466}, "8": {"stimulus": 818, "trial": 8, "rt": 1484}}, "generation": {"1": {"category": "Not-Alpha", "trial": 1, "stimulus": 1645, "rt": 12997}, "0": {"category": "Not-Alpha", "trial": 0, "stimulus": 49, "rt": 7324}, "3": {"category": "Not-Alpha", "trial": 3, "stimulus": 2499, "rt": 5055}, "2": {"category": "Not-Alpha", "trial": 2, "stimulus": 1099, "rt": 5191}, "5": {"category": "Not-Alpha", "trial": 5, "stimulus": 1180, "rt": 4892}, "4": {"category": "Not-Alpha", "trial": 4, "stimulus": 0, "rt": 3062}, "7": {"category": "Not-Alpha", "trial": 7, "stimulus": 961, "rt": 4748}, "6": {"category": "Not-Alpha", "trial": 6, "stimulus": 2233, "rt": 3799}}, "generalization": {"56": {"stimulus": 2437, "trial": 56, "rt": 519, "response": "Alpha"}, "77": {"stimulus": 1405, "trial": 77, "rt": 814, "response": "Alpha"}, "54": {"stimulus": 1812, "trial": 54, "rt": 749, "response": "Alpha"}, "42": {"stimulus": 280, "trial": 42, "rt": 797, "response": "Beta"}, "48": {"stimulus": 1874, "trial": 48, "rt": 531, "response": "Alpha"}, "43": {"stimulus": 937, "trial": 43, "rt": 1331, "response": "Alpha"}, "60": {"stimulus": 2312, "trial": 60, "rt": 483, "response": "Alpha"}, "61": {"stimulus": 2343, "trial": 61, "rt": 1019, "response": "Alpha"}, "62": {"stimulus": 1218, "trial": 62, "rt": 624, "response": "Alpha"}, "63": {"stimulus": 530, "trial": 63, "rt": 981, "response": "Alpha"}, "64": {"stimulus": 1374, "trial": 64, "rt": 597, "response": "Alpha"}, "49": {"stimulus": 2374, "trial": 49, "rt": 1187, "response": "Alpha"}, "66": {"stimulus": 1093, "trial": 66, "rt": 446, "response": "Alpha"}, "67": {"stimulus": 2405, "trial": 67, "rt": 629, "response": "Alpha"}, "68": {"stimulus": 1593, "trial": 68, "rt": 471, "response": "Alpha"}, "69": {"stimulus": 249, "trial": 69, "rt": 547, "response": "Alpha"}, "80": {"stimulus": 1124, "trial": 80, "rt": 679, "response": "Alpha"}, "52": {"stimulus": 218, "trial": 52, "rt": 669, "response": "Alpha"}, "53": {"stimulus": 1843, "trial": 53, "rt": 818, "response": "Alpha"}, "24": {"stimulus": 968, "trial": 24, "rt": 16562, "response": "Alpha"}, "25": {"stimulus": 874, "trial": 25, "rt": 675, "response": "Alpha"}, "26": {"stimulus": 2218, "trial": 26, "rt": 860, "response": "Alpha"}, "27": {"stimulus": 124, "trial": 27, "rt": 2296, "response": "Alpha"}, "20": {"stimulus": 1437, "trial": 20, "rt": 11600, "response": "Alpha"}, "21": {"stimulus": 1530, "trial": 21, "rt": 1248, "response": "Alpha"}, "22": {"stimulus": 405, "trial": 22, "rt": 1378, "response": "Beta"}, "23": {"stimulus": 812, "trial": 23, "rt": 923, "response": "Alpha"}, "46": {"stimulus": 780, "trial": 46, "rt": 1089, "response": "Alpha"}, "47": {"stimulus": 624, "trial": 47, "rt": 680, "response": "Beta"}, "44": {"stimulus": 2280, "trial": 44, "rt": 1347, "response": "Alpha"}, "45": {"stimulus": 1030, "trial": 45, "rt": 1443, "response": "Alpha"}, "28": {"stimulus": 593, "trial": 28, "rt": 718, "response": "Beta"}, "29": {"stimulus": 1562, "trial": 29, "rt": 1506, "response": "Beta"}, "40": {"stimulus": 2030, "trial": 40, "rt": 1289, "response": "Alpha"}, "41": {"stimulus": 1905, "trial": 41, "rt": 1433, "response": "Alpha"}, "1": {"stimulus": 1343, "trial": 1, "rt": 4012, "response": "Beta"}, "0": {"stimulus": 374, "trial": 0, "rt": 1742, "response": "Alpha"}, "3": {"stimulus": 437, "trial": 3, "rt": 3678, "response": "Alpha"}, "2": {"stimulus": 905, "trial": 2, "rt": 2331, "response": "Alpha"}, "5": {"stimulus": 468, "trial": 5, "rt": 1588, "response": "Alpha"}, "4": {"stimulus": 155, "trial": 4, "rt": 1142, "response": "Beta"}, "7": {"stimulus": 1155, "trial": 7, "rt": 632, "response": "Alpha"}, "6": {"stimulus": 1655, "trial": 6, "rt": 689, "response": "Alpha"}, "9": {"stimulus": 2249, "trial": 9, "rt": 805, "response": "Alpha"}, "8": {"stimulus": 1062, "trial": 8, "rt": 1154, "response": "Alpha"}, "78": {"stimulus": 312, "trial": 78, "rt": 900, "response": "Beta"}, "51": {"stimulus": 2093, "trial": 51, "rt": 437, "response": "Alpha"}, "39": {"stimulus": 62, "trial": 39, "rt": 163982, "response": "Beta"}, "65": {"stimulus": 999, "trial": 65, "rt": 476, "response": "Alpha"}, "76": {"stimulus": 843, "trial": 76, "rt": 2187, "response": "Beta"}, "75": {"stimulus": 562, "trial": 75, "rt": 1268, "response": "Beta"}, "38": {"stimulus": 749, "trial": 38, "rt": 1081, "response": "Beta"}, "73": {"stimulus": 687, "trial": 73, "rt": 443, "response": "Alpha"}, "72": {"stimulus": 1718, "trial": 72, "rt": 685, "response": "Alpha"}, "71": {"stimulus": 1187, "trial": 71, "rt": 447, "response": "Alpha"}, "70": {"stimulus": 1937, "trial": 70, "rt": 479, "response": "Alpha"}, "59": {"stimulus": 1280, "trial": 59, "rt": 641, "response": "Alpha"}, "79": {"stimulus": 0, "trial": 79, "rt": 1737, "response": "Beta"}, "58": {"stimulus": 2187, "trial": 58, "rt": 527, "response": "Alpha"}, "11": {"stimulus": 718, "trial": 11, "rt": 1217, "response": "Alpha"}, "10": {"stimulus": 1499, "trial": 10, "rt": 1890, "response": "Beta"}, "13": {"stimulus": 1249, "trial": 13, "rt": 871, "response": "Beta"}, "12": {"stimulus": 499, "trial": 12, "rt": 3902, "response": "Beta"}, "15": {"stimulus": 1624, "trial": 15, "rt": 625, "response": "Beta"}, "14": {"stimulus": 1312, "trial": 14, "rt": 959, "response": "Alpha"}, "17": {"stimulus": 1468, "trial": 17, "rt": 1714, "response": "Alpha"}, "16": {"stimulus": 2155, "trial": 16, "rt": 3515, "response": "Alpha"}, "19": {"stimulus": 30, "trial": 19, "rt": 3477, "response": "Beta"}, "18": {"stimulus": 2124, "trial": 18, "rt": 1431, "response": "Beta"}, "31": {"stimulus": 2499, "trial": 31, "rt": 1037, "response": "Alpha"}, "30": {"stimulus": 1999, "trial": 30, "rt": 1388, "response": "Beta"}, "37": {"stimulus": 2468, "trial": 37, "rt": 736, "response": "Alpha"}, "36": {"stimulus": 1749, "trial": 36, "rt": 592, "response": "Alpha"}, "35": {"stimulus": 1780, "trial": 35, "rt": 685, "response": "Alpha"}, "34": {"stimulus": 93, "trial": 34, "rt": 996, "response": "Beta"}, "33": {"stimulus": 2062, "trial": 33, "rt": 784, "response": "Alpha"}, "55": {"stimulus": 1968, "trial": 55, "rt": 717, "response": "Alpha"}, "74": {"stimulus": 187, "trial": 74, "rt": 956, "response": "Beta"}, "32": {"stimulus": 1687, "trial": 32, "rt": 60959, "response": "Alpha"}, "57": {"stimulus": 655, "trial": 57, "rt": 1054, "response": "Beta"}, "50": {"stimulus": 343, "trial": 50, "rt": 581, "response": "Alpha"}}, "experiment": {"Paradigm": "TACL", "Stimuli": "Size-Color Squares", "Experiment": "Generating-Multiple-Categories"}, "submit": {"timeTotal": 556871, "age": "21", "comments": "", "sex": "Male"}}