{"info": {"finish": 1548105733966, "participant": 223, "exposed": true, "lab": false, "start": 1548105231687, "counterbalance": 0, "gentype": 0, "condition": "Cluster", "browser": {"platform": "Linux x86_64", "userAgent": "Mozilla/5.0 (X11; CrOS x86_64 11151.59.0) AppleWebKit/537.36 (KHTML, like Gecko) Chrome/71.0.3578.94 Safari/537.36"}}, "observation": {"11": {"stimulus": 1083, "trial": 11, "rt": 1385}, "10": {"stimulus": 392, "trial": 10, "rt": 1395}, "1": {"stimulus": 1093, "trial": 1, "rt": 2257}, "0": {"stimulus": 1083, "trial": 0, "rt": 2734}, "3": {"stimulus": 583, "trial": 3, "rt": 1416}, "2": {"stimulus": 392, "trial": 2, "rt": 1588}, "5": {"stimulus": 583, "trial": 5, "rt": 1668}, "4": {"stimulus": 1083, "trial": 4, "rt": 1396}, "7": {"stimulus": 392, "trial": 7, "rt": 1414}, "6": {"stimulus": 1093, "trial": 6, "rt": 1213}, "9": {"stimulus": 583, "trial": 9, "rt": 1376}, "8": {"stimulus": 1093, "trial": 8, "rt": 1376}}, "generation": {"1": {"category": "Not-Alpha", "trial": 1, "stimulus": 0, "rt": 9840}, "0": {"category": "Not-Alpha", "trial": 0, "stimulus": 49, "rt": 18327}, "3": {"category": "Not-Alpha", "trial": 3, "stimulus": 2499, "rt": 12229}, "2": {"category": "Not-Alpha", "trial": 2, "stimulus": 2462, "rt": 8505}, "5": {"category": "Not-Alpha", "trial": 5, "stimulus": 272, "rt": 5256}, "4": {"category": "Not-Alpha", "trial": 4, "stimulus": 349, "rt": 8911}, "7": {"category": "Not-Alpha", "trial": 7, "stimulus": 2049, "rt": 9073}, "6": {"category": "Not-Alpha", "trial": 6, "stimulus": 37, "rt": 6175}}, "generalization": {"56": {"stimulus": 874, "trial": 56, "rt": 2369, "response": "Alpha"}, "77": {"stimulus": 1187, "trial": 77, "rt": 1278, "response": "Alpha"}, "54": {"stimulus": 0, "trial": 54, "rt": 767, "response": "Beta"}, "42": {"stimulus": 999, "trial": 42, "rt": 828, "response": "Alpha"}, "48": {"stimulus": 937, "trial": 48, "rt": 1485, "response": "Alpha"}, "43": {"stimulus": 2249, "trial": 43, "rt": 5559, "response": "Beta"}, "60": {"stimulus": 718, "trial": 60, "rt": 1134, "response": "Beta"}, "61": {"stimulus": 249, "trial": 61, "rt": 775, "response": "Beta"}, "62": {"stimulus": 280, "trial": 62, "rt": 807, "response": "Beta"}, "63": {"stimulus": 1687, "trial": 63, "rt": 878, "response": "Beta"}, "64": {"stimulus": 1968, "trial": 64, "rt": 706, "response": "Beta"}, "49": {"stimulus": 1437, "trial": 49, "rt": 622, "response": "Beta"}, "66": {"stimulus": 562, "trial": 66, "rt": 593, "response": "Beta"}, "67": {"stimulus": 218, "trial": 67, "rt": 667, "response": "Beta"}, "68": {"stimulus": 2187, "trial": 68, "rt": 766, "response": "Beta"}, "69": {"stimulus": 1062, "trial": 69, "rt": 622, "response": "Beta"}, "80": {"stimulus": 2343, "trial": 80, "rt": 1190, "response": "Beta"}, "52": {"stimulus": 1999, "trial": 52, "rt": 552, "response": "Alpha"}, "53": {"stimulus": 1874, "trial": 53, "rt": 774, "response": "Alpha"}, "24": {"stimulus": 1374, "trial": 24, "rt": 813, "response": "Alpha"}, "25": {"stimulus": 1124, "trial": 25, "rt": 693, "response": "Beta"}, "26": {"stimulus": 1749, "trial": 26, "rt": 8080, "response": "Beta"}, "27": {"stimulus": 1843, "trial": 27, "rt": 634, "response": "Beta"}, "20": {"stimulus": 655, "trial": 20, "rt": 1332, "response": "Beta"}, "21": {"stimulus": 468, "trial": 21, "rt": 2877, "response": "Alpha"}, "22": {"stimulus": 1593, "trial": 22, "rt": 758, "response": "Alpha"}, "23": {"stimulus": 2312, "trial": 23, "rt": 687, "response": "Beta"}, "46": {"stimulus": 1937, "trial": 46, "rt": 14640, "response": "Beta"}, "47": {"stimulus": 2030, "trial": 47, "rt": 638, "response": "Beta"}, "44": {"stimulus": 1249, "trial": 44, "rt": 1630, "response": "Alpha"}, "45": {"stimulus": 2280, "trial": 45, "rt": 1364, "response": "Beta"}, "28": {"stimulus": 1655, "trial": 28, "rt": 687, "response": "Beta"}, "29": {"stimulus": 968, "trial": 29, "rt": 1366, "response": "Beta"}, "40": {"stimulus": 624, "trial": 40, "rt": 1198, "response": "Alpha"}, "41": {"stimulus": 2437, "trial": 41, "rt": 891, "response": "Beta"}, "1": {"stimulus": 593, "trial": 1, "rt": 1561, "response": "Beta"}, "0": {"stimulus": 905, "trial": 0, "rt": 2657, "response": "Beta"}, "3": {"stimulus": 1468, "trial": 3, "rt": 1103, "response": "Alpha"}, "2": {"stimulus": 2468, "trial": 2, "rt": 1249, "response": "Beta"}, "5": {"stimulus": 1093, "trial": 5, "rt": 948, "response": "Alpha"}, "4": {"stimulus": 93, "trial": 4, "rt": 1181, "response": "Beta"}, "7": {"stimulus": 187, "trial": 7, "rt": 1756, "response": "Beta"}, "6": {"stimulus": 1405, "trial": 6, "rt": 1007, "response": "Beta"}, "9": {"stimulus": 530, "trial": 9, "rt": 1786, "response": "Alpha"}, "8": {"stimulus": 1624, "trial": 8, "rt": 1122, "response": "Alpha"}, "78": {"stimulus": 405, "trial": 78, "rt": 1367, "response": "Beta"}, "51": {"stimulus": 1218, "trial": 51, "rt": 1063, "response": "Alpha"}, "39": {"stimulus": 2405, "trial": 39, "rt": 1079, "response": "Beta"}, "65": {"stimulus": 2374, "trial": 65, "rt": 651, "response": "Beta"}, "76": {"stimulus": 1530, "trial": 76, "rt": 2086, "response": "Alpha"}, "75": {"stimulus": 30, "trial": 75, "rt": 1293, "response": "Beta"}, "38": {"stimulus": 843, "trial": 38, "rt": 727, "response": "Alpha"}, "73": {"stimulus": 2062, "trial": 73, "rt": 799, "response": "Beta"}, "72": {"stimulus": 812, "trial": 72, "rt": 703, "response": "Beta"}, "71": {"stimulus": 1780, "trial": 71, "rt": 1471, "response": "Beta"}, "70": {"stimulus": 1905, "trial": 70, "rt": 1008, "response": "Beta"}, "59": {"stimulus": 2093, "trial": 59, "rt": 732, "response": "Alpha"}, "79": {"stimulus": 1812, "trial": 79, "rt": 2542, "response": "Beta"}, "58": {"stimulus": 2499, "trial": 58, "rt": 2618, "response": "Beta"}, "11": {"stimulus": 780, "trial": 11, "rt": 995, "response": "Alpha"}, "10": {"stimulus": 62, "trial": 10, "rt": 1230, "response": "Beta"}, "13": {"stimulus": 749, "trial": 13, "rt": 802, "response": "Alpha"}, "12": {"stimulus": 1499, "trial": 12, "rt": 919, "response": "Beta"}, "15": {"stimulus": 2218, "trial": 15, "rt": 1530, "response": "Beta"}, "14": {"stimulus": 1312, "trial": 14, "rt": 1415, "response": "Alpha"}, "17": {"stimulus": 374, "trial": 17, "rt": 19870, "response": "Alpha"}, "16": {"stimulus": 1718, "trial": 16, "rt": 1881, "response": "Alpha"}, "19": {"stimulus": 1280, "trial": 19, "rt": 7646, "response": "Alpha"}, "18": {"stimulus": 1562, "trial": 18, "rt": 86059, "response": "Alpha"}, "31": {"stimulus": 1155, "trial": 31, "rt": 912, "response": "Beta"}, "30": {"stimulus": 343, "trial": 30, "rt": 1167, "response": "Beta"}, "37": {"stimulus": 437, "trial": 37, "rt": 1375, "response": "Alpha"}, "36": {"stimulus": 1030, "trial": 36, "rt": 433, "response": "Alpha"}, "35": {"stimulus": 2155, "trial": 35, "rt": 896, "response": "Beta"}, "34": {"stimulus": 2124, "trial": 34, "rt": 1623, "response": "Beta"}, "33": {"stimulus": 155, "trial": 33, "rt": 1054, "response": "Beta"}, "55": {"stimulus": 312, "trial": 55, "rt": 2074, "response": "Beta"}, "74": {"stimulus": 124, "trial": 74, "rt": 2286, "response": "Alpha"}, "32": {"stimulus": 499, "trial": 32, "rt": 40661, "response": "Alpha"}, "57": {"stimulus": 687, "trial": 57, "rt": 846, "response": "Alpha"}, "50": {"stimulus": 1343, "trial": 50, "rt": 695, "response": "Alpha"}}, "experiment": {"Paradigm": "TACL", "Stimuli": "Size-Color Squares", "Experiment": "Generating-Multiple-Categories"}, "submit": {"timeTotal": 502605, "age": "30", "comments": "I am very curious about the results of this, or for that matter what the use of the data from this experiment is. Anyhow, that was fun!", "sex": "non-binary"}}