{"info": {"finish": 1548105782852, "participant": 225, "exposed": true, "lab": false, "start": 1548105243857, "counterbalance": 2, "gentype": 1, "condition": "Cluster", "browser": {"platform": "Win32", "userAgent": "Mozilla/5.0 (Windows NT 10.0; Win64; x64) AppleWebKit/537.36 (KHTML, like Gecko) Chrome/71.0.3578.98 Safari/537.36"}}, "observation": {"11": {"stimulus": 1083, "trial": 11, "rt": 3142}, "10": {"stimulus": 583, "trial": 10, "rt": 2409}, "1": {"stimulus": 392, "trial": 1, "rt": 2627}, "0": {"stimulus": 583, "trial": 0, "rt": 3912}, "3": {"stimulus": 1093, "trial": 3, "rt": 2113}, "2": {"stimulus": 1083, "trial": 2, "rt": 2707}, "5": {"stimulus": 1093, "trial": 5, "rt": 2831}, "4": {"stimulus": 392, "trial": 4, "rt": 2202}, "7": {"stimulus": 1083, "trial": 7, "rt": 2699}, "6": {"stimulus": 583, "trial": 6, "rt": 2798}, "9": {"stimulus": 392, "trial": 9, "rt": 2628}, "8": {"stimulus": 1093, "trial": 8, "rt": 2701}}, "generation": {"1": {"category": "Beta", "trial": 1, "stimulus": 2456, "rt": 21071}, "0": {"category": "Beta", "trial": 0, "stimulus": 2450, "rt": 40805}, "3": {"category": "Beta", "trial": 3, "stimulus": 1650, "rt": 13289}, "2": {"category": "Beta", "trial": 2, "stimulus": 2205, "rt": 41391}, "5": {"category": "Beta", "trial": 5, "stimulus": 550, "rt": 4762}, "4": {"category": "Beta", "trial": 4, "stimulus": 1100, "rt": 5790}, "7": {"category": "Beta", "trial": 7, "stimulus": 557, "rt": 8539}, "6": {"category": "Beta", "trial": 6, "stimulus": 1358, "rt": 6165}}, "generalization": {"56": {"stimulus": 1812, "trial": 56, "rt": 696, "response": "Beta"}, "77": {"stimulus": 62, "trial": 77, "rt": 891, "response": "Beta"}, "54": {"stimulus": 1999, "trial": 54, "rt": 691, "response": "Alpha"}, "42": {"stimulus": 2374, "trial": 42, "rt": 3448, "response": "Beta"}, "48": {"stimulus": 374, "trial": 48, "rt": 1341, "response": "Beta"}, "43": {"stimulus": 1124, "trial": 43, "rt": 2364, "response": "Beta"}, "60": {"stimulus": 1624, "trial": 60, "rt": 2934, "response": "Beta"}, "61": {"stimulus": 2343, "trial": 61, "rt": 868, "response": "Alpha"}, "62": {"stimulus": 1187, "trial": 62, "rt": 861, "response": "Alpha"}, "63": {"stimulus": 1687, "trial": 63, "rt": 1366, "response": "Alpha"}, "64": {"stimulus": 1499, "trial": 64, "rt": 914, "response": "Alpha"}, "49": {"stimulus": 562, "trial": 49, "rt": 905, "response": "Beta"}, "66": {"stimulus": 1655, "trial": 66, "rt": 667, "response": "Beta"}, "67": {"stimulus": 499, "trial": 67, "rt": 922, "response": "Alpha"}, "68": {"stimulus": 905, "trial": 68, "rt": 1071, "response": "Beta"}, "69": {"stimulus": 1593, "trial": 69, "rt": 781, "response": "Alpha"}, "80": {"stimulus": 1937, "trial": 80, "rt": 829, "response": "Alpha"}, "52": {"stimulus": 1343, "trial": 52, "rt": 845, "response": "Alpha"}, "53": {"stimulus": 2187, "trial": 53, "rt": 649, "response": "Alpha"}, "24": {"stimulus": 718, "trial": 24, "rt": 6648, "response": "Beta"}, "25": {"stimulus": 1312, "trial": 25, "rt": 3040, "response": "Beta"}, "26": {"stimulus": 1780, "trial": 26, "rt": 2193, "response": "Alpha"}, "27": {"stimulus": 280, "trial": 27, "rt": 1374, "response": "Alpha"}, "20": {"stimulus": 2499, "trial": 20, "rt": 1016, "response": "Alpha"}, "21": {"stimulus": 1843, "trial": 21, "rt": 807, "response": "Alpha"}, "22": {"stimulus": 1093, "trial": 22, "rt": 815, "response": "Alpha"}, "23": {"stimulus": 0, "trial": 23, "rt": 1192, "response": "Beta"}, "46": {"stimulus": 1874, "trial": 46, "rt": 4333, "response": "Beta"}, "47": {"stimulus": 2062, "trial": 47, "rt": 1070, "response": "Beta"}, "44": {"stimulus": 1155, "trial": 44, "rt": 805, "response": "Beta"}, "45": {"stimulus": 187, "trial": 45, "rt": 1531, "response": "Alpha"}, "28": {"stimulus": 2124, "trial": 28, "rt": 5263, "response": "Beta"}, "29": {"stimulus": 1905, "trial": 29, "rt": 1062, "response": "Beta"}, "40": {"stimulus": 343, "trial": 40, "rt": 869, "response": "Alpha"}, "41": {"stimulus": 937, "trial": 41, "rt": 800, "response": "Alpha"}, "1": {"stimulus": 1374, "trial": 1, "rt": 4617, "response": "Beta"}, "0": {"stimulus": 593, "trial": 0, "rt": 4207, "response": "Alpha"}, "3": {"stimulus": 1437, "trial": 3, "rt": 1350, "response": "Alpha"}, "2": {"stimulus": 312, "trial": 2, "rt": 4208, "response": "Beta"}, "5": {"stimulus": 1468, "trial": 5, "rt": 7324, "response": "Beta"}, "4": {"stimulus": 812, "trial": 4, "rt": 2474, "response": "Beta"}, "7": {"stimulus": 2218, "trial": 7, "rt": 1734, "response": "Beta"}, "6": {"stimulus": 2093, "trial": 6, "rt": 1024, "response": "Alpha"}, "9": {"stimulus": 1280, "trial": 9, "rt": 9883, "response": "Alpha"}, "8": {"stimulus": 1405, "trial": 8, "rt": 12048, "response": "Beta"}, "78": {"stimulus": 1530, "trial": 78, "rt": 914, "response": "Alpha"}, "51": {"stimulus": 405, "trial": 51, "rt": 932, "response": "Beta"}, "39": {"stimulus": 1062, "trial": 39, "rt": 671, "response": "Beta"}, "65": {"stimulus": 1562, "trial": 65, "rt": 1070, "response": "Beta"}, "76": {"stimulus": 2280, "trial": 76, "rt": 4964, "response": "Alpha"}, "75": {"stimulus": 749, "trial": 75, "rt": 696, "response": "Alpha"}, "38": {"stimulus": 1718, "trial": 38, "rt": 861, "response": "Beta"}, "73": {"stimulus": 1218, "trial": 73, "rt": 2114, "response": "Beta"}, "72": {"stimulus": 93, "trial": 72, "rt": 955, "response": "Alpha"}, "71": {"stimulus": 2468, "trial": 71, "rt": 962, "response": "Beta"}, "70": {"stimulus": 124, "trial": 70, "rt": 3612, "response": "Beta"}, "59": {"stimulus": 2312, "trial": 59, "rt": 1149, "response": "Beta"}, "79": {"stimulus": 468, "trial": 79, "rt": 1250, "response": "Beta"}, "58": {"stimulus": 780, "trial": 58, "rt": 6025, "response": "Alpha"}, "11": {"stimulus": 530, "trial": 11, "rt": 1149, "response": "Alpha"}, "10": {"stimulus": 655, "trial": 10, "rt": 1516, "response": "Beta"}, "13": {"stimulus": 1030, "trial": 13, "rt": 13841, "response": "Beta"}, "12": {"stimulus": 2437, "trial": 12, "rt": 10270, "response": "Alpha"}, "15": {"stimulus": 437, "trial": 15, "rt": 4684, "response": "Alpha"}, "14": {"stimulus": 999, "trial": 14, "rt": 1435, "response": "Alpha"}, "17": {"stimulus": 1968, "trial": 17, "rt": 1079, "response": "Beta"}, "16": {"stimulus": 968, "trial": 16, "rt": 1288, "response": "Beta"}, "19": {"stimulus": 2155, "trial": 19, "rt": 1156, "response": "Beta"}, "18": {"stimulus": 687, "trial": 18, "rt": 3680, "response": "Alpha"}, "31": {"stimulus": 1249, "trial": 31, "rt": 963, "response": "Alpha"}, "30": {"stimulus": 2405, "trial": 30, "rt": 814, "response": "Beta"}, "37": {"stimulus": 624, "trial": 37, "rt": 1135, "response": "Beta"}, "36": {"stimulus": 843, "trial": 36, "rt": 897, "response": "Alpha"}, "35": {"stimulus": 874, "trial": 35, "rt": 4108, "response": "Beta"}, "34": {"stimulus": 218, "trial": 34, "rt": 3057, "response": "Beta"}, "33": {"stimulus": 30, "trial": 33, "rt": 814, "response": "Alpha"}, "55": {"stimulus": 155, "trial": 55, "rt": 1107, "response": "Beta"}, "74": {"stimulus": 249, "trial": 74, "rt": 915, "response": "Alpha"}, "32": {"stimulus": 2030, "trial": 32, "rt": 2674, "response": "Alpha"}, "57": {"stimulus": 1749, "trial": 57, "rt": 1087, "response": "Alpha"}, "50": {"stimulus": 2249, "trial": 50, "rt": 1104, "response": "Alpha"}}, "experiment": {"Paradigm": "TACL", "Stimuli": "Size-Color Squares", "Experiment": "Generating-Multiple-Categories"}, "submit": {"timeTotal": 539372, "age": "65", "comments": "I have no idea", "sex": "male"}}