{"info": {"finish": 1548106095152, "participant": 229, "exposed": true, "lab": false, "start": 1548105737264, "counterbalance": 2, "gentype": 1, "condition": "Cluster", "browser": {"platform": "Win32", "userAgent": "Mozilla/5.0 (Windows NT 6.1) AppleWebKit/537.36 (KHTML, like Gecko) Chrome/71.0.3578.98 Safari/537.36"}}, "observation": {"11": {"stimulus": 392, "trial": 11, "rt": 1549}, "10": {"stimulus": 1083, "trial": 10, "rt": 2232}, "1": {"stimulus": 583, "trial": 1, "rt": 2155}, "0": {"stimulus": 1083, "trial": 0, "rt": 3964}, "3": {"stimulus": 392, "trial": 3, "rt": 1719}, "2": {"stimulus": 1093, "trial": 2, "rt": 1715}, "5": {"stimulus": 583, "trial": 5, "rt": 1828}, "4": {"stimulus": 392, "trial": 4, "rt": 2777}, "7": {"stimulus": 1093, "trial": 7, "rt": 2224}, "6": {"stimulus": 1083, "trial": 6, "rt": 1868}, "9": {"stimulus": 1093, "trial": 9, "rt": 1648}, "8": {"stimulus": 583, "trial": 8, "rt": 1576}}, "generation": {"1": {"category": "Beta", "trial": 1, "stimulus": 1493, "rt": 12669}, "0": {"category": "Beta", "trial": 0, "stimulus": 2477, "rt": 7087}, "3": {"category": "Beta", "trial": 3, "stimulus": 2473, "rt": 6791}, "2": {"category": "Beta", "trial": 2, "stimulus": 2009, "rt": 6589}, "5": {"category": "Beta", "trial": 5, "stimulus": 1732, "rt": 3101}, "4": {"category": "Beta", "trial": 4, "stimulus": 1181, "rt": 9775}, "7": {"category": "Beta", "trial": 7, "stimulus": 848, "rt": 6412}, "6": {"category": "Beta", "trial": 6, "stimulus": 319, "rt": 4050}}, "generalization": {"56": {"stimulus": 2499, "trial": 56, "rt": 572, "response": "Beta"}, "77": {"stimulus": 1093, "trial": 77, "rt": 937, "response": "Beta"}, "54": {"stimulus": 2218, "trial": 54, "rt": 2665, "response": "Beta"}, "42": {"stimulus": 593, "trial": 42, "rt": 2040, "response": "Alpha"}, "48": {"stimulus": 2093, "trial": 48, "rt": 2252, "response": "Beta"}, "43": {"stimulus": 1718, "trial": 43, "rt": 994, "response": "Beta"}, "60": {"stimulus": 2312, "trial": 60, "rt": 850, "response": "Beta"}, "61": {"stimulus": 874, "trial": 61, "rt": 872, "response": "Alpha"}, "62": {"stimulus": 280, "trial": 62, "rt": 840, "response": "Alpha"}, "63": {"stimulus": 374, "trial": 63, "rt": 665, "response": "Alpha"}, "64": {"stimulus": 905, "trial": 64, "rt": 524, "response": "Alpha"}, "49": {"stimulus": 312, "trial": 49, "rt": 1064, "response": "Alpha"}, "66": {"stimulus": 1780, "trial": 66, "rt": 602, "response": "Beta"}, "67": {"stimulus": 749, "trial": 67, "rt": 1055, "response": "Alpha"}, "68": {"stimulus": 687, "trial": 68, "rt": 2088, "response": "Beta"}, "69": {"stimulus": 718, "trial": 69, "rt": 875, "response": "Alpha"}, "80": {"stimulus": 2249, "trial": 80, "rt": 462, "response": "Beta"}, "52": {"stimulus": 1374, "trial": 52, "rt": 1899, "response": "Beta"}, "53": {"stimulus": 2062, "trial": 53, "rt": 962, "response": "Beta"}, "24": {"stimulus": 1843, "trial": 24, "rt": 1838, "response": "Beta"}, "25": {"stimulus": 155, "trial": 25, "rt": 1797, "response": "Alpha"}, "26": {"stimulus": 0, "trial": 26, "rt": 1129, "response": "Alpha"}, "27": {"stimulus": 2405, "trial": 27, "rt": 984, "response": "Beta"}, "20": {"stimulus": 30, "trial": 20, "rt": 834, "response": "Alpha"}, "21": {"stimulus": 999, "trial": 21, "rt": 613, "response": "Alpha"}, "22": {"stimulus": 780, "trial": 22, "rt": 594, "response": "Alpha"}, "23": {"stimulus": 405, "trial": 23, "rt": 616, "response": "Alpha"}, "46": {"stimulus": 437, "trial": 46, "rt": 1113, "response": "Alpha"}, "47": {"stimulus": 1562, "trial": 47, "rt": 1024, "response": "Beta"}, "44": {"stimulus": 2343, "trial": 44, "rt": 926, "response": "Beta"}, "45": {"stimulus": 1687, "trial": 45, "rt": 2913, "response": "Beta"}, "28": {"stimulus": 124, "trial": 28, "rt": 823, "response": "Alpha"}, "29": {"stimulus": 62, "trial": 29, "rt": 981, "response": "Alpha"}, "40": {"stimulus": 1155, "trial": 40, "rt": 811, "response": "Beta"}, "41": {"stimulus": 1499, "trial": 41, "rt": 1022, "response": "Beta"}, "1": {"stimulus": 2155, "trial": 1, "rt": 1167, "response": "Beta"}, "0": {"stimulus": 218, "trial": 0, "rt": 4979, "response": "Alpha"}, "3": {"stimulus": 1405, "trial": 3, "rt": 958, "response": "Beta"}, "2": {"stimulus": 1187, "trial": 2, "rt": 912, "response": "Alpha"}, "5": {"stimulus": 1468, "trial": 5, "rt": 839, "response": "Beta"}, "4": {"stimulus": 562, "trial": 4, "rt": 1543, "response": "Alpha"}, "7": {"stimulus": 2468, "trial": 7, "rt": 675, "response": "Beta"}, "6": {"stimulus": 937, "trial": 6, "rt": 1610, "response": "Alpha"}, "9": {"stimulus": 1437, "trial": 9, "rt": 818, "response": "Beta"}, "8": {"stimulus": 1343, "trial": 8, "rt": 1127, "response": "Beta"}, "78": {"stimulus": 1249, "trial": 78, "rt": 621, "response": "Beta"}, "51": {"stimulus": 2280, "trial": 51, "rt": 1187, "response": "Beta"}, "39": {"stimulus": 1124, "trial": 39, "rt": 1503, "response": "Beta"}, "65": {"stimulus": 1030, "trial": 65, "rt": 508, "response": "Alpha"}, "76": {"stimulus": 530, "trial": 76, "rt": 2363, "response": "Alpha"}, "75": {"stimulus": 468, "trial": 75, "rt": 3362, "response": "Beta"}, "38": {"stimulus": 812, "trial": 38, "rt": 954, "response": "Alpha"}, "73": {"stimulus": 1655, "trial": 73, "rt": 788, "response": "Beta"}, "72": {"stimulus": 843, "trial": 72, "rt": 1194, "response": "Alpha"}, "71": {"stimulus": 1530, "trial": 71, "rt": 639, "response": "Beta"}, "70": {"stimulus": 2030, "trial": 70, "rt": 842, "response": "Beta"}, "59": {"stimulus": 1062, "trial": 59, "rt": 2119, "response": "Beta"}, "79": {"stimulus": 2124, "trial": 79, "rt": 528, "response": "Beta"}, "58": {"stimulus": 1280, "trial": 58, "rt": 1126, "response": "Beta"}, "11": {"stimulus": 1749, "trial": 11, "rt": 879, "response": "Beta"}, "10": {"stimulus": 249, "trial": 10, "rt": 2174, "response": "Beta"}, "13": {"stimulus": 499, "trial": 13, "rt": 1076, "response": "Alpha"}, "12": {"stimulus": 187, "trial": 12, "rt": 622, "response": "Alpha"}, "15": {"stimulus": 1312, "trial": 15, "rt": 1063, "response": "Beta"}, "14": {"stimulus": 624, "trial": 14, "rt": 766, "response": "Beta"}, "17": {"stimulus": 343, "trial": 17, "rt": 645, "response": "Beta"}, "16": {"stimulus": 655, "trial": 16, "rt": 1080, "response": "Alpha"}, "19": {"stimulus": 1999, "trial": 19, "rt": 567, "response": "Beta"}, "18": {"stimulus": 1218, "trial": 18, "rt": 660, "response": "Beta"}, "31": {"stimulus": 2437, "trial": 31, "rt": 918, "response": "Beta"}, "30": {"stimulus": 1593, "trial": 30, "rt": 998, "response": "Beta"}, "37": {"stimulus": 2187, "trial": 37, "rt": 1081, "response": "Beta"}, "36": {"stimulus": 1968, "trial": 36, "rt": 550, "response": "Beta"}, "35": {"stimulus": 1905, "trial": 35, "rt": 667, "response": "Beta"}, "34": {"stimulus": 968, "trial": 34, "rt": 1415, "response": "Alpha"}, "33": {"stimulus": 1937, "trial": 33, "rt": 551, "response": "Beta"}, "55": {"stimulus": 1812, "trial": 55, "rt": 664, "response": "Beta"}, "74": {"stimulus": 1624, "trial": 74, "rt": 631, "response": "Beta"}, "32": {"stimulus": 1874, "trial": 32, "rt": 932, "response": "Beta"}, "57": {"stimulus": 93, "trial": 57, "rt": 1212, "response": "Alpha"}, "50": {"stimulus": 2374, "trial": 50, "rt": 664, "response": "Beta"}}, "experiment": {"Paradigm": "TACL", "Stimuli": "Size-Color Squares", "Experiment": "Generating-Multiple-Categories"}, "submit": {"timeTotal": 359645, "age": "34", "comments": "This experiment about Categorization the alpha and beta shapes.", "sex": "Male"}}