{"info": {"finish": 1548106136100, "participant": 230, "exposed": true, "lab": false, "start": 1548105647076, "counterbalance": 3, "gentype": 1, "condition": "Row", "browser": {"platform": "Win32", "userAgent": "Mozilla/5.0 (Windows NT 10.0; Win64; x64) AppleWebKit/537.36 (KHTML, like Gecko) Chrome/71.0.3578.98 Safari/537.36"}}, "observation": {"11": {"stimulus": 493, "trial": 11, "rt": 1665}, "10": {"stimulus": 612, "trial": 10, "rt": 2197}, "1": {"stimulus": 493, "trial": 1, "rt": 1721}, "0": {"stimulus": 421, "trial": 0, "rt": 2866}, "3": {"stimulus": 612, "trial": 3, "rt": 1672}, "2": {"stimulus": 582, "trial": 2, "rt": 1669}, "5": {"stimulus": 612, "trial": 5, "rt": 1640}, "4": {"stimulus": 493, "trial": 4, "rt": 1700}, "7": {"stimulus": 421, "trial": 7, "rt": 1733}, "6": {"stimulus": 582, "trial": 6, "rt": 1640}, "9": {"stimulus": 582, "trial": 9, "rt": 1597}, "8": {"stimulus": 421, "trial": 8, "rt": 1944}}, "generation": {"1": {"category": "Beta", "trial": 1, "stimulus": 2226, "rt": 4177}, "0": {"category": "Beta", "trial": 0, "stimulus": 2237, "rt": 13710}, "3": {"category": "Beta", "trial": 3, "stimulus": 2242, "rt": 3684}, "2": {"category": "Beta", "trial": 2, "stimulus": 2203, "rt": 4583}, "5": {"category": "Beta", "trial": 5, "stimulus": 2219, "rt": 4772}, "4": {"category": "Beta", "trial": 4, "stimulus": 2249, "rt": 5189}, "7": {"category": "Beta", "trial": 7, "stimulus": 2210, "rt": 6002}, "6": {"category": "Beta", "trial": 6, "stimulus": 2239, "rt": 3369}}, "generalization": {"56": {"stimulus": 93, "trial": 56, "rt": 852, "response": "Alpha"}, "77": {"stimulus": 1030, "trial": 77, "rt": 836, "response": "Alpha"}, "54": {"stimulus": 1218, "trial": 54, "rt": 936, "response": "Alpha"}, "42": {"stimulus": 937, "trial": 42, "rt": 1131, "response": "Alpha"}, "48": {"stimulus": 843, "trial": 48, "rt": 821, "response": "Alpha"}, "43": {"stimulus": 1312, "trial": 43, "rt": 1309, "response": "Alpha"}, "60": {"stimulus": 62, "trial": 60, "rt": 752, "response": "Alpha"}, "61": {"stimulus": 1280, "trial": 61, "rt": 1288, "response": "Alpha"}, "62": {"stimulus": 1593, "trial": 62, "rt": 1836, "response": "Alpha"}, "63": {"stimulus": 2312, "trial": 63, "rt": 1316, "response": "Beta"}, "64": {"stimulus": 1437, "trial": 64, "rt": 1396, "response": "Alpha"}, "49": {"stimulus": 562, "trial": 49, "rt": 725, "response": "Alpha"}, "66": {"stimulus": 1968, "trial": 66, "rt": 1957, "response": "Beta"}, "67": {"stimulus": 593, "trial": 67, "rt": 1380, "response": "Alpha"}, "68": {"stimulus": 2030, "trial": 68, "rt": 3128, "response": "Beta"}, "69": {"stimulus": 1655, "trial": 69, "rt": 1353, "response": "Alpha"}, "80": {"stimulus": 1999, "trial": 80, "rt": 1329, "response": "Beta"}, "52": {"stimulus": 2280, "trial": 52, "rt": 924, "response": "Beta"}, "53": {"stimulus": 1562, "trial": 53, "rt": 3331, "response": "Alpha"}, "24": {"stimulus": 218, "trial": 24, "rt": 1077, "response": "Alpha"}, "25": {"stimulus": 1343, "trial": 25, "rt": 852, "response": "Alpha"}, "26": {"stimulus": 530, "trial": 26, "rt": 917, "response": "Alpha"}, "27": {"stimulus": 1874, "trial": 27, "rt": 1684, "response": "Beta"}, "20": {"stimulus": 30, "trial": 20, "rt": 1408, "response": "Alpha"}, "21": {"stimulus": 124, "trial": 21, "rt": 821, "response": "Alpha"}, "22": {"stimulus": 1249, "trial": 22, "rt": 800, "response": "Alpha"}, "23": {"stimulus": 1687, "trial": 23, "rt": 1732, "response": "Beta"}, "46": {"stimulus": 1749, "trial": 46, "rt": 1445, "response": "Beta"}, "47": {"stimulus": 1624, "trial": 47, "rt": 1415, "response": "Alpha"}, "44": {"stimulus": 2062, "trial": 44, "rt": 1476, "response": "Beta"}, "45": {"stimulus": 1062, "trial": 45, "rt": 1297, "response": "Alpha"}, "28": {"stimulus": 2499, "trial": 28, "rt": 1069, "response": "Beta"}, "29": {"stimulus": 749, "trial": 29, "rt": 1404, "response": "Alpha"}, "40": {"stimulus": 999, "trial": 40, "rt": 1425, "response": "Alpha"}, "41": {"stimulus": 1124, "trial": 41, "rt": 857, "response": "Alpha"}, "1": {"stimulus": 1530, "trial": 1, "rt": 1712, "response": "Alpha"}, "0": {"stimulus": 1905, "trial": 0, "rt": 1960, "response": "Beta"}, "3": {"stimulus": 1812, "trial": 3, "rt": 1813, "response": "Beta"}, "2": {"stimulus": 687, "trial": 2, "rt": 1211, "response": "Alpha"}, "5": {"stimulus": 780, "trial": 5, "rt": 1069, "response": "Alpha"}, "4": {"stimulus": 312, "trial": 4, "rt": 1860, "response": "Alpha"}, "7": {"stimulus": 1187, "trial": 7, "rt": 2357, "response": "Alpha"}, "6": {"stimulus": 1780, "trial": 6, "rt": 1692, "response": "Beta"}, "9": {"stimulus": 1468, "trial": 9, "rt": 1932, "response": "Alpha"}, "8": {"stimulus": 905, "trial": 8, "rt": 1052, "response": "Alpha"}, "78": {"stimulus": 812, "trial": 78, "rt": 839, "response": "Alpha"}, "51": {"stimulus": 2187, "trial": 51, "rt": 1680, "response": "Beta"}, "39": {"stimulus": 405, "trial": 39, "rt": 1536, "response": "Alpha"}, "65": {"stimulus": 968, "trial": 65, "rt": 796, "response": "Alpha"}, "76": {"stimulus": 1155, "trial": 76, "rt": 1332, "response": "Alpha"}, "75": {"stimulus": 2374, "trial": 75, "rt": 940, "response": "Beta"}, "38": {"stimulus": 2249, "trial": 38, "rt": 1281, "response": "Beta"}, "73": {"stimulus": 2468, "trial": 73, "rt": 1297, "response": "Beta"}, "72": {"stimulus": 374, "trial": 72, "rt": 2587, "response": "Alpha"}, "71": {"stimulus": 2437, "trial": 71, "rt": 1516, "response": "Beta"}, "70": {"stimulus": 468, "trial": 70, "rt": 733, "response": "Alpha"}, "59": {"stimulus": 0, "trial": 59, "rt": 753, "response": "Alpha"}, "79": {"stimulus": 874, "trial": 79, "rt": 784, "response": "Alpha"}, "58": {"stimulus": 1405, "trial": 58, "rt": 1604, "response": "Alpha"}, "11": {"stimulus": 2155, "trial": 11, "rt": 1616, "response": "Beta"}, "10": {"stimulus": 437, "trial": 10, "rt": 1048, "response": "Alpha"}, "13": {"stimulus": 2218, "trial": 13, "rt": 1009, "response": "Beta"}, "12": {"stimulus": 1718, "trial": 12, "rt": 2295, "response": "Beta"}, "15": {"stimulus": 624, "trial": 15, "rt": 829, "response": "Alpha"}, "14": {"stimulus": 1093, "trial": 14, "rt": 1357, "response": "Alpha"}, "17": {"stimulus": 1499, "trial": 17, "rt": 960, "response": "Alpha"}, "16": {"stimulus": 1374, "trial": 16, "rt": 812, "response": "Alpha"}, "19": {"stimulus": 1937, "trial": 19, "rt": 1176, "response": "Beta"}, "18": {"stimulus": 2124, "trial": 18, "rt": 2056, "response": "Beta"}, "31": {"stimulus": 249, "trial": 31, "rt": 752, "response": "Alpha"}, "30": {"stimulus": 499, "trial": 30, "rt": 713, "response": "Alpha"}, "37": {"stimulus": 655, "trial": 37, "rt": 3480, "response": "Alpha"}, "36": {"stimulus": 2343, "trial": 36, "rt": 1555, "response": "Beta"}, "35": {"stimulus": 155, "trial": 35, "rt": 1336, "response": "Alpha"}, "34": {"stimulus": 2405, "trial": 34, "rt": 1504, "response": "Beta"}, "33": {"stimulus": 718, "trial": 33, "rt": 1269, "response": "Alpha"}, "55": {"stimulus": 343, "trial": 55, "rt": 901, "response": "Alpha"}, "74": {"stimulus": 2093, "trial": 74, "rt": 1109, "response": "Beta"}, "32": {"stimulus": 1843, "trial": 32, "rt": 3515, "response": "Beta"}, "57": {"stimulus": 280, "trial": 57, "rt": 752, "response": "Alpha"}, "50": {"stimulus": 187, "trial": 50, "rt": 761, "response": "Alpha"}}, "experiment": {"Paradigm": "TACL", "Stimuli": "Size-Color Squares", "Experiment": "Generating-Multiple-Categories"}, "submit": {"timeTotal": 489174, "age": "28", "comments": "N/A", "sex": "female"}}