{"info": {"finish": 1548108248859, "participant": 238, "exposed": true, "lab": false, "start": 1548107882930, "counterbalance": 2, "gentype": 1, "condition": "XOR", "browser": {"platform": "MacIntel", "userAgent": "Mozilla/5.0 (Macintosh; Intel Mac OS X 10_14_2) AppleWebKit/537.36 (KHTML, like Gecko) Chrome/71.0.3578.98 Safari/537.36"}}, "observation": {"11": {"stimulus": 818, "trial": 11, "rt": 2029}, "10": {"stimulus": 1890, "trial": 10, "rt": 1935}, "1": {"stimulus": 818, "trial": 1, "rt": 2456}, "0": {"stimulus": 1890, "trial": 0, "rt": 3564}, "3": {"stimulus": 1479, "trial": 3, "rt": 1943}, "2": {"stimulus": 403, "trial": 2, "rt": 2597}, "5": {"stimulus": 1890, "trial": 5, "rt": 1660}, "4": {"stimulus": 818, "trial": 4, "rt": 1740}, "7": {"stimulus": 403, "trial": 7, "rt": 2309}, "6": {"stimulus": 1479, "trial": 6, "rt": 1926}, "9": {"stimulus": 1479, "trial": 9, "rt": 2334}, "8": {"stimulus": 403, "trial": 8, "rt": 2214}}, "generation": {"1": {"category": "Beta", "trial": 1, "stimulus": 34, "rt": 9011}, "0": {"category": "Beta", "trial": 0, "stimulus": 42, "rt": 24355}, "3": {"category": "Beta", "trial": 3, "stimulus": 0, "rt": 3305}, "2": {"category": "Beta", "trial": 2, "stimulus": 49, "rt": 9748}, "5": {"category": "Beta", "trial": 5, "stimulus": 13, "rt": 3910}, "4": {"category": "Beta", "trial": 4, "stimulus": 5, "rt": 5122}, "7": {"category": "Beta", "trial": 7, "stimulus": 22, "rt": 4284}, "6": {"category": "Beta", "trial": 6, "stimulus": 17, "rt": 3715}}, "generalization": {"56": {"stimulus": 1437, "trial": 56, "rt": 463, "response": "Alpha"}, "77": {"stimulus": 437, "trial": 77, "rt": 804, "response": "Alpha"}, "54": {"stimulus": 655, "trial": 54, "rt": 498, "response": "Alpha"}, "42": {"stimulus": 937, "trial": 42, "rt": 564, "response": "Alpha"}, "48": {"stimulus": 218, "trial": 48, "rt": 1380, "response": "Beta"}, "43": {"stimulus": 2343, "trial": 43, "rt": 488, "response": "Alpha"}, "60": {"stimulus": 1530, "trial": 60, "rt": 462, "response": "Alpha"}, "61": {"stimulus": 155, "trial": 61, "rt": 945, "response": "Beta"}, "62": {"stimulus": 1562, "trial": 62, "rt": 518, "response": "Alpha"}, "63": {"stimulus": 780, "trial": 63, "rt": 537, "response": "Alpha"}, "64": {"stimulus": 2218, "trial": 64, "rt": 461, "response": "Alpha"}, "49": {"stimulus": 687, "trial": 49, "rt": 493, "response": "Alpha"}, "66": {"stimulus": 280, "trial": 66, "rt": 962, "response": "Alpha"}, "67": {"stimulus": 249, "trial": 67, "rt": 740, "response": "Beta"}, "68": {"stimulus": 718, "trial": 68, "rt": 573, "response": "Alpha"}, "69": {"stimulus": 1718, "trial": 69, "rt": 457, "response": "Alpha"}, "80": {"stimulus": 874, "trial": 80, "rt": 553, "response": "Alpha"}, "52": {"stimulus": 468, "trial": 52, "rt": 497, "response": "Alpha"}, "53": {"stimulus": 187, "trial": 53, "rt": 957, "response": "Beta"}, "24": {"stimulus": 2093, "trial": 24, "rt": 565, "response": "Alpha"}, "25": {"stimulus": 1468, "trial": 25, "rt": 654, "response": "Alpha"}, "26": {"stimulus": 1499, "trial": 26, "rt": 539, "response": "Alpha"}, "27": {"stimulus": 1343, "trial": 27, "rt": 526, "response": "Alpha"}, "20": {"stimulus": 93, "trial": 20, "rt": 826, "response": "Beta"}, "21": {"stimulus": 1780, "trial": 21, "rt": 697, "response": "Alpha"}, "22": {"stimulus": 2280, "trial": 22, "rt": 582, "response": "Alpha"}, "23": {"stimulus": 2437, "trial": 23, "rt": 537, "response": "Alpha"}, "46": {"stimulus": 2062, "trial": 46, "rt": 426, "response": "Alpha"}, "47": {"stimulus": 2468, "trial": 47, "rt": 421, "response": "Alpha"}, "44": {"stimulus": 62, "trial": 44, "rt": 1806, "response": "Beta"}, "45": {"stimulus": 405, "trial": 45, "rt": 474, "response": "Alpha"}, "28": {"stimulus": 1218, "trial": 28, "rt": 584, "response": "Alpha"}, "29": {"stimulus": 1874, "trial": 29, "rt": 587, "response": "Alpha"}, "40": {"stimulus": 2155, "trial": 40, "rt": 536, "response": "Alpha"}, "41": {"stimulus": 2499, "trial": 41, "rt": 473, "response": "Alpha"}, "1": {"stimulus": 374, "trial": 1, "rt": 2492, "response": "Alpha"}, "0": {"stimulus": 2187, "trial": 0, "rt": 1421, "response": "Alpha"}, "3": {"stimulus": 0, "trial": 3, "rt": 878, "response": "Beta"}, "2": {"stimulus": 905, "trial": 2, "rt": 927, "response": "Alpha"}, "5": {"stimulus": 499, "trial": 5, "rt": 840, "response": "Alpha"}, "4": {"stimulus": 1655, "trial": 4, "rt": 791, "response": "Alpha"}, "7": {"stimulus": 2374, "trial": 7, "rt": 643, "response": "Alpha"}, "6": {"stimulus": 1280, "trial": 6, "rt": 679, "response": "Alpha"}, "9": {"stimulus": 593, "trial": 9, "rt": 890, "response": "Alpha"}, "8": {"stimulus": 2030, "trial": 8, "rt": 979, "response": "Alpha"}, "78": {"stimulus": 1937, "trial": 78, "rt": 469, "response": "Alpha"}, "51": {"stimulus": 30, "trial": 51, "rt": 899, "response": "Beta"}, "39": {"stimulus": 2312, "trial": 39, "rt": 477, "response": "Alpha"}, "65": {"stimulus": 1843, "trial": 65, "rt": 479, "response": "Alpha"}, "76": {"stimulus": 999, "trial": 76, "rt": 520, "response": "Alpha"}, "75": {"stimulus": 1093, "trial": 75, "rt": 456, "response": "Alpha"}, "38": {"stimulus": 1405, "trial": 38, "rt": 455, "response": "Alpha"}, "73": {"stimulus": 1593, "trial": 73, "rt": 552, "response": "Alpha"}, "72": {"stimulus": 1624, "trial": 72, "rt": 494, "response": "Alpha"}, "71": {"stimulus": 1687, "trial": 71, "rt": 477, "response": "Alpha"}, "70": {"stimulus": 530, "trial": 70, "rt": 706, "response": "Alpha"}, "59": {"stimulus": 2124, "trial": 59, "rt": 537, "response": "Alpha"}, "79": {"stimulus": 343, "trial": 79, "rt": 5302, "response": "Beta"}, "58": {"stimulus": 124, "trial": 58, "rt": 1125, "response": "Beta"}, "11": {"stimulus": 1812, "trial": 11, "rt": 1065, "response": "Alpha"}, "10": {"stimulus": 1905, "trial": 10, "rt": 1060, "response": "Alpha"}, "13": {"stimulus": 1062, "trial": 13, "rt": 1154, "response": "Alpha"}, "12": {"stimulus": 1249, "trial": 12, "rt": 1099, "response": "Alpha"}, "15": {"stimulus": 1155, "trial": 15, "rt": 1172, "response": "Alpha"}, "14": {"stimulus": 2249, "trial": 14, "rt": 839, "response": "Alpha"}, "17": {"stimulus": 1124, "trial": 17, "rt": 799, "response": "Alpha"}, "16": {"stimulus": 1749, "trial": 16, "rt": 832, "response": "Alpha"}, "19": {"stimulus": 562, "trial": 19, "rt": 1691, "response": "Alpha"}, "18": {"stimulus": 1187, "trial": 18, "rt": 716, "response": "Alpha"}, "31": {"stimulus": 2405, "trial": 31, "rt": 609, "response": "Alpha"}, "30": {"stimulus": 1030, "trial": 30, "rt": 727, "response": "Alpha"}, "37": {"stimulus": 312, "trial": 37, "rt": 4028, "response": "Beta"}, "36": {"stimulus": 1968, "trial": 36, "rt": 587, "response": "Alpha"}, "35": {"stimulus": 1999, "trial": 35, "rt": 545, "response": "Alpha"}, "34": {"stimulus": 624, "trial": 34, "rt": 737, "response": "Alpha"}, "33": {"stimulus": 812, "trial": 33, "rt": 638, "response": "Alpha"}, "55": {"stimulus": 749, "trial": 55, "rt": 544, "response": "Alpha"}, "74": {"stimulus": 1374, "trial": 74, "rt": 513, "response": "Alpha"}, "32": {"stimulus": 843, "trial": 32, "rt": 765, "response": "Alpha"}, "57": {"stimulus": 968, "trial": 57, "rt": 521, "response": "Alpha"}, "50": {"stimulus": 1312, "trial": 50, "rt": 535, "response": "Alpha"}}, "experiment": {"Paradigm": "TACL", "Stimuli": "Size-Color Squares", "Experiment": "Generating-Multiple-Categories"}, "submit": {"timeTotal": 366282, "age": "38", "comments": "Thanks for the opportunity ", "sex": "Female"}}