{"info": {"finish": 1548111052426, "participant": 239, "exposed": true, "lab": false, "start": 1548110772525, "counterbalance": 1, "gentype": 0, "condition": "Row", "browser": {"platform": "Win32", "userAgent": "Mozilla/5.0 (Windows NT 10.0; Win64; x64) AppleWebKit/537.36 (KHTML, like Gecko) Chrome/71.0.3578.98 Safari/537.36"}}, "observation": {"11": {"stimulus": 421, "trial": 11, "rt": 2508}, "10": {"stimulus": 493, "trial": 10, "rt": 1291}, "1": {"stimulus": 612, "trial": 1, "rt": 1351}, "0": {"stimulus": 421, "trial": 0, "rt": 1906}, "3": {"stimulus": 493, "trial": 3, "rt": 2118}, "2": {"stimulus": 582, "trial": 2, "rt": 2432}, "5": {"stimulus": 582, "trial": 5, "rt": 1204}, "4": {"stimulus": 421, "trial": 4, "rt": 1307}, "7": {"stimulus": 612, "trial": 7, "rt": 1150}, "6": {"stimulus": 493, "trial": 6, "rt": 1311}, "9": {"stimulus": 582, "trial": 9, "rt": 2399}, "8": {"stimulus": 612, "trial": 8, "rt": 1419}}, "generation": {"1": {"category": "Not-Alpha", "trial": 1, "stimulus": 1622, "rt": 7980}, "0": {"category": "Not-Alpha", "trial": 0, "stimulus": 2450, "rt": 7616}, "3": {"category": "Not-Alpha", "trial": 3, "stimulus": 2481, "rt": 3739}, "2": {"category": "Not-Alpha", "trial": 2, "stimulus": 2217, "rt": 2563}, "5": {"category": "Not-Alpha", "trial": 5, "stimulus": 1349, "rt": 12306}, "4": {"category": "Not-Alpha", "trial": 4, "stimulus": 2499, "rt": 3970}, "7": {"category": "Not-Alpha", "trial": 7, "stimulus": 1965, "rt": 2251}, "6": {"category": "Not-Alpha", "trial": 6, "stimulus": 2465, "rt": 2580}}, "generalization": {"56": {"stimulus": 1374, "trial": 56, "rt": 327, "response": "Beta"}, "77": {"stimulus": 2218, "trial": 77, "rt": 322, "response": "Beta"}, "54": {"stimulus": 1030, "trial": 54, "rt": 329, "response": "Beta"}, "42": {"stimulus": 2062, "trial": 42, "rt": 200, "response": "Beta"}, "48": {"stimulus": 155, "trial": 48, "rt": 247, "response": "Beta"}, "43": {"stimulus": 1280, "trial": 43, "rt": 327, "response": "Beta"}, "60": {"stimulus": 1249, "trial": 60, "rt": 393, "response": "Beta"}, "61": {"stimulus": 2468, "trial": 61, "rt": 849, "response": "Beta"}, "62": {"stimulus": 1405, "trial": 62, "rt": 675, "response": "Beta"}, "63": {"stimulus": 187, "trial": 63, "rt": 969, "response": "Alpha"}, "64": {"stimulus": 499, "trial": 64, "rt": 606, "response": "Beta"}, "49": {"stimulus": 1155, "trial": 49, "rt": 841, "response": "Beta"}, "66": {"stimulus": 124, "trial": 66, "rt": 992, "response": "Alpha"}, "67": {"stimulus": 999, "trial": 67, "rt": 381, "response": "Beta"}, "68": {"stimulus": 2093, "trial": 68, "rt": 577, "response": "Beta"}, "69": {"stimulus": 937, "trial": 69, "rt": 850, "response": "Beta"}, "80": {"stimulus": 1749, "trial": 80, "rt": 430, "response": "Beta"}, "52": {"stimulus": 2405, "trial": 52, "rt": 749, "response": "Beta"}, "53": {"stimulus": 1093, "trial": 53, "rt": 446, "response": "Beta"}, "24": {"stimulus": 2374, "trial": 24, "rt": 229, "response": "Alpha"}, "25": {"stimulus": 812, "trial": 25, "rt": 84, "response": "Beta"}, "26": {"stimulus": 343, "trial": 26, "rt": 501, "response": "Beta"}, "27": {"stimulus": 249, "trial": 27, "rt": 421, "response": "Beta"}, "20": {"stimulus": 2187, "trial": 20, "rt": 266, "response": "Beta"}, "21": {"stimulus": 1999, "trial": 21, "rt": 215, "response": "Beta"}, "22": {"stimulus": 1968, "trial": 22, "rt": 117, "response": "Beta"}, "23": {"stimulus": 437, "trial": 23, "rt": 180, "response": "Beta"}, "46": {"stimulus": 30, "trial": 46, "rt": 259, "response": "Beta"}, "47": {"stimulus": 2249, "trial": 47, "rt": 289, "response": "Beta"}, "44": {"stimulus": 62, "trial": 44, "rt": 594, "response": "Alpha"}, "45": {"stimulus": 1843, "trial": 45, "rt": 262, "response": "Beta"}, "28": {"stimulus": 718, "trial": 28, "rt": 652, "response": "Alpha"}, "29": {"stimulus": 2030, "trial": 29, "rt": 303, "response": "Beta"}, "40": {"stimulus": 1655, "trial": 40, "rt": 304, "response": "Beta"}, "41": {"stimulus": 2280, "trial": 41, "rt": 282, "response": "Beta"}, "1": {"stimulus": 1593, "trial": 1, "rt": 354, "response": "Beta"}, "0": {"stimulus": 1874, "trial": 0, "rt": 1751, "response": "Beta"}, "3": {"stimulus": 0, "trial": 3, "rt": 500, "response": "Beta"}, "2": {"stimulus": 593, "trial": 2, "rt": 658, "response": "Beta"}, "5": {"stimulus": 1343, "trial": 5, "rt": 337, "response": "Beta"}, "4": {"stimulus": 749, "trial": 4, "rt": 425, "response": "Beta"}, "7": {"stimulus": 1437, "trial": 7, "rt": 334, "response": "Beta"}, "6": {"stimulus": 1187, "trial": 6, "rt": 317, "response": "Beta"}, "9": {"stimulus": 218, "trial": 9, "rt": 305, "response": "Beta"}, "8": {"stimulus": 1937, "trial": 8, "rt": 307, "response": "Beta"}, "78": {"stimulus": 1499, "trial": 78, "rt": 496, "response": "Beta"}, "51": {"stimulus": 374, "trial": 51, "rt": 389, "response": "Beta"}, "39": {"stimulus": 1812, "trial": 39, "rt": 421, "response": "Beta"}, "65": {"stimulus": 780, "trial": 65, "rt": 535, "response": "Beta"}, "76": {"stimulus": 280, "trial": 76, "rt": 432, "response": "Alpha"}, "75": {"stimulus": 843, "trial": 75, "rt": 821, "response": "Beta"}, "38": {"stimulus": 1218, "trial": 38, "rt": 420, "response": "Beta"}, "73": {"stimulus": 1530, "trial": 73, "rt": 713, "response": "Beta"}, "72": {"stimulus": 624, "trial": 72, "rt": 288, "response": "Beta"}, "71": {"stimulus": 562, "trial": 71, "rt": 669, "response": "Alpha"}, "70": {"stimulus": 2343, "trial": 70, "rt": 476, "response": "Beta"}, "59": {"stimulus": 655, "trial": 59, "rt": 301, "response": "Beta"}, "79": {"stimulus": 93, "trial": 79, "rt": 311, "response": "Beta"}, "58": {"stimulus": 1718, "trial": 58, "rt": 482, "response": "Beta"}, "11": {"stimulus": 1468, "trial": 11, "rt": 874, "response": "Beta"}, "10": {"stimulus": 1562, "trial": 10, "rt": 655, "response": "Beta"}, "13": {"stimulus": 1687, "trial": 13, "rt": 356, "response": "Beta"}, "12": {"stimulus": 968, "trial": 12, "rt": 1538, "response": "Alpha"}, "15": {"stimulus": 874, "trial": 15, "rt": 1066, "response": "Alpha"}, "14": {"stimulus": 2312, "trial": 14, "rt": 391, "response": "Beta"}, "17": {"stimulus": 2499, "trial": 17, "rt": 341, "response": "Beta"}, "16": {"stimulus": 1062, "trial": 16, "rt": 790, "response": "Alpha"}, "19": {"stimulus": 1312, "trial": 19, "rt": 343, "response": "Beta"}, "18": {"stimulus": 1905, "trial": 18, "rt": 354, "response": "Beta"}, "31": {"stimulus": 2155, "trial": 31, "rt": 312, "response": "Beta"}, "30": {"stimulus": 1780, "trial": 30, "rt": 327, "response": "Beta"}, "37": {"stimulus": 687, "trial": 37, "rt": 760, "response": "Beta"}, "36": {"stimulus": 530, "trial": 36, "rt": 470, "response": "Beta"}, "35": {"stimulus": 2124, "trial": 35, "rt": 382, "response": "Beta"}, "34": {"stimulus": 405, "trial": 34, "rt": 268, "response": "Beta"}, "33": {"stimulus": 2437, "trial": 33, "rt": 286, "response": "Beta"}, "55": {"stimulus": 468, "trial": 55, "rt": 803, "response": "Alpha"}, "74": {"stimulus": 1124, "trial": 74, "rt": 1001, "response": "Beta"}, "32": {"stimulus": 312, "trial": 32, "rt": 392, "response": "Alpha"}, "57": {"stimulus": 1624, "trial": 57, "rt": 518, "response": "Beta"}, "50": {"stimulus": 905, "trial": 50, "rt": 485, "response": "Beta"}}, "experiment": {"Paradigm": "TACL", "Stimuli": "Size-Color Squares", "Experiment": "Generating-Multiple-Categories"}, "submit": {"timeTotal": 280126, "age": "25", "comments": "Fun experiment !", "sex": "Male"}}