{"info": {"finish": 1548115171302, "participant": 245, "exposed": true, "lab": false, "start": 1548114779295, "counterbalance": 5, "gentype": 2, "condition": "Cluster", "browser": {"platform": "Win32", "userAgent": "Mozilla/5.0 (Windows NT 10.0; Win64; x64) AppleWebKit/537.36 (KHTML, like Gecko) Chrome/71.0.3578.98 Safari/537.36"}}, "observation": {"11": {"stimulus": 392, "trial": 11, "rt": 1419}, "10": {"stimulus": 583, "trial": 10, "rt": 1389}, "1": {"stimulus": 392, "trial": 1, "rt": 1551}, "0": {"stimulus": 1083, "trial": 0, "rt": 3435}, "3": {"stimulus": 583, "trial": 3, "rt": 8506}, "2": {"stimulus": 1093, "trial": 2, "rt": 1537}, "5": {"stimulus": 392, "trial": 5, "rt": 1721}, "4": {"stimulus": 1093, "trial": 4, "rt": 2542}, "7": {"stimulus": 1083, "trial": 7, "rt": 1418}, "6": {"stimulus": 583, "trial": 6, "rt": 1200}, "9": {"stimulus": 1093, "trial": 9, "rt": 1543}, "8": {"stimulus": 1083, "trial": 8, "rt": 1282}}, "generation": {"1": {"category": "Beta", "trial": 1, "stimulus": 750, "rt": 6805}, "0": {"category": "Beta", "trial": 0, "stimulus": 0, "rt": 20706}, "3": {"category": "Beta", "trial": 3, "stimulus": 2450, "rt": 6792}, "2": {"category": "Beta", "trial": 2, "stimulus": 1300, "rt": 4345}, "5": {"category": "Gamma", "trial": 5, "stimulus": 762, "rt": 9482}, "4": {"category": "Gamma", "trial": 4, "stimulus": 16, "rt": 21256}, "7": {"category": "Gamma", "trial": 7, "stimulus": 2458, "rt": 7261}, "6": {"category": "Gamma", "trial": 6, "stimulus": 1660, "rt": 6447}}, "generalization": {"56": {"stimulus": 218, "trial": 56, "rt": 1276, "response": "Gamma"}, "77": {"stimulus": 1499, "trial": 77, "rt": 547, "response": "Alpha"}, "54": {"stimulus": 687, "trial": 54, "rt": 543, "response": "Alpha"}, "42": {"stimulus": 2343, "trial": 42, "rt": 825, "response": "Alpha"}, "48": {"stimulus": 874, "trial": 48, "rt": 2986, "response": "Alpha"}, "43": {"stimulus": 905, "trial": 43, "rt": 1000, "response": "Beta"}, "60": {"stimulus": 2218, "trial": 60, "rt": 2176, "response": "Alpha"}, "61": {"stimulus": 1812, "trial": 61, "rt": 1277, "response": "Gamma"}, "62": {"stimulus": 593, "trial": 62, "rt": 977, "response": "Alpha"}, "63": {"stimulus": 2312, "trial": 63, "rt": 3631, "response": "Gamma"}, "64": {"stimulus": 655, "trial": 64, "rt": 9162, "response": "Beta"}, "49": {"stimulus": 1749, "trial": 49, "rt": 691, "response": "Alpha"}, "66": {"stimulus": 280, "trial": 66, "rt": 1614, "response": "Alpha"}, "67": {"stimulus": 1030, "trial": 67, "rt": 688, "response": "Alpha"}, "68": {"stimulus": 2249, "trial": 68, "rt": 606, "response": "Alpha"}, "69": {"stimulus": 499, "trial": 69, "rt": 576, "response": "Alpha"}, "80": {"stimulus": 1468, "trial": 80, "rt": 1374, "response": "Gamma"}, "52": {"stimulus": 1093, "trial": 52, "rt": 468, "response": "Alpha"}, "53": {"stimulus": 249, "trial": 53, "rt": 518, "response": "Alpha"}, "24": {"stimulus": 30, "trial": 24, "rt": 523, "response": "Alpha"}, "25": {"stimulus": 2155, "trial": 25, "rt": 1404, "response": "Gamma"}, "26": {"stimulus": 968, "trial": 26, "rt": 1533, "response": "Gamma"}, "27": {"stimulus": 1905, "trial": 27, "rt": 1018, "response": "Beta"}, "20": {"stimulus": 124, "trial": 20, "rt": 2755, "response": "Gamma"}, "21": {"stimulus": 1374, "trial": 21, "rt": 2203, "response": "Beta"}, "22": {"stimulus": 1312, "trial": 22, "rt": 790, "response": "Beta"}, "23": {"stimulus": 437, "trial": 23, "rt": 1188, "response": "Alpha"}, "46": {"stimulus": 530, "trial": 46, "rt": 1112, "response": "Alpha"}, "47": {"stimulus": 1249, "trial": 47, "rt": 996, "response": "Alpha"}, "44": {"stimulus": 780, "trial": 44, "rt": 725, "response": "Alpha"}, "45": {"stimulus": 2374, "trial": 45, "rt": 720, "response": "Alpha"}, "28": {"stimulus": 2093, "trial": 28, "rt": 867, "response": "Alpha"}, "29": {"stimulus": 1874, "trial": 29, "rt": 1584, "response": "Gamma"}, "40": {"stimulus": 2437, "trial": 40, "rt": 687, "response": "Alpha"}, "41": {"stimulus": 1405, "trial": 41, "rt": 791, "response": "Beta"}, "1": {"stimulus": 1655, "trial": 1, "rt": 6667, "response": "Gamma"}, "0": {"stimulus": 2187, "trial": 0, "rt": 5342, "response": "Alpha"}, "3": {"stimulus": 1937, "trial": 3, "rt": 1111, "response": "Alpha"}, "2": {"stimulus": 843, "trial": 2, "rt": 1495, "response": "Alpha"}, "5": {"stimulus": 1530, "trial": 5, "rt": 639, "response": "Alpha"}, "4": {"stimulus": 1343, "trial": 4, "rt": 609, "response": "Alpha"}, "7": {"stimulus": 1999, "trial": 7, "rt": 502, "response": "Alpha"}, "6": {"stimulus": 999, "trial": 6, "rt": 551, "response": "Alpha"}, "9": {"stimulus": 749, "trial": 9, "rt": 1059, "response": "Alpha"}, "8": {"stimulus": 0, "trial": 8, "rt": 4853, "response": "Beta"}, "78": {"stimulus": 312, "trial": 78, "rt": 2057, "response": "Gamma"}, "51": {"stimulus": 1687, "trial": 51, "rt": 459, "response": "Alpha"}, "39": {"stimulus": 1718, "trial": 39, "rt": 2312, "response": "Gamma"}, "65": {"stimulus": 187, "trial": 65, "rt": 810, "response": "Alpha"}, "76": {"stimulus": 1593, "trial": 76, "rt": 577, "response": "Alpha"}, "75": {"stimulus": 93, "trial": 75, "rt": 1318, "response": "Alpha"}, "38": {"stimulus": 1437, "trial": 38, "rt": 523, "response": "Alpha"}, "73": {"stimulus": 718, "trial": 73, "rt": 623, "response": "Gamma"}, "72": {"stimulus": 1562, "trial": 72, "rt": 1227, "response": "Gamma"}, "71": {"stimulus": 405, "trial": 71, "rt": 1362, "response": "Gamma"}, "70": {"stimulus": 1280, "trial": 70, "rt": 732, "response": "Alpha"}, "59": {"stimulus": 2030, "trial": 59, "rt": 1093, "response": "Alpha"}, "79": {"stimulus": 1124, "trial": 79, "rt": 1053, "response": "Gamma"}, "58": {"stimulus": 1968, "trial": 58, "rt": 1739, "response": "Gamma"}, "11": {"stimulus": 562, "trial": 11, "rt": 1696, "response": "Gamma"}, "10": {"stimulus": 2062, "trial": 10, "rt": 2341, "response": "Gamma"}, "13": {"stimulus": 937, "trial": 13, "rt": 657, "response": "Alpha"}, "12": {"stimulus": 2280, "trial": 12, "rt": 1096, "response": "Alpha"}, "15": {"stimulus": 2405, "trial": 15, "rt": 4711, "response": "Gamma"}, "14": {"stimulus": 1780, "trial": 14, "rt": 529, "response": "Alpha"}, "17": {"stimulus": 2124, "trial": 17, "rt": 2102, "response": "Beta"}, "16": {"stimulus": 2468, "trial": 16, "rt": 2450, "response": "Beta"}, "19": {"stimulus": 155, "trial": 19, "rt": 2606, "response": "Beta"}, "18": {"stimulus": 1843, "trial": 18, "rt": 767, "response": "Alpha"}, "31": {"stimulus": 374, "trial": 31, "rt": 863, "response": "Gamma"}, "30": {"stimulus": 1218, "trial": 30, "rt": 1413, "response": "Gamma"}, "37": {"stimulus": 343, "trial": 37, "rt": 519, "response": "Alpha"}, "36": {"stimulus": 1187, "trial": 36, "rt": 1445, "response": "Alpha"}, "35": {"stimulus": 468, "trial": 35, "rt": 1785, "response": "Gamma"}, "34": {"stimulus": 2499, "trial": 34, "rt": 961, "response": "Alpha"}, "33": {"stimulus": 812, "trial": 33, "rt": 1106, "response": "Gamma"}, "55": {"stimulus": 1062, "trial": 55, "rt": 1820, "response": "Gamma"}, "74": {"stimulus": 1624, "trial": 74, "rt": 649, "response": "Gamma"}, "32": {"stimulus": 624, "trial": 32, "rt": 520, "response": "Gamma"}, "57": {"stimulus": 1155, "trial": 57, "rt": 916, "response": "Beta"}, "50": {"stimulus": 62, "trial": 50, "rt": 1725, "response": "Gamma"}}, "experiment": {"Paradigm": "TACL", "Stimuli": "Size-Color Squares", "Experiment": "Generating-Multiple-Categories"}, "submit": {"timeTotal": 392186, "age": "33", "comments": "", "sex": "male"}}