{"info": {"finish": 1548115238294, "participant": 246, "exposed": true, "lab": false, "start": 1548114799568, "counterbalance": 1, "gentype": 0, "condition": "Row", "browser": {"platform": "Win32", "userAgent": "Mozilla/5.0 (Windows NT 10.0; Win64; x64) AppleWebKit/537.36 (KHTML, like Gecko) Chrome/71.0.3578.98 Safari/537.36"}}, "observation": {"11": {"stimulus": 493, "trial": 11, "rt": 1744}, "10": {"stimulus": 612, "trial": 10, "rt": 2191}, "1": {"stimulus": 493, "trial": 1, "rt": 2165}, "0": {"stimulus": 612, "trial": 0, "rt": 5036}, "3": {"stimulus": 582, "trial": 3, "rt": 2837}, "2": {"stimulus": 421, "trial": 2, "rt": 2946}, "5": {"stimulus": 493, "trial": 5, "rt": 2020}, "4": {"stimulus": 612, "trial": 4, "rt": 1992}, "7": {"stimulus": 421, "trial": 7, "rt": 1816}, "6": {"stimulus": 582, "trial": 6, "rt": 1783}, "9": {"stimulus": 421, "trial": 9, "rt": 1731}, "8": {"stimulus": 582, "trial": 8, "rt": 2150}}, "generation": {"1": {"category": "Not-Alpha", "trial": 1, "stimulus": 968, "rt": 13408}, "0": {"category": "Not-Alpha", "trial": 0, "stimulus": 2465, "rt": 22084}, "3": {"category": "Not-Alpha", "trial": 3, "stimulus": 2455, "rt": 3561}, "2": {"category": "Not-Alpha", "trial": 2, "stimulus": 2450, "rt": 5341}, "5": {"category": "Not-Alpha", "trial": 5, "stimulus": 2462, "rt": 5355}, "4": {"category": "Not-Alpha", "trial": 4, "stimulus": 2461, "rt": 4822}, "7": {"category": "Not-Alpha", "trial": 7, "stimulus": 2472, "rt": 5579}, "6": {"category": "Not-Alpha", "trial": 6, "stimulus": 2467, "rt": 5206}}, "generalization": {"56": {"stimulus": 499, "trial": 56, "rt": 960, "response": "Alpha"}, "77": {"stimulus": 1655, "trial": 77, "rt": 6330, "response": "Beta"}, "54": {"stimulus": 2030, "trial": 54, "rt": 718, "response": "Beta"}, "42": {"stimulus": 812, "trial": 42, "rt": 2595, "response": "Beta"}, "48": {"stimulus": 937, "trial": 48, "rt": 1304, "response": "Alpha"}, "43": {"stimulus": 1780, "trial": 43, "rt": 1206, "response": "Beta"}, "60": {"stimulus": 405, "trial": 60, "rt": 16800, "response": "Alpha"}, "61": {"stimulus": 218, "trial": 61, "rt": 1027, "response": "Alpha"}, "62": {"stimulus": 1468, "trial": 62, "rt": 1595, "response": "Beta"}, "63": {"stimulus": 562, "trial": 63, "rt": 1093, "response": "Alpha"}, "64": {"stimulus": 1718, "trial": 64, "rt": 1195, "response": "Beta"}, "49": {"stimulus": 999, "trial": 49, "rt": 1696, "response": "Alpha"}, "66": {"stimulus": 1280, "trial": 66, "rt": 989, "response": "Beta"}, "67": {"stimulus": 2499, "trial": 67, "rt": 843, "response": "Beta"}, "68": {"stimulus": 1437, "trial": 68, "rt": 746, "response": "Beta"}, "69": {"stimulus": 343, "trial": 69, "rt": 1153, "response": "Alpha"}, "80": {"stimulus": 1093, "trial": 80, "rt": 863, "response": "Beta"}, "52": {"stimulus": 1499, "trial": 52, "rt": 1753, "response": "Beta"}, "53": {"stimulus": 1405, "trial": 53, "rt": 930, "response": "Beta"}, "24": {"stimulus": 593, "trial": 24, "rt": 5302, "response": "Alpha"}, "25": {"stimulus": 1249, "trial": 25, "rt": 4582, "response": "Beta"}, "26": {"stimulus": 187, "trial": 26, "rt": 5197, "response": "Alpha"}, "27": {"stimulus": 1030, "trial": 27, "rt": 1262, "response": "Beta"}, "20": {"stimulus": 2468, "trial": 20, "rt": 699, "response": "Beta"}, "21": {"stimulus": 2374, "trial": 21, "rt": 1934, "response": "Beta"}, "22": {"stimulus": 93, "trial": 22, "rt": 2475, "response": "Alpha"}, "23": {"stimulus": 2124, "trial": 23, "rt": 1664, "response": "Beta"}, "46": {"stimulus": 749, "trial": 46, "rt": 1052, "response": "Alpha"}, "47": {"stimulus": 1687, "trial": 47, "rt": 1401, "response": "Beta"}, "44": {"stimulus": 1812, "trial": 44, "rt": 2242, "response": "Beta"}, "45": {"stimulus": 687, "trial": 45, "rt": 4204, "response": "Alpha"}, "28": {"stimulus": 1874, "trial": 28, "rt": 851, "response": "Beta"}, "29": {"stimulus": 1218, "trial": 29, "rt": 4535, "response": "Beta"}, "40": {"stimulus": 1062, "trial": 40, "rt": 2284, "response": "Alpha"}, "41": {"stimulus": 1187, "trial": 41, "rt": 2158, "response": "Beta"}, "1": {"stimulus": 0, "trial": 1, "rt": 1197, "response": "Alpha"}, "0": {"stimulus": 2093, "trial": 0, "rt": 1424, "response": "Beta"}, "3": {"stimulus": 1312, "trial": 3, "rt": 1496, "response": "Beta"}, "2": {"stimulus": 280, "trial": 2, "rt": 710, "response": "Alpha"}, "5": {"stimulus": 468, "trial": 5, "rt": 1402, "response": "Alpha"}, "4": {"stimulus": 1999, "trial": 4, "rt": 1052, "response": "Beta"}, "7": {"stimulus": 374, "trial": 7, "rt": 989, "response": "Alpha"}, "6": {"stimulus": 624, "trial": 6, "rt": 639, "response": "Alpha"}, "9": {"stimulus": 968, "trial": 9, "rt": 6102, "response": "Beta"}, "8": {"stimulus": 155, "trial": 8, "rt": 790, "response": "Alpha"}, "78": {"stimulus": 2405, "trial": 78, "rt": 2758, "response": "Beta"}, "51": {"stimulus": 2187, "trial": 51, "rt": 1900, "response": "Beta"}, "39": {"stimulus": 1593, "trial": 39, "rt": 2384, "response": "Beta"}, "65": {"stimulus": 1968, "trial": 65, "rt": 1105, "response": "Beta"}, "76": {"stimulus": 1843, "trial": 76, "rt": 1092, "response": "Beta"}, "75": {"stimulus": 2155, "trial": 75, "rt": 973, "response": "Beta"}, "38": {"stimulus": 1937, "trial": 38, "rt": 2760, "response": "Beta"}, "73": {"stimulus": 1749, "trial": 73, "rt": 2871, "response": "Beta"}, "72": {"stimulus": 655, "trial": 72, "rt": 5495, "response": "Alpha"}, "71": {"stimulus": 30, "trial": 71, "rt": 1009, "response": "Alpha"}, "70": {"stimulus": 2280, "trial": 70, "rt": 1147, "response": "Beta"}, "59": {"stimulus": 62, "trial": 59, "rt": 963, "response": "Alpha"}, "79": {"stimulus": 1562, "trial": 79, "rt": 717, "response": "Beta"}, "58": {"stimulus": 2343, "trial": 58, "rt": 1015, "response": "Beta"}, "11": {"stimulus": 1530, "trial": 11, "rt": 930, "response": "Beta"}, "10": {"stimulus": 2249, "trial": 10, "rt": 819, "response": "Beta"}, "13": {"stimulus": 780, "trial": 13, "rt": 726, "response": "Alpha"}, "12": {"stimulus": 530, "trial": 12, "rt": 1237, "response": "Alpha"}, "15": {"stimulus": 312, "trial": 15, "rt": 748, "response": "Alpha"}, "14": {"stimulus": 843, "trial": 14, "rt": 678, "response": "Alpha"}, "17": {"stimulus": 874, "trial": 17, "rt": 982, "response": "Beta"}, "16": {"stimulus": 1343, "trial": 16, "rt": 1062, "response": "Beta"}, "19": {"stimulus": 1155, "trial": 19, "rt": 1254, "response": "Beta"}, "18": {"stimulus": 1905, "trial": 18, "rt": 1486, "response": "Beta"}, "31": {"stimulus": 1124, "trial": 31, "rt": 1657, "response": "Alpha"}, "30": {"stimulus": 2437, "trial": 30, "rt": 660, "response": "Beta"}, "37": {"stimulus": 437, "trial": 37, "rt": 1387, "response": "Alpha"}, "36": {"stimulus": 2062, "trial": 36, "rt": 980, "response": "Beta"}, "35": {"stimulus": 1374, "trial": 35, "rt": 4744, "response": "Beta"}, "34": {"stimulus": 905, "trial": 34, "rt": 1675, "response": "Alpha"}, "33": {"stimulus": 124, "trial": 33, "rt": 915, "response": "Alpha"}, "55": {"stimulus": 2218, "trial": 55, "rt": 643, "response": "Beta"}, "74": {"stimulus": 249, "trial": 74, "rt": 943, "response": "Alpha"}, "32": {"stimulus": 1624, "trial": 32, "rt": 981, "response": "Beta"}, "57": {"stimulus": 718, "trial": 57, "rt": 612, "response": "Alpha"}, "50": {"stimulus": 2312, "trial": 50, "rt": 1086, "response": "Beta"}}, "experiment": {"Paradigm": "TACL", "Stimuli": "Size-Color Squares", "Experiment": "Generating-Multiple-Categories"}, "submit": {"timeTotal": 438991, "age": "36", "comments": "good study for paying attention to early Alpha signs", "sex": "Male"}}