{"info": {"finish": 1548116754638, "participant": 250, "exposed": true, "lab": false, "start": 1548116249067, "counterbalance": 5, "gentype": 0, "condition": "Row", "browser": {"platform": "Win32", "userAgent": "Mozilla/5.0 (Windows NT 10.0; Win64; x64) AppleWebKit/537.36 (KHTML, like Gecko) Chrome/61.0.3163.100 Safari/537.36"}}, "observation": {"11": {"stimulus": 612, "trial": 11, "rt": 5845}, "10": {"stimulus": 421, "trial": 10, "rt": 7659}, "1": {"stimulus": 612, "trial": 1, "rt": 3560}, "0": {"stimulus": 582, "trial": 0, "rt": 40996}, "3": {"stimulus": 421, "trial": 3, "rt": 1662}, "2": {"stimulus": 493, "trial": 2, "rt": 1942}, "5": {"stimulus": 612, "trial": 5, "rt": 1706}, "4": {"stimulus": 582, "trial": 4, "rt": 1536}, "7": {"stimulus": 421, "trial": 7, "rt": 1836}, "6": {"stimulus": 493, "trial": 6, "rt": 2046}, "9": {"stimulus": 582, "trial": 9, "rt": 1518}, "8": {"stimulus": 493, "trial": 8, "rt": 1646}}, "generation": {"1": {"category": "Not-Alpha", "trial": 1, "stimulus": 250, "rt": 6292}, "0": {"category": "Not-Alpha", "trial": 0, "stimulus": 2494, "rt": 7051}, "3": {"category": "Not-Alpha", "trial": 3, "stimulus": 2461, "rt": 8622}, "2": {"category": "Not-Alpha", "trial": 2, "stimulus": 2450, "rt": 4926}, "5": {"category": "Not-Alpha", "trial": 5, "stimulus": 1565, "rt": 7762}, "4": {"category": "Not-Alpha", "trial": 4, "stimulus": 1900, "rt": 5037}, "7": {"category": "Not-Alpha", "trial": 7, "stimulus": 1179, "rt": 7461}, "6": {"category": "Not-Alpha", "trial": 6, "stimulus": 1325, "rt": 5333}}, "generalization": {"56": {"stimulus": 1249, "trial": 56, "rt": 605, "response": "Beta"}, "77": {"stimulus": 1812, "trial": 77, "rt": 4407, "response": "Beta"}, "54": {"stimulus": 1187, "trial": 54, "rt": 495, "response": "Beta"}, "42": {"stimulus": 1030, "trial": 42, "rt": 838, "response": "Beta"}, "48": {"stimulus": 155, "trial": 48, "rt": 2430, "response": "Alpha"}, "43": {"stimulus": 30, "trial": 43, "rt": 1248, "response": "Alpha"}, "60": {"stimulus": 1343, "trial": 60, "rt": 3605, "response": "Beta"}, "61": {"stimulus": 1968, "trial": 61, "rt": 898, "response": "Beta"}, "62": {"stimulus": 374, "trial": 62, "rt": 1318, "response": "Alpha"}, "63": {"stimulus": 1718, "trial": 63, "rt": 575, "response": "Beta"}, "64": {"stimulus": 1749, "trial": 64, "rt": 999, "response": "Beta"}, "49": {"stimulus": 93, "trial": 49, "rt": 1272, "response": "Alpha"}, "66": {"stimulus": 1530, "trial": 66, "rt": 5158, "response": "Beta"}, "67": {"stimulus": 1874, "trial": 67, "rt": 5261, "response": "Beta"}, "68": {"stimulus": 843, "trial": 68, "rt": 2870, "response": "Alpha"}, "69": {"stimulus": 0, "trial": 69, "rt": 4846, "response": "Alpha"}, "80": {"stimulus": 937, "trial": 80, "rt": 2948, "response": "Alpha"}, "52": {"stimulus": 2218, "trial": 52, "rt": 622, "response": "Beta"}, "53": {"stimulus": 562, "trial": 53, "rt": 1326, "response": "Beta"}, "24": {"stimulus": 1499, "trial": 24, "rt": 837, "response": "Beta"}, "25": {"stimulus": 437, "trial": 25, "rt": 1455, "response": "Alpha"}, "26": {"stimulus": 405, "trial": 26, "rt": 4165, "response": "Alpha"}, "27": {"stimulus": 687, "trial": 27, "rt": 5223, "response": "Alpha"}, "20": {"stimulus": 2030, "trial": 20, "rt": 727, "response": "Beta"}, "21": {"stimulus": 1218, "trial": 21, "rt": 2006, "response": "Beta"}, "22": {"stimulus": 2405, "trial": 22, "rt": 599, "response": "Beta"}, "23": {"stimulus": 2062, "trial": 23, "rt": 6711, "response": "Beta"}, "46": {"stimulus": 812, "trial": 46, "rt": 2436, "response": "Beta"}, "47": {"stimulus": 1062, "trial": 47, "rt": 62975, "response": "Beta"}, "44": {"stimulus": 1437, "trial": 44, "rt": 9203, "response": "Beta"}, "45": {"stimulus": 2374, "trial": 45, "rt": 1549, "response": "Beta"}, "28": {"stimulus": 1562, "trial": 28, "rt": 1054, "response": "Beta"}, "29": {"stimulus": 1155, "trial": 29, "rt": 1264, "response": "Beta"}, "40": {"stimulus": 2468, "trial": 40, "rt": 629, "response": "Beta"}, "41": {"stimulus": 1124, "trial": 41, "rt": 1039, "response": "Beta"}, "1": {"stimulus": 2124, "trial": 1, "rt": 957, "response": "Beta"}, "0": {"stimulus": 1687, "trial": 0, "rt": 2923, "response": "Beta"}, "3": {"stimulus": 312, "trial": 3, "rt": 2653, "response": "Alpha"}, "2": {"stimulus": 280, "trial": 2, "rt": 2470, "response": "Alpha"}, "5": {"stimulus": 1593, "trial": 5, "rt": 886, "response": "Beta"}, "4": {"stimulus": 655, "trial": 4, "rt": 1865, "response": "Alpha"}, "7": {"stimulus": 1374, "trial": 7, "rt": 622, "response": "Beta"}, "6": {"stimulus": 1468, "trial": 6, "rt": 719, "response": "Beta"}, "9": {"stimulus": 218, "trial": 9, "rt": 1126, "response": "Alpha"}, "8": {"stimulus": 2499, "trial": 8, "rt": 783, "response": "Beta"}, "78": {"stimulus": 2187, "trial": 78, "rt": 785, "response": "Beta"}, "51": {"stimulus": 1624, "trial": 51, "rt": 925, "response": "Beta"}, "39": {"stimulus": 249, "trial": 39, "rt": 1053, "response": "Alpha"}, "65": {"stimulus": 530, "trial": 65, "rt": 1789, "response": "Alpha"}, "76": {"stimulus": 1655, "trial": 76, "rt": 5383, "response": "Beta"}, "75": {"stimulus": 2155, "trial": 75, "rt": 886, "response": "Beta"}, "38": {"stimulus": 1280, "trial": 38, "rt": 1128, "response": "Beta"}, "73": {"stimulus": 124, "trial": 73, "rt": 536, "response": "Alpha"}, "72": {"stimulus": 905, "trial": 72, "rt": 1175, "response": "Alpha"}, "71": {"stimulus": 343, "trial": 71, "rt": 1031, "response": "Alpha"}, "70": {"stimulus": 624, "trial": 70, "rt": 6550, "response": "Alpha"}, "59": {"stimulus": 2312, "trial": 59, "rt": 1555, "response": "Beta"}, "79": {"stimulus": 1405, "trial": 79, "rt": 646, "response": "Beta"}, "58": {"stimulus": 1905, "trial": 58, "rt": 15243, "response": "Beta"}, "11": {"stimulus": 1093, "trial": 11, "rt": 4863, "response": "Beta"}, "10": {"stimulus": 1312, "trial": 10, "rt": 862, "response": "Beta"}, "13": {"stimulus": 2280, "trial": 13, "rt": 775, "response": "Beta"}, "12": {"stimulus": 2249, "trial": 12, "rt": 791, "response": "Beta"}, "15": {"stimulus": 187, "trial": 15, "rt": 3143, "response": "Alpha"}, "14": {"stimulus": 2093, "trial": 14, "rt": 623, "response": "Beta"}, "17": {"stimulus": 2343, "trial": 17, "rt": 1639, "response": "Beta"}, "16": {"stimulus": 1999, "trial": 16, "rt": 2030, "response": "Beta"}, "19": {"stimulus": 874, "trial": 19, "rt": 660, "response": "Beta"}, "18": {"stimulus": 1780, "trial": 18, "rt": 878, "response": "Beta"}, "31": {"stimulus": 749, "trial": 31, "rt": 1989, "response": "Alpha"}, "30": {"stimulus": 1843, "trial": 30, "rt": 7679, "response": "Beta"}, "37": {"stimulus": 468, "trial": 37, "rt": 1301, "response": "Alpha"}, "36": {"stimulus": 593, "trial": 36, "rt": 1258, "response": "Alpha"}, "35": {"stimulus": 718, "trial": 35, "rt": 1308, "response": "Alpha"}, "34": {"stimulus": 780, "trial": 34, "rt": 3639, "response": "Beta"}, "33": {"stimulus": 999, "trial": 33, "rt": 1265, "response": "Beta"}, "55": {"stimulus": 62, "trial": 55, "rt": 1326, "response": "Alpha"}, "74": {"stimulus": 968, "trial": 74, "rt": 2654, "response": "Beta"}, "32": {"stimulus": 2437, "trial": 32, "rt": 856, "response": "Beta"}, "57": {"stimulus": 1937, "trial": 57, "rt": 6982, "response": "Beta"}, "50": {"stimulus": 499, "trial": 50, "rt": 974, "response": "Alpha"}}, "experiment": {"Paradigm": "TACL", "Stimuli": "Size-Color Squares", "Experiment": "Generating-Multiple-Categories"}, "submit": {"timeTotal": 506623, "age": "39", "comments": "This was an interesting study. I'm interested in the results. Good luck with your research.", "sex": "Female"}}