{"info": {"finish": 1548117989511, "participant": 251, "exposed": true, "lab": false, "start": 1548116439415, "counterbalance": 1, "gentype": 0, "condition": "Row", "browser": {"platform": "Win32", "userAgent": "Mozilla/5.0 (Windows NT 10.0; Win64; x64; rv:64.0) Gecko/20100101 Firefox/64.0"}}, "observation": {"11": {"stimulus": 421, "trial": 11, "rt": 1651}, "10": {"stimulus": 493, "trial": 10, "rt": 1762}, "1": {"stimulus": 493, "trial": 1, "rt": 7514}, "0": {"stimulus": 612, "trial": 0, "rt": 242440}, "3": {"stimulus": 582, "trial": 3, "rt": 4196}, "2": {"stimulus": 421, "trial": 2, "rt": 4738}, "5": {"stimulus": 612, "trial": 5, "rt": 10271}, "4": {"stimulus": 582, "trial": 4, "rt": 566088}, "7": {"stimulus": 493, "trial": 7, "rt": 5327}, "6": {"stimulus": 421, "trial": 6, "rt": 4706}, "9": {"stimulus": 612, "trial": 9, "rt": 1947}, "8": {"stimulus": 582, "trial": 8, "rt": 3639}}, "generation": {"1": {"category": "Not-Alpha", "trial": 1, "stimulus": 2450, "rt": 7267}, "0": {"category": "Not-Alpha", "trial": 0, "stimulus": 49, "rt": 20893}, "3": {"category": "Not-Alpha", "trial": 3, "stimulus": 2499, "rt": 14522}, "2": {"category": "Not-Alpha", "trial": 2, "stimulus": 0, "rt": 15103}, "5": {"category": "Not-Alpha", "trial": 5, "stimulus": 1499, "rt": 22214}, "4": {"category": "Not-Alpha", "trial": 4, "stimulus": 2275, "rt": 40183}, "7": {"category": "Not-Alpha", "trial": 7, "stimulus": 15, "rt": 8293}, "6": {"category": "Not-Alpha", "trial": 6, "stimulus": 2223, "rt": 5347}}, "generalization": {"56": {"stimulus": 1937, "trial": 56, "rt": 2093, "response": "Beta"}, "77": {"stimulus": 1280, "trial": 77, "rt": 960, "response": "Beta"}, "54": {"stimulus": 905, "trial": 54, "rt": 2127, "response": "Beta"}, "42": {"stimulus": 968, "trial": 42, "rt": 1300, "response": "Alpha"}, "48": {"stimulus": 624, "trial": 48, "rt": 1396, "response": "Alpha"}, "43": {"stimulus": 843, "trial": 43, "rt": 5705, "response": "Alpha"}, "60": {"stimulus": 812, "trial": 60, "rt": 1669, "response": "Alpha"}, "61": {"stimulus": 1624, "trial": 61, "rt": 1428, "response": "Beta"}, "62": {"stimulus": 1405, "trial": 62, "rt": 2174, "response": "Beta"}, "63": {"stimulus": 2124, "trial": 63, "rt": 1252, "response": "Beta"}, "64": {"stimulus": 2155, "trial": 64, "rt": 4001, "response": "Beta"}, "49": {"stimulus": 1187, "trial": 49, "rt": 2648, "response": "Alpha"}, "66": {"stimulus": 999, "trial": 66, "rt": 2126, "response": "Alpha"}, "67": {"stimulus": 405, "trial": 67, "rt": 1170, "response": "Beta"}, "68": {"stimulus": 1999, "trial": 68, "rt": 1194, "response": "Beta"}, "69": {"stimulus": 93, "trial": 69, "rt": 1307, "response": "Alpha"}, "80": {"stimulus": 62, "trial": 80, "rt": 1112, "response": "Beta"}, "52": {"stimulus": 1374, "trial": 52, "rt": 2801, "response": "Alpha"}, "53": {"stimulus": 124, "trial": 53, "rt": 1278, "response": "Alpha"}, "24": {"stimulus": 2405, "trial": 24, "rt": 5176, "response": "Beta"}, "25": {"stimulus": 874, "trial": 25, "rt": 1616, "response": "Alpha"}, "26": {"stimulus": 2093, "trial": 26, "rt": 1348, "response": "Beta"}, "27": {"stimulus": 749, "trial": 27, "rt": 1555, "response": "Alpha"}, "20": {"stimulus": 437, "trial": 20, "rt": 1375, "response": "Alpha"}, "21": {"stimulus": 218, "trial": 21, "rt": 774, "response": "Alpha"}, "22": {"stimulus": 312, "trial": 22, "rt": 1300, "response": "Alpha"}, "23": {"stimulus": 499, "trial": 23, "rt": 833, "response": "Alpha"}, "46": {"stimulus": 2374, "trial": 46, "rt": 1414, "response": "Beta"}, "47": {"stimulus": 2343, "trial": 47, "rt": 1287, "response": "Beta"}, "44": {"stimulus": 1749, "trial": 44, "rt": 1996, "response": "Beta"}, "45": {"stimulus": 249, "trial": 45, "rt": 15609, "response": "Alpha"}, "28": {"stimulus": 1249, "trial": 28, "rt": 2467, "response": "Alpha"}, "29": {"stimulus": 1968, "trial": 29, "rt": 1010, "response": "Beta"}, "40": {"stimulus": 1124, "trial": 40, "rt": 1390, "response": "Alpha"}, "41": {"stimulus": 780, "trial": 41, "rt": 3360, "response": "Alpha"}, "1": {"stimulus": 1093, "trial": 1, "rt": 4034, "response": "Alpha"}, "0": {"stimulus": 2218, "trial": 0, "rt": 2268, "response": "Beta"}, "3": {"stimulus": 30, "trial": 3, "rt": 10747, "response": "Alpha"}, "2": {"stimulus": 2437, "trial": 2, "rt": 3827, "response": "Beta"}, "5": {"stimulus": 1562, "trial": 5, "rt": 1878, "response": "Beta"}, "4": {"stimulus": 2312, "trial": 4, "rt": 5385, "response": "Beta"}, "7": {"stimulus": 2249, "trial": 7, "rt": 1037, "response": "Beta"}, "6": {"stimulus": 2030, "trial": 6, "rt": 1023, "response": "Beta"}, "9": {"stimulus": 2187, "trial": 9, "rt": 734, "response": "Beta"}, "8": {"stimulus": 1687, "trial": 8, "rt": 693, "response": "Beta"}, "78": {"stimulus": 2280, "trial": 78, "rt": 905, "response": "Beta"}, "51": {"stimulus": 593, "trial": 51, "rt": 2169, "response": "Alpha"}, "39": {"stimulus": 1437, "trial": 39, "rt": 1057, "response": "Alpha"}, "65": {"stimulus": 1030, "trial": 65, "rt": 4589, "response": "Alpha"}, "76": {"stimulus": 374, "trial": 76, "rt": 1359, "response": "Alpha"}, "75": {"stimulus": 718, "trial": 75, "rt": 1057, "response": "Beta"}, "38": {"stimulus": 1905, "trial": 38, "rt": 1395, "response": "Beta"}, "73": {"stimulus": 155, "trial": 73, "rt": 853, "response": "Beta"}, "72": {"stimulus": 1812, "trial": 72, "rt": 648, "response": "Beta"}, "71": {"stimulus": 1530, "trial": 71, "rt": 732, "response": "Beta"}, "70": {"stimulus": 2468, "trial": 70, "rt": 1182, "response": "Beta"}, "59": {"stimulus": 1655, "trial": 59, "rt": 3518, "response": "Beta"}, "79": {"stimulus": 687, "trial": 79, "rt": 1618, "response": "Alpha"}, "58": {"stimulus": 343, "trial": 58, "rt": 6040, "response": "Alpha"}, "11": {"stimulus": 562, "trial": 11, "rt": 11642, "response": "Alpha"}, "10": {"stimulus": 1468, "trial": 10, "rt": 2533, "response": "Alpha"}, "13": {"stimulus": 1312, "trial": 13, "rt": 4522, "response": "Alpha"}, "12": {"stimulus": 1499, "trial": 12, "rt": 1550, "response": "Alpha"}, "15": {"stimulus": 1843, "trial": 15, "rt": 2910, "response": "Alpha"}, "14": {"stimulus": 1593, "trial": 14, "rt": 2866, "response": "Alpha"}, "17": {"stimulus": 1062, "trial": 17, "rt": 1633, "response": "Alpha"}, "16": {"stimulus": 655, "trial": 16, "rt": 5905, "response": "Alpha"}, "19": {"stimulus": 468, "trial": 19, "rt": 1921, "response": "Alpha"}, "18": {"stimulus": 2499, "trial": 18, "rt": 1149, "response": "Beta"}, "31": {"stimulus": 530, "trial": 31, "rt": 1220, "response": "Alpha"}, "30": {"stimulus": 0, "trial": 30, "rt": 1064, "response": "Beta"}, "37": {"stimulus": 1874, "trial": 37, "rt": 1157, "response": "Beta"}, "36": {"stimulus": 187, "trial": 36, "rt": 698, "response": "Alpha"}, "35": {"stimulus": 1343, "trial": 35, "rt": 1425, "response": "Beta"}, "34": {"stimulus": 280, "trial": 34, "rt": 1393, "response": "Alpha"}, "33": {"stimulus": 1780, "trial": 33, "rt": 1009, "response": "Beta"}, "55": {"stimulus": 1155, "trial": 55, "rt": 1166, "response": "Beta"}, "74": {"stimulus": 937, "trial": 74, "rt": 1397, "response": "Alpha"}, "32": {"stimulus": 1218, "trial": 32, "rt": 1176, "response": "Alpha"}, "57": {"stimulus": 1718, "trial": 57, "rt": 934, "response": "Beta"}, "50": {"stimulus": 2062, "trial": 50, "rt": 3723, "response": "Beta"}}, "experiment": {"Paradigm": "TACL", "Stimuli": "Size-Color Squares", "Experiment": "Generating-Multiple-Categories"}, "submit": {"timeTotal": 1550688, "age": "31", "comments": "it was fun and I would try it again! Thank you for your time!", "sex": "female"}}