{"info": {"finish": 1548124264134, "participant": 263, "exposed": true, "lab": false, "start": 1548123153502, "counterbalance": 6, "gentype": 0, "condition": "Cluster", "browser": {"platform": "Win32", "userAgent": "Mozilla/5.0 (Windows NT 10.0; Win64; x64) AppleWebKit/537.36 (KHTML, like Gecko) Chrome/71.0.3578.98 Safari/537.36"}}, "observation": {"11": {"stimulus": 1083, "trial": 11, "rt": 1494}, "10": {"stimulus": 1093, "trial": 10, "rt": 1622}, "1": {"stimulus": 583, "trial": 1, "rt": 2430}, "0": {"stimulus": 1093, "trial": 0, "rt": 2492}, "3": {"stimulus": 392, "trial": 3, "rt": 1718}, "2": {"stimulus": 1083, "trial": 2, "rt": 1998}, "5": {"stimulus": 1093, "trial": 5, "rt": 1862}, "4": {"stimulus": 392, "trial": 4, "rt": 2773}, "7": {"stimulus": 1083, "trial": 7, "rt": 1735}, "6": {"stimulus": 583, "trial": 6, "rt": 1607}, "9": {"stimulus": 583, "trial": 9, "rt": 1246}, "8": {"stimulus": 392, "trial": 8, "rt": 1487}}, "generation": {"1": {"category": "Not-Alpha", "trial": 1, "stimulus": 550, "rt": 5925}, "0": {"category": "Not-Alpha", "trial": 0, "stimulus": 1150, "rt": 8747}, "3": {"category": "Not-Alpha", "trial": 3, "stimulus": 1351, "rt": 5134}, "2": {"category": "Not-Alpha", "trial": 2, "stimulus": 2450, "rt": 6997}, "5": {"category": "Not-Alpha", "trial": 5, "stimulus": 706, "rt": 4758}, "4": {"category": "Not-Alpha", "trial": 4, "stimulus": 452, "rt": 6637}, "7": {"category": "Not-Alpha", "trial": 7, "stimulus": 500, "rt": 5046}, "6": {"category": "Not-Alpha", "trial": 6, "stimulus": 703, "rt": 4677}}, "generalization": {"56": {"stimulus": 1343, "trial": 56, "rt": 565, "response": "Alpha"}, "77": {"stimulus": 1374, "trial": 77, "rt": 990, "response": "Alpha"}, "54": {"stimulus": 1218, "trial": 54, "rt": 590, "response": "Beta"}, "42": {"stimulus": 2374, "trial": 42, "rt": 693, "response": "Alpha"}, "48": {"stimulus": 1062, "trial": 48, "rt": 488, "response": "Beta"}, "43": {"stimulus": 2124, "trial": 43, "rt": 765, "response": "Alpha"}, "60": {"stimulus": 655, "trial": 60, "rt": 597, "response": "Alpha"}, "61": {"stimulus": 30, "trial": 61, "rt": 957, "response": "Alpha"}, "62": {"stimulus": 1499, "trial": 62, "rt": 701, "response": "Alpha"}, "63": {"stimulus": 1905, "trial": 63, "rt": 755, "response": "Beta"}, "64": {"stimulus": 1843, "trial": 64, "rt": 799, "response": "Alpha"}, "49": {"stimulus": 2062, "trial": 49, "rt": 470, "response": "Beta"}, "66": {"stimulus": 687, "trial": 66, "rt": 781, "response": "Alpha"}, "67": {"stimulus": 312, "trial": 67, "rt": 805, "response": "Beta"}, "68": {"stimulus": 2030, "trial": 68, "rt": 1109, "response": "Alpha"}, "69": {"stimulus": 2437, "trial": 69, "rt": 509, "response": "Alpha"}, "80": {"stimulus": 999, "trial": 80, "rt": 693, "response": "Alpha"}, "52": {"stimulus": 1718, "trial": 52, "rt": 487, "response": "Beta"}, "53": {"stimulus": 218, "trial": 53, "rt": 661, "response": "Beta"}, "24": {"stimulus": 812, "trial": 24, "rt": 493, "response": "Beta"}, "25": {"stimulus": 499, "trial": 25, "rt": 791, "response": "Alpha"}, "26": {"stimulus": 2280, "trial": 26, "rt": 789, "response": "Alpha"}, "27": {"stimulus": 155, "trial": 27, "rt": 1087, "response": "Beta"}, "20": {"stimulus": 1874, "trial": 20, "rt": 1933, "response": "Alpha"}, "21": {"stimulus": 2343, "trial": 21, "rt": 836, "response": "Alpha"}, "22": {"stimulus": 2499, "trial": 22, "rt": 478, "response": "Alpha"}, "23": {"stimulus": 562, "trial": 23, "rt": 772, "response": "Beta"}, "46": {"stimulus": 62, "trial": 46, "rt": 853, "response": "Beta"}, "47": {"stimulus": 1812, "trial": 47, "rt": 479, "response": "Beta"}, "44": {"stimulus": 1530, "trial": 44, "rt": 781, "response": "Alpha"}, "45": {"stimulus": 1624, "trial": 45, "rt": 742, "response": "Alpha"}, "28": {"stimulus": 468, "trial": 28, "rt": 1270, "response": "Alpha"}, "29": {"stimulus": 1280, "trial": 29, "rt": 1773, "response": "Alpha"}, "40": {"stimulus": 968, "trial": 40, "rt": 2123, "response": "Alpha"}, "41": {"stimulus": 749, "trial": 41, "rt": 572, "response": "Alpha"}, "1": {"stimulus": 374, "trial": 1, "rt": 805, "response": "Alpha"}, "0": {"stimulus": 1468, "trial": 0, "rt": 2355, "response": "Alpha"}, "3": {"stimulus": 718, "trial": 3, "rt": 726, "response": "Alpha"}, "2": {"stimulus": 874, "trial": 2, "rt": 965, "response": "Alpha"}, "5": {"stimulus": 2312, "trial": 5, "rt": 934, "response": "Beta"}, "4": {"stimulus": 1437, "trial": 4, "rt": 964, "response": "Alpha"}, "7": {"stimulus": 1312, "trial": 7, "rt": 1077, "response": "Beta"}, "6": {"stimulus": 1187, "trial": 6, "rt": 1213, "response": "Alpha"}, "9": {"stimulus": 1999, "trial": 9, "rt": 529, "response": "Alpha"}, "8": {"stimulus": 437, "trial": 8, "rt": 694, "response": "Alpha"}, "78": {"stimulus": 2093, "trial": 78, "rt": 631, "response": "Alpha"}, "51": {"stimulus": 1562, "trial": 51, "rt": 527, "response": "Beta"}, "39": {"stimulus": 780, "trial": 39, "rt": 784, "response": "Alpha"}, "65": {"stimulus": 405, "trial": 65, "rt": 745, "response": "Beta"}, "76": {"stimulus": 124, "trial": 76, "rt": 1430, "response": "Alpha"}, "75": {"stimulus": 343, "trial": 75, "rt": 837, "response": "Alpha"}, "38": {"stimulus": 2249, "trial": 38, "rt": 757, "response": "Alpha"}, "73": {"stimulus": 1593, "trial": 73, "rt": 660, "response": "Alpha"}, "72": {"stimulus": 1968, "trial": 72, "rt": 958, "response": "Beta"}, "71": {"stimulus": 1937, "trial": 71, "rt": 646, "response": "Alpha"}, "70": {"stimulus": 1780, "trial": 70, "rt": 717, "response": "Alpha"}, "59": {"stimulus": 2468, "trial": 59, "rt": 1079, "response": "Alpha"}, "79": {"stimulus": 0, "trial": 79, "rt": 789, "response": "Beta"}, "58": {"stimulus": 1405, "trial": 58, "rt": 989, "response": "Beta"}, "11": {"stimulus": 593, "trial": 11, "rt": 1030, "response": "Alpha"}, "10": {"stimulus": 624, "trial": 10, "rt": 1206, "response": "Alpha"}, "13": {"stimulus": 93, "trial": 13, "rt": 655, "response": "Alpha"}, "12": {"stimulus": 1249, "trial": 12, "rt": 550, "response": "Alpha"}, "15": {"stimulus": 280, "trial": 15, "rt": 838, "response": "Alpha"}, "14": {"stimulus": 1155, "trial": 14, "rt": 862, "response": "Beta"}, "17": {"stimulus": 1749, "trial": 17, "rt": 677, "response": "Alpha"}, "16": {"stimulus": 1030, "trial": 16, "rt": 565, "response": "Alpha"}, "19": {"stimulus": 937, "trial": 19, "rt": 526, "response": "Alpha"}, "18": {"stimulus": 187, "trial": 18, "rt": 730, "response": "Alpha"}, "31": {"stimulus": 1093, "trial": 31, "rt": 526, "response": "Alpha"}, "30": {"stimulus": 843, "trial": 30, "rt": 1221, "response": "Alpha"}, "37": {"stimulus": 1687, "trial": 37, "rt": 557, "response": "Alpha"}, "36": {"stimulus": 530, "trial": 36, "rt": 710, "response": "Alpha"}, "35": {"stimulus": 2187, "trial": 35, "rt": 806, "response": "Alpha"}, "34": {"stimulus": 2155, "trial": 34, "rt": 509, "response": "Beta"}, "33": {"stimulus": 905, "trial": 33, "rt": 765, "response": "Beta"}, "55": {"stimulus": 249, "trial": 55, "rt": 910, "response": "Alpha"}, "74": {"stimulus": 1655, "trial": 74, "rt": 1853, "response": "Beta"}, "32": {"stimulus": 1124, "trial": 32, "rt": 925, "response": "Alpha"}, "57": {"stimulus": 2218, "trial": 57, "rt": 854, "response": "Beta"}, "50": {"stimulus": 2405, "trial": 50, "rt": 471, "response": "Beta"}}, "experiment": {"Paradigm": "TACL", "Stimuli": "Size-Color Squares", "Experiment": "Generating-Multiple-Categories"}, "submit": {"timeTotal": 1110926, "age": "28", "comments": "i thought it was really fun thank you!", "sex": "female"}}