{"info": {"finish": 1548124131092, "participant": 264, "exposed": true, "lab": false, "start": 1548123876807, "counterbalance": 4, "gentype": 0, "condition": "Cluster", "browser": {"platform": "MacIntel", "userAgent": "Mozilla/5.0 (Macintosh; Intel Mac OS X 10_11_6) AppleWebKit/537.36 (KHTML, like Gecko) Chrome/71.0.3578.98 Safari/537.36"}}, "observation": {"11": {"stimulus": 392, "trial": 11, "rt": 1394}, "10": {"stimulus": 1083, "trial": 10, "rt": 1366}, "1": {"stimulus": 583, "trial": 1, "rt": 2110}, "0": {"stimulus": 1083, "trial": 0, "rt": 3110}, "3": {"stimulus": 392, "trial": 3, "rt": 1365}, "2": {"stimulus": 1093, "trial": 2, "rt": 1599}, "5": {"stimulus": 1083, "trial": 5, "rt": 1363}, "4": {"stimulus": 583, "trial": 4, "rt": 1378}, "7": {"stimulus": 392, "trial": 7, "rt": 1364}, "6": {"stimulus": 1093, "trial": 6, "rt": 1403}, "9": {"stimulus": 583, "trial": 9, "rt": 1402}, "8": {"stimulus": 1093, "trial": 8, "rt": 1324}}, "generation": {"1": {"category": "Not-Alpha", "trial": 1, "stimulus": 2199, "rt": 6815}, "0": {"category": "Not-Alpha", "trial": 0, "stimulus": 955, "rt": 5777}, "3": {"category": "Not-Alpha", "trial": 3, "stimulus": 73, "rt": 3929}, "2": {"category": "Not-Alpha", "trial": 2, "stimulus": 5, "rt": 3599}, "5": {"category": "Not-Alpha", "trial": 5, "stimulus": 611, "rt": 5374}, "4": {"category": "Not-Alpha", "trial": 4, "stimulus": 349, "rt": 5480}, "7": {"category": "Not-Alpha", "trial": 7, "stimulus": 462, "rt": 5411}, "6": {"category": "Not-Alpha", "trial": 6, "stimulus": 501, "rt": 5090}}, "generalization": {"56": {"stimulus": 812, "trial": 56, "rt": 631, "response": "Beta"}, "77": {"stimulus": 530, "trial": 77, "rt": 887, "response": "Beta"}, "54": {"stimulus": 1030, "trial": 54, "rt": 597, "response": "Beta"}, "42": {"stimulus": 1499, "trial": 42, "rt": 883, "response": "Beta"}, "48": {"stimulus": 624, "trial": 48, "rt": 677, "response": "Beta"}, "43": {"stimulus": 2468, "trial": 43, "rt": 988, "response": "Alpha"}, "60": {"stimulus": 437, "trial": 60, "rt": 496, "response": "Beta"}, "61": {"stimulus": 1218, "trial": 61, "rt": 536, "response": "Beta"}, "62": {"stimulus": 655, "trial": 62, "rt": 581, "response": "Beta"}, "63": {"stimulus": 2405, "trial": 63, "rt": 780, "response": "Beta"}, "64": {"stimulus": 93, "trial": 64, "rt": 674, "response": "Beta"}, "49": {"stimulus": 2312, "trial": 49, "rt": 1025, "response": "Beta"}, "66": {"stimulus": 2155, "trial": 66, "rt": 1044, "response": "Beta"}, "67": {"stimulus": 562, "trial": 67, "rt": 597, "response": "Beta"}, "68": {"stimulus": 843, "trial": 68, "rt": 746, "response": "Beta"}, "69": {"stimulus": 1468, "trial": 69, "rt": 630, "response": "Beta"}, "80": {"stimulus": 1374, "trial": 80, "rt": 1144, "response": "Alpha"}, "52": {"stimulus": 937, "trial": 52, "rt": 696, "response": "Beta"}, "53": {"stimulus": 468, "trial": 53, "rt": 625, "response": "Beta"}, "24": {"stimulus": 1280, "trial": 24, "rt": 841, "response": "Alpha"}, "25": {"stimulus": 1937, "trial": 25, "rt": 740, "response": "Alpha"}, "26": {"stimulus": 780, "trial": 26, "rt": 710, "response": "Beta"}, "27": {"stimulus": 1437, "trial": 27, "rt": 1017, "response": "Beta"}, "20": {"stimulus": 2374, "trial": 20, "rt": 1004, "response": "Alpha"}, "21": {"stimulus": 593, "trial": 21, "rt": 722, "response": "Beta"}, "22": {"stimulus": 905, "trial": 22, "rt": 781, "response": "Beta"}, "23": {"stimulus": 1749, "trial": 23, "rt": 1326, "response": "Beta"}, "46": {"stimulus": 874, "trial": 46, "rt": 732, "response": "Beta"}, "47": {"stimulus": 1624, "trial": 47, "rt": 911, "response": "Alpha"}, "44": {"stimulus": 312, "trial": 44, "rt": 637, "response": "Beta"}, "45": {"stimulus": 968, "trial": 45, "rt": 464, "response": "Beta"}, "28": {"stimulus": 2030, "trial": 28, "rt": 702, "response": "Alpha"}, "29": {"stimulus": 1562, "trial": 29, "rt": 873, "response": "Beta"}, "40": {"stimulus": 1124, "trial": 40, "rt": 864, "response": "Alpha"}, "41": {"stimulus": 1874, "trial": 41, "rt": 809, "response": "Alpha"}, "1": {"stimulus": 218, "trial": 1, "rt": 1122, "response": "Beta"}, "0": {"stimulus": 2124, "trial": 0, "rt": 2022, "response": "Alpha"}, "3": {"stimulus": 1093, "trial": 3, "rt": 1012, "response": "Alpha"}, "2": {"stimulus": 187, "trial": 2, "rt": 1012, "response": "Beta"}, "5": {"stimulus": 1187, "trial": 5, "rt": 1691, "response": "Beta"}, "4": {"stimulus": 2249, "trial": 4, "rt": 1283, "response": "Beta"}, "7": {"stimulus": 2343, "trial": 7, "rt": 929, "response": "Alpha"}, "6": {"stimulus": 1843, "trial": 6, "rt": 888, "response": "Alpha"}, "9": {"stimulus": 30, "trial": 9, "rt": 823, "response": "Beta"}, "8": {"stimulus": 2062, "trial": 8, "rt": 1052, "response": "Beta"}, "78": {"stimulus": 374, "trial": 78, "rt": 646, "response": "Beta"}, "51": {"stimulus": 2187, "trial": 51, "rt": 886, "response": "Alpha"}, "39": {"stimulus": 1155, "trial": 39, "rt": 889, "response": "Beta"}, "65": {"stimulus": 499, "trial": 65, "rt": 893, "response": "Beta"}, "76": {"stimulus": 2437, "trial": 76, "rt": 765, "response": "Alpha"}, "75": {"stimulus": 1968, "trial": 75, "rt": 855, "response": "Alpha"}, "38": {"stimulus": 1312, "trial": 38, "rt": 1570, "response": "Beta"}, "73": {"stimulus": 1655, "trial": 73, "rt": 666, "response": "Beta"}, "72": {"stimulus": 1812, "trial": 72, "rt": 1945, "response": "Beta"}, "71": {"stimulus": 343, "trial": 71, "rt": 690, "response": "Beta"}, "70": {"stimulus": 1343, "trial": 70, "rt": 777, "response": "Beta"}, "59": {"stimulus": 687, "trial": 59, "rt": 662, "response": "Beta"}, "79": {"stimulus": 249, "trial": 79, "rt": 528, "response": "Beta"}, "58": {"stimulus": 2280, "trial": 58, "rt": 1111, "response": "Alpha"}, "11": {"stimulus": 2093, "trial": 11, "rt": 919, "response": "Alpha"}, "10": {"stimulus": 718, "trial": 10, "rt": 573, "response": "Beta"}, "13": {"stimulus": 1062, "trial": 13, "rt": 754, "response": "Beta"}, "12": {"stimulus": 62, "trial": 12, "rt": 768, "response": "Beta"}, "15": {"stimulus": 1999, "trial": 15, "rt": 904, "response": "Beta"}, "14": {"stimulus": 2499, "trial": 14, "rt": 843, "response": "Alpha"}, "17": {"stimulus": 1780, "trial": 17, "rt": 1000, "response": "Alpha"}, "16": {"stimulus": 1530, "trial": 16, "rt": 693, "response": "Beta"}, "19": {"stimulus": 0, "trial": 19, "rt": 874, "response": "Beta"}, "18": {"stimulus": 1718, "trial": 18, "rt": 1106, "response": "Beta"}, "31": {"stimulus": 124, "trial": 31, "rt": 724, "response": "Beta"}, "30": {"stimulus": 999, "trial": 30, "rt": 753, "response": "Beta"}, "37": {"stimulus": 405, "trial": 37, "rt": 655, "response": "Beta"}, "36": {"stimulus": 749, "trial": 36, "rt": 722, "response": "Beta"}, "35": {"stimulus": 280, "trial": 35, "rt": 729, "response": "Beta"}, "34": {"stimulus": 1687, "trial": 34, "rt": 769, "response": "Alpha"}, "33": {"stimulus": 155, "trial": 33, "rt": 818, "response": "Beta"}, "55": {"stimulus": 1405, "trial": 55, "rt": 819, "response": "Beta"}, "74": {"stimulus": 1593, "trial": 74, "rt": 1139, "response": "Alpha"}, "32": {"stimulus": 1905, "trial": 32, "rt": 1161, "response": "Beta"}, "57": {"stimulus": 1249, "trial": 57, "rt": 724, "response": "Beta"}, "50": {"stimulus": 2218, "trial": 50, "rt": 1206, "response": "Beta"}}, "experiment": {"Paradigm": "TACL", "Stimuli": "Size-Color Squares", "Experiment": "Generating-Multiple-Categories"}, "submit": {"timeTotal": 254760, "age": "47", "comments": " ", "sex": "male"}}