{"info": {"finish": 1548124937023, "participant": 271, "exposed": true, "lab": false, "start": 1548124693627, "counterbalance": 5, "gentype": 0, "condition": "Row", "browser": {"platform": "Win32", "userAgent": "Mozilla/5.0 (Windows NT 6.1; Win64; x64) AppleWebKit/537.36 (KHTML, like Gecko) Chrome/71.0.3578.98 Safari/537.36"}}, "observation": {"11": {"stimulus": 582, "trial": 11, "rt": 4463}, "10": {"stimulus": 493, "trial": 10, "rt": 1724}, "1": {"stimulus": 421, "trial": 1, "rt": 1719}, "0": {"stimulus": 582, "trial": 0, "rt": 1979}, "3": {"stimulus": 612, "trial": 3, "rt": 1742}, "2": {"stimulus": 493, "trial": 2, "rt": 1399}, "5": {"stimulus": 493, "trial": 5, "rt": 1947}, "4": {"stimulus": 421, "trial": 4, "rt": 1624}, "7": {"stimulus": 582, "trial": 7, "rt": 1638}, "6": {"stimulus": 612, "trial": 6, "rt": 2001}, "9": {"stimulus": 612, "trial": 9, "rt": 1961}, "8": {"stimulus": 421, "trial": 8, "rt": 1583}}, "generation": {"1": {"category": "Not-Alpha", "trial": 1, "stimulus": 2352, "rt": 6649}, "0": {"category": "Not-Alpha", "trial": 0, "stimulus": 2450, "rt": 11628}, "3": {"category": "Not-Alpha", "trial": 3, "stimulus": 2477, "rt": 5174}, "2": {"category": "Not-Alpha", "trial": 2, "stimulus": 2446, "rt": 4268}, "5": {"category": "Not-Alpha", "trial": 5, "stimulus": 2467, "rt": 4007}, "4": {"category": "Not-Alpha", "trial": 4, "stimulus": 2324, "rt": 3536}, "7": {"category": "Not-Alpha", "trial": 7, "stimulus": 2260, "rt": 5086}, "6": {"category": "Not-Alpha", "trial": 6, "stimulus": 2464, "rt": 3534}}, "generalization": {"56": {"stimulus": 1905, "trial": 56, "rt": 727, "response": "Beta"}, "77": {"stimulus": 2218, "trial": 77, "rt": 935, "response": "Beta"}, "54": {"stimulus": 249, "trial": 54, "rt": 508, "response": "Alpha"}, "42": {"stimulus": 937, "trial": 42, "rt": 485, "response": "Alpha"}, "48": {"stimulus": 62, "trial": 48, "rt": 417, "response": "Alpha"}, "43": {"stimulus": 280, "trial": 43, "rt": 465, "response": "Alpha"}, "60": {"stimulus": 2437, "trial": 60, "rt": 784, "response": "Beta"}, "61": {"stimulus": 2468, "trial": 61, "rt": 975, "response": "Beta"}, "62": {"stimulus": 718, "trial": 62, "rt": 487, "response": "Alpha"}, "63": {"stimulus": 1030, "trial": 63, "rt": 415, "response": "Alpha"}, "64": {"stimulus": 1187, "trial": 64, "rt": 495, "response": "Alpha"}, "49": {"stimulus": 2093, "trial": 49, "rt": 902, "response": "Beta"}, "66": {"stimulus": 1218, "trial": 66, "rt": 599, "response": "Alpha"}, "67": {"stimulus": 1374, "trial": 67, "rt": 438, "response": "Alpha"}, "68": {"stimulus": 2187, "trial": 68, "rt": 972, "response": "Beta"}, "69": {"stimulus": 593, "trial": 69, "rt": 530, "response": "Alpha"}, "80": {"stimulus": 0, "trial": 80, "rt": 855, "response": "Alpha"}, "52": {"stimulus": 624, "trial": 52, "rt": 382, "response": "Alpha"}, "53": {"stimulus": 1718, "trial": 53, "rt": 823, "response": "Beta"}, "24": {"stimulus": 343, "trial": 24, "rt": 975, "response": "Alpha"}, "25": {"stimulus": 1499, "trial": 25, "rt": 622, "response": "Beta"}, "26": {"stimulus": 1530, "trial": 26, "rt": 540, "response": "Beta"}, "27": {"stimulus": 2343, "trial": 27, "rt": 577, "response": "Beta"}, "20": {"stimulus": 187, "trial": 20, "rt": 854, "response": "Alpha"}, "21": {"stimulus": 374, "trial": 21, "rt": 539, "response": "Alpha"}, "22": {"stimulus": 155, "trial": 22, "rt": 431, "response": "Alpha"}, "23": {"stimulus": 1562, "trial": 23, "rt": 718, "response": "Beta"}, "46": {"stimulus": 1999, "trial": 46, "rt": 1455, "response": "Beta"}, "47": {"stimulus": 437, "trial": 47, "rt": 710, "response": "Alpha"}, "44": {"stimulus": 1624, "trial": 44, "rt": 708, "response": "Alpha"}, "45": {"stimulus": 1343, "trial": 45, "rt": 527, "response": "Alpha"}, "28": {"stimulus": 905, "trial": 28, "rt": 457, "response": "Alpha"}, "29": {"stimulus": 1937, "trial": 29, "rt": 1545, "response": "Alpha"}, "40": {"stimulus": 93, "trial": 40, "rt": 528, "response": "Alpha"}, "41": {"stimulus": 1124, "trial": 41, "rt": 456, "response": "Alpha"}, "1": {"stimulus": 468, "trial": 1, "rt": 1447, "response": "Alpha"}, "0": {"stimulus": 1812, "trial": 0, "rt": 6173, "response": "Beta"}, "3": {"stimulus": 1874, "trial": 3, "rt": 727, "response": "Beta"}, "2": {"stimulus": 1468, "trial": 2, "rt": 711, "response": "Beta"}, "5": {"stimulus": 655, "trial": 5, "rt": 608, "response": "Alpha"}, "4": {"stimulus": 2124, "trial": 4, "rt": 3158, "response": "Beta"}, "7": {"stimulus": 1437, "trial": 7, "rt": 1239, "response": "Beta"}, "6": {"stimulus": 1687, "trial": 6, "rt": 638, "response": "Beta"}, "9": {"stimulus": 687, "trial": 9, "rt": 511, "response": "Alpha"}, "8": {"stimulus": 530, "trial": 8, "rt": 712, "response": "Alpha"}, "78": {"stimulus": 1155, "trial": 78, "rt": 494, "response": "Alpha"}, "51": {"stimulus": 1249, "trial": 51, "rt": 831, "response": "Alpha"}, "39": {"stimulus": 499, "trial": 39, "rt": 543, "response": "Alpha"}, "65": {"stimulus": 749, "trial": 65, "rt": 447, "response": "Alpha"}, "76": {"stimulus": 2405, "trial": 76, "rt": 591, "response": "Beta"}, "75": {"stimulus": 1655, "trial": 75, "rt": 934, "response": "Alpha"}, "38": {"stimulus": 2499, "trial": 38, "rt": 674, "response": "Beta"}, "73": {"stimulus": 812, "trial": 73, "rt": 422, "response": "Alpha"}, "72": {"stimulus": 218, "trial": 72, "rt": 462, "response": "Alpha"}, "71": {"stimulus": 1593, "trial": 71, "rt": 846, "response": "Alpha"}, "70": {"stimulus": 1062, "trial": 70, "rt": 383, "response": "Alpha"}, "59": {"stimulus": 1312, "trial": 59, "rt": 943, "response": "Alpha"}, "79": {"stimulus": 312, "trial": 79, "rt": 567, "response": "Alpha"}, "58": {"stimulus": 780, "trial": 58, "rt": 570, "response": "Alpha"}, "11": {"stimulus": 2155, "trial": 11, "rt": 544, "response": "Beta"}, "10": {"stimulus": 2062, "trial": 10, "rt": 519, "response": "Beta"}, "13": {"stimulus": 1968, "trial": 13, "rt": 589, "response": "Beta"}, "12": {"stimulus": 1843, "trial": 12, "rt": 799, "response": "Beta"}, "15": {"stimulus": 2280, "trial": 15, "rt": 728, "response": "Beta"}, "14": {"stimulus": 1280, "trial": 14, "rt": 1775, "response": "Beta"}, "17": {"stimulus": 2030, "trial": 17, "rt": 694, "response": "Beta"}, "16": {"stimulus": 843, "trial": 16, "rt": 687, "response": "Alpha"}, "19": {"stimulus": 2312, "trial": 19, "rt": 960, "response": "Beta"}, "18": {"stimulus": 30, "trial": 18, "rt": 694, "response": "Alpha"}, "31": {"stimulus": 124, "trial": 31, "rt": 425, "response": "Alpha"}, "30": {"stimulus": 874, "trial": 30, "rt": 686, "response": "Alpha"}, "37": {"stimulus": 1749, "trial": 37, "rt": 515, "response": "Beta"}, "36": {"stimulus": 405, "trial": 36, "rt": 548, "response": "Alpha"}, "35": {"stimulus": 562, "trial": 35, "rt": 537, "response": "Alpha"}, "34": {"stimulus": 999, "trial": 34, "rt": 629, "response": "Alpha"}, "33": {"stimulus": 1405, "trial": 33, "rt": 815, "response": "Alpha"}, "55": {"stimulus": 1093, "trial": 55, "rt": 774, "response": "Alpha"}, "74": {"stimulus": 968, "trial": 74, "rt": 751, "response": "Alpha"}, "32": {"stimulus": 2249, "trial": 32, "rt": 1183, "response": "Alpha"}, "57": {"stimulus": 2374, "trial": 57, "rt": 570, "response": "Beta"}, "50": {"stimulus": 1780, "trial": 50, "rt": 551, "response": "Beta"}}, "experiment": {"Paradigm": "TACL", "Stimuli": "Size-Color Squares", "Experiment": "Generating-Multiple-Categories"}, "submit": {"timeTotal": 243698, "age": "28", "comments": "", "sex": "Male"}}