{"info": {"finish": 1548128539141, "participant": 279, "exposed": true, "lab": false, "start": 1548128036159, "counterbalance": 0, "gentype": 0, "condition": "XOR", "browser": {"platform": "Win32", "userAgent": "Mozilla/5.0 (Windows NT 10.0; Win64; x64; rv:64.0) Gecko/20100101 Firefox/64.0"}}, "observation": {"11": {"stimulus": 1479, "trial": 11, "rt": 2477}, "10": {"stimulus": 1890, "trial": 10, "rt": 2080}, "1": {"stimulus": 818, "trial": 1, "rt": 2774}, "0": {"stimulus": 403, "trial": 0, "rt": 5013}, "3": {"stimulus": 1479, "trial": 3, "rt": 2884}, "2": {"stimulus": 1890, "trial": 2, "rt": 5088}, "5": {"stimulus": 403, "trial": 5, "rt": 1768}, "4": {"stimulus": 818, "trial": 4, "rt": 2023}, "7": {"stimulus": 1479, "trial": 7, "rt": 2446}, "6": {"stimulus": 1890, "trial": 6, "rt": 1966}, "9": {"stimulus": 403, "trial": 9, "rt": 2395}, "8": {"stimulus": 818, "trial": 8, "rt": 2293}}, "generation": {"1": {"category": "Not-Alpha", "trial": 1, "stimulus": 49, "rt": 6160}, "0": {"category": "Not-Alpha", "trial": 0, "stimulus": 2450, "rt": 18106}, "3": {"category": "Not-Alpha", "trial": 3, "stimulus": 2457, "rt": 10371}, "2": {"category": "Not-Alpha", "trial": 2, "stimulus": 25, "rt": 8999}, "5": {"category": "Not-Alpha", "trial": 5, "stimulus": 1854, "rt": 24060}, "4": {"category": "Not-Alpha", "trial": 4, "stimulus": 40, "rt": 9833}, "7": {"category": "Not-Alpha", "trial": 7, "stimulus": 2460, "rt": 14817}, "6": {"category": "Not-Alpha", "trial": 6, "stimulus": 33, "rt": 8330}}, "generalization": {"56": {"stimulus": 937, "trial": 56, "rt": 1526, "response": "Alpha"}, "77": {"stimulus": 249, "trial": 77, "rt": 941, "response": "Beta"}, "54": {"stimulus": 374, "trial": 54, "rt": 2960, "response": "Beta"}, "42": {"stimulus": 1093, "trial": 42, "rt": 1214, "response": "Beta"}, "48": {"stimulus": 562, "trial": 48, "rt": 2419, "response": "Beta"}, "43": {"stimulus": 1593, "trial": 43, "rt": 4013, "response": "Beta"}, "60": {"stimulus": 30, "trial": 60, "rt": 1431, "response": "Beta"}, "61": {"stimulus": 2499, "trial": 61, "rt": 1118, "response": "Alpha"}, "62": {"stimulus": 187, "trial": 62, "rt": 1443, "response": "Beta"}, "63": {"stimulus": 1187, "trial": 63, "rt": 1133, "response": "Alpha"}, "64": {"stimulus": 1968, "trial": 64, "rt": 1157, "response": "Beta"}, "49": {"stimulus": 1655, "trial": 49, "rt": 1663, "response": "Beta"}, "66": {"stimulus": 2374, "trial": 66, "rt": 1077, "response": "Beta"}, "67": {"stimulus": 1124, "trial": 67, "rt": 1126, "response": "Alpha"}, "68": {"stimulus": 124, "trial": 68, "rt": 1469, "response": "Beta"}, "69": {"stimulus": 1312, "trial": 69, "rt": 2346, "response": "Alpha"}, "80": {"stimulus": 343, "trial": 80, "rt": 882, "response": "Beta"}, "52": {"stimulus": 2218, "trial": 52, "rt": 1073, "response": "Beta"}, "53": {"stimulus": 2468, "trial": 53, "rt": 795, "response": "Beta"}, "24": {"stimulus": 1624, "trial": 24, "rt": 5069, "response": "Beta"}, "25": {"stimulus": 843, "trial": 25, "rt": 3063, "response": "Beta"}, "26": {"stimulus": 1812, "trial": 26, "rt": 2164, "response": "Beta"}, "27": {"stimulus": 312, "trial": 27, "rt": 2443, "response": "Beta"}, "20": {"stimulus": 718, "trial": 20, "rt": 1776, "response": "Beta"}, "21": {"stimulus": 624, "trial": 21, "rt": 1660, "response": "Beta"}, "22": {"stimulus": 2249, "trial": 22, "rt": 1136, "response": "Alpha"}, "23": {"stimulus": 1218, "trial": 23, "rt": 1693, "response": "Beta"}, "46": {"stimulus": 2062, "trial": 46, "rt": 1911, "response": "Beta"}, "47": {"stimulus": 2187, "trial": 47, "rt": 1393, "response": "Alpha"}, "44": {"stimulus": 1030, "trial": 44, "rt": 1462, "response": "Alpha"}, "45": {"stimulus": 62, "trial": 45, "rt": 1088, "response": "Beta"}, "28": {"stimulus": 499, "trial": 28, "rt": 1178, "response": "Beta"}, "29": {"stimulus": 2030, "trial": 29, "rt": 1401, "response": "Beta"}, "40": {"stimulus": 1687, "trial": 40, "rt": 799, "response": "Alpha"}, "41": {"stimulus": 1062, "trial": 41, "rt": 2748, "response": "Alpha"}, "1": {"stimulus": 1249, "trial": 1, "rt": 2289, "response": "Beta"}, "0": {"stimulus": 655, "trial": 0, "rt": 4423, "response": "Alpha"}, "3": {"stimulus": 1280, "trial": 3, "rt": 2277, "response": "Alpha"}, "2": {"stimulus": 155, "trial": 2, "rt": 6313, "response": "Beta"}, "5": {"stimulus": 280, "trial": 5, "rt": 1153, "response": "Beta"}, "4": {"stimulus": 468, "trial": 4, "rt": 5575, "response": "Beta"}, "7": {"stimulus": 1874, "trial": 7, "rt": 4219, "response": "Alpha"}, "6": {"stimulus": 1468, "trial": 6, "rt": 3091, "response": "Alpha"}, "9": {"stimulus": 1780, "trial": 9, "rt": 10282, "response": "Alpha"}, "8": {"stimulus": 437, "trial": 8, "rt": 2036, "response": "Beta"}, "78": {"stimulus": 1343, "trial": 78, "rt": 1699, "response": "Alpha"}, "51": {"stimulus": 2312, "trial": 51, "rt": 1018, "response": "Beta"}, "39": {"stimulus": 1905, "trial": 39, "rt": 1730, "response": "Beta"}, "65": {"stimulus": 2405, "trial": 65, "rt": 1275, "response": "Beta"}, "76": {"stimulus": 1843, "trial": 76, "rt": 1742, "response": "Alpha"}, "75": {"stimulus": 1155, "trial": 75, "rt": 3110, "response": "Beta"}, "38": {"stimulus": 874, "trial": 38, "rt": 1192, "response": "Beta"}, "73": {"stimulus": 905, "trial": 73, "rt": 1993, "response": "Alpha"}, "72": {"stimulus": 2437, "trial": 72, "rt": 2249, "response": "Alpha"}, "71": {"stimulus": 405, "trial": 71, "rt": 993, "response": "Beta"}, "70": {"stimulus": 687, "trial": 70, "rt": 2513, "response": "Alpha"}, "59": {"stimulus": 0, "trial": 59, "rt": 2546, "response": "Beta"}, "79": {"stimulus": 1999, "trial": 79, "rt": 832, "response": "Alpha"}, "58": {"stimulus": 593, "trial": 58, "rt": 3162, "response": "Beta"}, "11": {"stimulus": 1937, "trial": 11, "rt": 1403, "response": "Alpha"}, "10": {"stimulus": 1437, "trial": 10, "rt": 1908, "response": "Alpha"}, "13": {"stimulus": 1374, "trial": 13, "rt": 2007, "response": "Beta"}, "12": {"stimulus": 2124, "trial": 12, "rt": 1500, "response": "Beta"}, "15": {"stimulus": 1718, "trial": 15, "rt": 966, "response": "Beta"}, "14": {"stimulus": 1562, "trial": 14, "rt": 1611, "response": "Beta"}, "17": {"stimulus": 812, "trial": 17, "rt": 1398, "response": "Alpha"}, "16": {"stimulus": 2155, "trial": 16, "rt": 1445, "response": "Beta"}, "19": {"stimulus": 1499, "trial": 19, "rt": 1185, "response": "Alpha"}, "18": {"stimulus": 218, "trial": 18, "rt": 3715, "response": "Beta"}, "31": {"stimulus": 780, "trial": 31, "rt": 1646, "response": "Alpha"}, "30": {"stimulus": 1530, "trial": 30, "rt": 1481, "response": "Beta"}, "37": {"stimulus": 530, "trial": 37, "rt": 1872, "response": "Beta"}, "36": {"stimulus": 1405, "trial": 36, "rt": 1005, "response": "Beta"}, "35": {"stimulus": 2093, "trial": 35, "rt": 1618, "response": "Alpha"}, "34": {"stimulus": 2280, "trial": 34, "rt": 1493, "response": "Beta"}, "33": {"stimulus": 999, "trial": 33, "rt": 3708, "response": "Beta"}, "55": {"stimulus": 1749, "trial": 55, "rt": 967, "response": "Alpha"}, "74": {"stimulus": 93, "trial": 74, "rt": 1279, "response": "Beta"}, "32": {"stimulus": 2343, "trial": 32, "rt": 874, "response": "Alpha"}, "57": {"stimulus": 968, "trial": 57, "rt": 720, "response": "Alpha"}, "50": {"stimulus": 749, "trial": 50, "rt": 26986, "response": "Beta"}}, "experiment": {"Paradigm": "TACL", "Stimuli": "Size-Color Squares", "Experiment": "Generating-Multiple-Categories"}, "submit": {"timeTotal": 503232, "age": "31", "comments": "This was a lot harder than I initially thought.", "sex": "male"}}