{"info": {"finish": 1548129492265, "participant": 284, "exposed": true, "lab": false, "start": 1548129029604, "counterbalance": 6, "gentype": 1, "condition": "Row", "browser": {"platform": "Win32", "userAgent": "Mozilla/5.0 (Windows NT 6.2; Win64; x64) AppleWebKit/537.36 (KHTML, like Gecko) Chrome/71.0.3578.98 Safari/537.36"}}, "observation": {"11": {"stimulus": 612, "trial": 11, "rt": 1866}, "10": {"stimulus": 421, "trial": 10, "rt": 1841}, "1": {"stimulus": 421, "trial": 1, "rt": 2474}, "0": {"stimulus": 493, "trial": 0, "rt": 6049}, "3": {"stimulus": 582, "trial": 3, "rt": 1752}, "2": {"stimulus": 612, "trial": 2, "rt": 1859}, "5": {"stimulus": 582, "trial": 5, "rt": 2004}, "4": {"stimulus": 493, "trial": 4, "rt": 1679}, "7": {"stimulus": 421, "trial": 7, "rt": 7247}, "6": {"stimulus": 612, "trial": 6, "rt": 1878}, "9": {"stimulus": 582, "trial": 9, "rt": 2168}, "8": {"stimulus": 493, "trial": 8, "rt": 1923}}, "generation": {"1": {"category": "Beta", "trial": 1, "stimulus": 2468, "rt": 8627}, "0": {"category": "Beta", "trial": 0, "stimulus": 2467, "rt": 15123}, "3": {"category": "Beta", "trial": 3, "stimulus": 2488, "rt": 7465}, "2": {"category": "Beta", "trial": 2, "stimulus": 2478, "rt": 5628}, "5": {"category": "Beta", "trial": 5, "stimulus": 2457, "rt": 5799}, "4": {"category": "Beta", "trial": 4, "stimulus": 2498, "rt": 16227}, "7": {"category": "Beta", "trial": 7, "stimulus": 2462, "rt": 5417}, "6": {"category": "Beta", "trial": 6, "stimulus": 2490, "rt": 94485}}, "generalization": {"56": {"stimulus": 1905, "trial": 56, "rt": 677, "response": "Beta"}, "77": {"stimulus": 2062, "trial": 77, "rt": 2885, "response": "Beta"}, "54": {"stimulus": 374, "trial": 54, "rt": 2043, "response": "Alpha"}, "42": {"stimulus": 593, "trial": 42, "rt": 1133, "response": "Alpha"}, "48": {"stimulus": 1749, "trial": 48, "rt": 2102, "response": "Beta"}, "43": {"stimulus": 124, "trial": 43, "rt": 603, "response": "Alpha"}, "60": {"stimulus": 1124, "trial": 60, "rt": 1922, "response": "Beta"}, "61": {"stimulus": 1562, "trial": 61, "rt": 700, "response": "Beta"}, "62": {"stimulus": 1593, "trial": 62, "rt": 528, "response": "Beta"}, "63": {"stimulus": 905, "trial": 63, "rt": 1416, "response": "Alpha"}, "64": {"stimulus": 499, "trial": 64, "rt": 2018, "response": "Alpha"}, "49": {"stimulus": 1874, "trial": 49, "rt": 614, "response": "Beta"}, "66": {"stimulus": 1937, "trial": 66, "rt": 553, "response": "Beta"}, "67": {"stimulus": 1468, "trial": 67, "rt": 2456, "response": "Beta"}, "68": {"stimulus": 1374, "trial": 68, "rt": 1570, "response": "Beta"}, "69": {"stimulus": 624, "trial": 69, "rt": 859, "response": "Alpha"}, "80": {"stimulus": 1780, "trial": 80, "rt": 1609, "response": "Beta"}, "52": {"stimulus": 62, "trial": 52, "rt": 1192, "response": "Alpha"}, "53": {"stimulus": 1093, "trial": 53, "rt": 1630, "response": "Beta"}, "24": {"stimulus": 718, "trial": 24, "rt": 1444, "response": "Alpha"}, "25": {"stimulus": 93, "trial": 25, "rt": 843, "response": "Alpha"}, "26": {"stimulus": 1312, "trial": 26, "rt": 1640, "response": "Beta"}, "27": {"stimulus": 968, "trial": 27, "rt": 1720, "response": "Alpha"}, "20": {"stimulus": 1530, "trial": 20, "rt": 655, "response": "Beta"}, "21": {"stimulus": 2280, "trial": 21, "rt": 826, "response": "Beta"}, "22": {"stimulus": 1812, "trial": 22, "rt": 866, "response": "Beta"}, "23": {"stimulus": 999, "trial": 23, "rt": 1486, "response": "Alpha"}, "46": {"stimulus": 2405, "trial": 46, "rt": 1056, "response": "Beta"}, "47": {"stimulus": 749, "trial": 47, "rt": 1910, "response": "Alpha"}, "44": {"stimulus": 1249, "trial": 44, "rt": 1499, "response": "Beta"}, "45": {"stimulus": 343, "trial": 45, "rt": 1208, "response": "Alpha"}, "28": {"stimulus": 187, "trial": 28, "rt": 609, "response": "Alpha"}, "29": {"stimulus": 1718, "trial": 29, "rt": 702, "response": "Beta"}, "40": {"stimulus": 1218, "trial": 40, "rt": 1260, "response": "Beta"}, "41": {"stimulus": 2155, "trial": 41, "rt": 569, "response": "Beta"}, "1": {"stimulus": 562, "trial": 1, "rt": 1316, "response": "Alpha"}, "0": {"stimulus": 874, "trial": 0, "rt": 2722, "response": "Alpha"}, "3": {"stimulus": 2499, "trial": 3, "rt": 666, "response": "Beta"}, "2": {"stimulus": 2093, "trial": 2, "rt": 1269, "response": "Beta"}, "5": {"stimulus": 1405, "trial": 5, "rt": 659, "response": "Alpha"}, "4": {"stimulus": 1062, "trial": 4, "rt": 1079, "response": "Alpha"}, "7": {"stimulus": 2187, "trial": 7, "rt": 1153, "response": "Beta"}, "6": {"stimulus": 1437, "trial": 6, "rt": 695, "response": "Alpha"}, "9": {"stimulus": 2343, "trial": 9, "rt": 498, "response": "Beta"}, "8": {"stimulus": 843, "trial": 8, "rt": 1189, "response": "Alpha"}, "78": {"stimulus": 155, "trial": 78, "rt": 1249, "response": "Alpha"}, "51": {"stimulus": 780, "trial": 51, "rt": 1050, "response": "Alpha"}, "39": {"stimulus": 280, "trial": 39, "rt": 1696, "response": "Alpha"}, "65": {"stimulus": 2468, "trial": 65, "rt": 1002, "response": "Beta"}, "76": {"stimulus": 405, "trial": 76, "rt": 1281, "response": "Alpha"}, "75": {"stimulus": 2312, "trial": 75, "rt": 935, "response": "Beta"}, "38": {"stimulus": 812, "trial": 38, "rt": 2251, "response": "Alpha"}, "73": {"stimulus": 1687, "trial": 73, "rt": 675, "response": "Beta"}, "72": {"stimulus": 1843, "trial": 72, "rt": 614, "response": "Beta"}, "71": {"stimulus": 1187, "trial": 71, "rt": 1625, "response": "Beta"}, "70": {"stimulus": 312, "trial": 70, "rt": 581, "response": "Alpha"}, "59": {"stimulus": 1655, "trial": 59, "rt": 735, "response": "Beta"}, "79": {"stimulus": 937, "trial": 79, "rt": 762, "response": "Alpha"}, "58": {"stimulus": 1343, "trial": 58, "rt": 905, "response": "Beta"}, "11": {"stimulus": 655, "trial": 11, "rt": 609, "response": "Alpha"}, "10": {"stimulus": 437, "trial": 10, "rt": 568, "response": "Alpha"}, "13": {"stimulus": 1624, "trial": 13, "rt": 1835, "response": "Beta"}, "12": {"stimulus": 0, "trial": 12, "rt": 630, "response": "Alpha"}, "15": {"stimulus": 2374, "trial": 15, "rt": 966, "response": "Beta"}, "14": {"stimulus": 530, "trial": 14, "rt": 1528, "response": "Alpha"}, "17": {"stimulus": 2030, "trial": 17, "rt": 717, "response": "Beta"}, "16": {"stimulus": 1499, "trial": 16, "rt": 1271, "response": "Beta"}, "19": {"stimulus": 1155, "trial": 19, "rt": 955, "response": "Beta"}, "18": {"stimulus": 1999, "trial": 18, "rt": 1498, "response": "Beta"}, "31": {"stimulus": 1030, "trial": 31, "rt": 1054, "response": "Alpha"}, "30": {"stimulus": 249, "trial": 30, "rt": 1187, "response": "Alpha"}, "37": {"stimulus": 30, "trial": 37, "rt": 669, "response": "Alpha"}, "36": {"stimulus": 687, "trial": 36, "rt": 681, "response": "Alpha"}, "35": {"stimulus": 218, "trial": 35, "rt": 1545, "response": "Alpha"}, "34": {"stimulus": 2437, "trial": 34, "rt": 662, "response": "Beta"}, "33": {"stimulus": 2124, "trial": 33, "rt": 583, "response": "Beta"}, "55": {"stimulus": 2249, "trial": 55, "rt": 961, "response": "Beta"}, "74": {"stimulus": 1280, "trial": 74, "rt": 1528, "response": "Beta"}, "32": {"stimulus": 1968, "trial": 32, "rt": 669, "response": "Beta"}, "57": {"stimulus": 2218, "trial": 57, "rt": 534, "response": "Beta"}, "50": {"stimulus": 468, "trial": 50, "rt": 1791, "response": "Alpha"}}, "experiment": {"Paradigm": "TACL", "Stimuli": "Size-Color Squares", "Experiment": "Generating-Multiple-Categories"}, "submit": {"timeTotal": 462949, "age": "38", "comments": "None", "sex": "Female"}}