{"info": {"finish": 1548134377846, "participant": 290, "exposed": true, "lab": false, "start": 1548133986715, "counterbalance": 3, "gentype": 2, "condition": "XOR", "browser": {"platform": "Win32", "userAgent": "Mozilla/5.0 (Windows NT 10.0; Win64; x64; rv:64.0) Gecko/20100101 Firefox/64.0"}}, "observation": {"11": {"stimulus": 403, "trial": 11, "rt": 1271}, "10": {"stimulus": 1890, "trial": 10, "rt": 1136}, "1": {"stimulus": 818, "trial": 1, "rt": 1647}, "0": {"stimulus": 1479, "trial": 0, "rt": 2387}, "3": {"stimulus": 1890, "trial": 3, "rt": 1296}, "2": {"stimulus": 403, "trial": 2, "rt": 1511}, "5": {"stimulus": 403, "trial": 5, "rt": 1465}, "4": {"stimulus": 1890, "trial": 4, "rt": 1558}, "7": {"stimulus": 818, "trial": 7, "rt": 1375}, "6": {"stimulus": 1479, "trial": 6, "rt": 1463}, "9": {"stimulus": 1479, "trial": 9, "rt": 1175}, "8": {"stimulus": 818, "trial": 8, "rt": 1703}}, "generation": {"1": {"category": "Beta", "trial": 1, "stimulus": 2246, "rt": 3262}, "0": {"category": "Beta", "trial": 0, "stimulus": 2249, "rt": 16112}, "3": {"category": "Beta", "trial": 3, "stimulus": 2243, "rt": 2552}, "2": {"category": "Beta", "trial": 2, "stimulus": 2242, "rt": 2583}, "5": {"category": "Gamma", "trial": 5, "stimulus": 44, "rt": 2456}, "4": {"category": "Gamma", "trial": 4, "stimulus": 94, "rt": 2688}, "7": {"category": "Gamma", "trial": 7, "stimulus": 344, "rt": 2392}, "6": {"category": "Gamma", "trial": 6, "stimulus": 144, "rt": 1503}}, "generalization": {"56": {"stimulus": 2499, "trial": 56, "rt": 1423, "response": "Alpha"}, "77": {"stimulus": 1874, "trial": 77, "rt": 167, "response": "Alpha"}, "54": {"stimulus": 874, "trial": 54, "rt": 1326, "response": "Alpha"}, "42": {"stimulus": 1812, "trial": 42, "rt": 344, "response": "Alpha"}, "48": {"stimulus": 1718, "trial": 48, "rt": 472, "response": "Alpha"}, "43": {"stimulus": 2218, "trial": 43, "rt": 1582, "response": "Gamma"}, "60": {"stimulus": 2093, "trial": 60, "rt": 4767, "response": "Gamma"}, "61": {"stimulus": 1405, "trial": 61, "rt": 1935, "response": "Alpha"}, "62": {"stimulus": 1030, "trial": 62, "rt": 2344, "response": "Alpha"}, "63": {"stimulus": 0, "trial": 63, "rt": 480, "response": "Alpha"}, "64": {"stimulus": 2187, "trial": 64, "rt": 406, "response": "Alpha"}, "49": {"stimulus": 624, "trial": 49, "rt": 439, "response": "Alpha"}, "66": {"stimulus": 1280, "trial": 66, "rt": 8199, "response": "Alpha"}, "67": {"stimulus": 280, "trial": 67, "rt": 456, "response": "Alpha"}, "68": {"stimulus": 93, "trial": 68, "rt": 647, "response": "Beta"}, "69": {"stimulus": 1562, "trial": 69, "rt": 1183, "response": "Alpha"}, "80": {"stimulus": 2030, "trial": 80, "rt": 207, "response": "Alpha"}, "52": {"stimulus": 468, "trial": 52, "rt": 1423, "response": "Alpha"}, "53": {"stimulus": 530, "trial": 53, "rt": 1376, "response": "Alpha"}, "24": {"stimulus": 2374, "trial": 24, "rt": 888, "response": "Beta"}, "25": {"stimulus": 1155, "trial": 25, "rt": 1199, "response": "Alpha"}, "26": {"stimulus": 1530, "trial": 26, "rt": 911, "response": "Alpha"}, "27": {"stimulus": 749, "trial": 27, "rt": 831, "response": "Alpha"}, "20": {"stimulus": 655, "trial": 20, "rt": 272, "response": "Alpha"}, "21": {"stimulus": 249, "trial": 21, "rt": 400, "response": "Beta"}, "22": {"stimulus": 968, "trial": 22, "rt": 223, "response": "Alpha"}, "23": {"stimulus": 312, "trial": 23, "rt": 69639, "response": "Alpha"}, "46": {"stimulus": 1312, "trial": 46, "rt": 462, "response": "Alpha"}, "47": {"stimulus": 62, "trial": 47, "rt": 856, "response": "Beta"}, "44": {"stimulus": 2437, "trial": 44, "rt": 1224, "response": "Beta"}, "45": {"stimulus": 687, "trial": 45, "rt": 840, "response": "Alpha"}, "28": {"stimulus": 187, "trial": 28, "rt": 1302, "response": "Gamma"}, "29": {"stimulus": 124, "trial": 29, "rt": 1447, "response": "Beta"}, "40": {"stimulus": 2405, "trial": 40, "rt": 312, "response": "Alpha"}, "41": {"stimulus": 1187, "trial": 41, "rt": 310, "response": "Alpha"}, "1": {"stimulus": 1905, "trial": 1, "rt": 1582, "response": "Beta"}, "0": {"stimulus": 812, "trial": 0, "rt": 1111, "response": "Alpha"}, "3": {"stimulus": 2468, "trial": 3, "rt": 2112, "response": "Beta"}, "2": {"stimulus": 1655, "trial": 2, "rt": 2000, "response": "Beta"}, "5": {"stimulus": 2249, "trial": 5, "rt": 1062, "response": "Beta"}, "4": {"stimulus": 562, "trial": 4, "rt": 1479, "response": "Alpha"}, "7": {"stimulus": 1468, "trial": 7, "rt": 1031, "response": "Alpha"}, "6": {"stimulus": 1968, "trial": 6, "rt": 2240, "response": "Beta"}, "9": {"stimulus": 1374, "trial": 9, "rt": 848, "response": "Alpha"}, "8": {"stimulus": 374, "trial": 8, "rt": 1109, "response": "Alpha"}, "78": {"stimulus": 2312, "trial": 78, "rt": 1552, "response": "Beta"}, "51": {"stimulus": 1218, "trial": 51, "rt": 39046, "response": "Alpha"}, "39": {"stimulus": 1093, "trial": 39, "rt": 256, "response": "Alpha"}, "65": {"stimulus": 218, "trial": 65, "rt": 345, "response": "Alpha"}, "76": {"stimulus": 437, "trial": 76, "rt": 264, "response": "Alpha"}, "75": {"stimulus": 30, "trial": 75, "rt": 1984, "response": "Alpha"}, "38": {"stimulus": 1343, "trial": 38, "rt": 263, "response": "Alpha"}, "73": {"stimulus": 999, "trial": 73, "rt": 2966, "response": "Beta"}, "72": {"stimulus": 1843, "trial": 72, "rt": 1935, "response": "Alpha"}, "71": {"stimulus": 905, "trial": 71, "rt": 879, "response": "Alpha"}, "70": {"stimulus": 937, "trial": 70, "rt": 2303, "response": "Alpha"}, "59": {"stimulus": 2343, "trial": 59, "rt": 415, "response": "Alpha"}, "79": {"stimulus": 780, "trial": 79, "rt": 935, "response": "Alpha"}, "58": {"stimulus": 1593, "trial": 58, "rt": 845, "response": "Alpha"}, "11": {"stimulus": 1749, "trial": 11, "rt": 624, "response": "Gamma"}, "10": {"stimulus": 1687, "trial": 10, "rt": 462, "response": "Beta"}, "13": {"stimulus": 2062, "trial": 13, "rt": 270, "response": "Alpha"}, "12": {"stimulus": 1124, "trial": 12, "rt": 376, "response": "Beta"}, "15": {"stimulus": 2124, "trial": 15, "rt": 302, "response": "Alpha"}, "14": {"stimulus": 405, "trial": 14, "rt": 399, "response": "Alpha"}, "17": {"stimulus": 1999, "trial": 17, "rt": 327, "response": "Beta"}, "16": {"stimulus": 843, "trial": 16, "rt": 248, "response": "Beta"}, "19": {"stimulus": 1437, "trial": 19, "rt": 703, "response": "Alpha"}, "18": {"stimulus": 2280, "trial": 18, "rt": 286, "response": "Beta"}, "31": {"stimulus": 343, "trial": 31, "rt": 830, "response": "Alpha"}, "30": {"stimulus": 2155, "trial": 30, "rt": 1158, "response": "Beta"}, "37": {"stimulus": 499, "trial": 37, "rt": 710, "response": "Beta"}, "36": {"stimulus": 1937, "trial": 36, "rt": 711, "response": "Alpha"}, "35": {"stimulus": 1624, "trial": 35, "rt": 655, "response": "Alpha"}, "34": {"stimulus": 1249, "trial": 34, "rt": 1294, "response": "Gamma"}, "33": {"stimulus": 1062, "trial": 33, "rt": 631, "response": "Alpha"}, "55": {"stimulus": 718, "trial": 55, "rt": 1157, "response": "Beta"}, "74": {"stimulus": 1780, "trial": 74, "rt": 464, "response": "Alpha"}, "32": {"stimulus": 155, "trial": 32, "rt": 536, "response": "Alpha"}, "57": {"stimulus": 593, "trial": 57, "rt": 2821, "response": "Alpha"}, "50": {"stimulus": 1499, "trial": 50, "rt": 376, "response": "Alpha"}}, "experiment": {"Paradigm": "TACL", "Stimuli": "Size-Color Squares", "Experiment": "Generating-Multiple-Categories"}, "submit": {"timeTotal": 391883, "age": "33", "comments": "", "sex": "male"}}