{"info": {"finish": 1548134550089, "participant": 293, "exposed": true, "lab": false, "start": 1548134117370, "counterbalance": 1, "gentype": 2, "condition": "Cluster", "browser": {"platform": "Win32", "userAgent": "Mozilla/5.0 (Windows NT 10.0; Win64; x64) AppleWebKit/537.36 (KHTML, like Gecko) Chrome/71.0.3578.98 Safari/537.36"}}, "observation": {"11": {"stimulus": 1093, "trial": 11, "rt": 2467}, "10": {"stimulus": 1083, "trial": 10, "rt": 2425}, "1": {"stimulus": 1093, "trial": 1, "rt": 3665}, "0": {"stimulus": 392, "trial": 0, "rt": 4896}, "3": {"stimulus": 583, "trial": 3, "rt": 2291}, "2": {"stimulus": 1083, "trial": 2, "rt": 3229}, "5": {"stimulus": 1083, "trial": 5, "rt": 2305}, "4": {"stimulus": 1093, "trial": 4, "rt": 2546}, "7": {"stimulus": 583, "trial": 7, "rt": 3231}, "6": {"stimulus": 392, "trial": 6, "rt": 2233}, "9": {"stimulus": 392, "trial": 9, "rt": 3030}, "8": {"stimulus": 583, "trial": 8, "rt": 3604}}, "generation": {"1": {"category": "Beta", "trial": 1, "stimulus": 2192, "rt": 15671}, "0": {"category": "Beta", "trial": 0, "stimulus": 2495, "rt": 19039}, "3": {"category": "Beta", "trial": 3, "stimulus": 2037, "rt": 13150}, "2": {"category": "Beta", "trial": 2, "stimulus": 2039, "rt": 8478}, "5": {"category": "Gamma", "trial": 5, "stimulus": 103, "rt": 8943}, "4": {"category": "Gamma", "trial": 4, "stimulus": 0, "rt": 7435}, "7": {"category": "Gamma", "trial": 7, "stimulus": 460, "rt": 11617}, "6": {"category": "Gamma", "trial": 6, "stimulus": 458, "rt": 10336}}, "generalization": {"56": {"stimulus": 1249, "trial": 56, "rt": 1159, "response": "Beta"}, "77": {"stimulus": 2249, "trial": 77, "rt": 1239, "response": "Beta"}, "54": {"stimulus": 718, "trial": 54, "rt": 1535, "response": "Alpha"}, "42": {"stimulus": 2124, "trial": 42, "rt": 1738, "response": "Alpha"}, "48": {"stimulus": 155, "trial": 48, "rt": 1651, "response": "Gamma"}, "43": {"stimulus": 624, "trial": 43, "rt": 2180, "response": "Alpha"}, "60": {"stimulus": 249, "trial": 60, "rt": 1431, "response": "Beta"}, "61": {"stimulus": 2312, "trial": 61, "rt": 1700, "response": "Gamma"}, "62": {"stimulus": 1999, "trial": 62, "rt": 1343, "response": "Beta"}, "63": {"stimulus": 468, "trial": 63, "rt": 1568, "response": "Gamma"}, "64": {"stimulus": 1093, "trial": 64, "rt": 1634, "response": "Beta"}, "49": {"stimulus": 2218, "trial": 49, "rt": 2275, "response": "Gamma"}, "66": {"stimulus": 62, "trial": 66, "rt": 1501, "response": "Gamma"}, "67": {"stimulus": 93, "trial": 67, "rt": 2905, "response": "Beta"}, "68": {"stimulus": 593, "trial": 68, "rt": 1156, "response": "Beta"}, "69": {"stimulus": 1187, "trial": 69, "rt": 1348, "response": "Beta"}, "80": {"stimulus": 0, "trial": 80, "rt": 1409, "response": "Gamma"}, "52": {"stimulus": 1374, "trial": 52, "rt": 1016, "response": "Alpha"}, "53": {"stimulus": 687, "trial": 53, "rt": 1516, "response": "Beta"}, "24": {"stimulus": 1687, "trial": 24, "rt": 1121, "response": "Beta"}, "25": {"stimulus": 905, "trial": 25, "rt": 1312, "response": "Gamma"}, "26": {"stimulus": 1405, "trial": 26, "rt": 1334, "response": "Gamma"}, "27": {"stimulus": 1874, "trial": 27, "rt": 1923, "response": "Alpha"}, "20": {"stimulus": 937, "trial": 20, "rt": 1285, "response": "Beta"}, "21": {"stimulus": 530, "trial": 21, "rt": 1195, "response": "Beta"}, "22": {"stimulus": 1468, "trial": 22, "rt": 1202, "response": "Alpha"}, "23": {"stimulus": 1905, "trial": 23, "rt": 1446, "response": "Gamma"}, "46": {"stimulus": 1749, "trial": 46, "rt": 995, "response": "Beta"}, "47": {"stimulus": 30, "trial": 47, "rt": 1693, "response": "Alpha"}, "44": {"stimulus": 1030, "trial": 44, "rt": 1724, "response": "Beta"}, "45": {"stimulus": 499, "trial": 45, "rt": 2363, "response": "Beta"}, "28": {"stimulus": 1343, "trial": 28, "rt": 1288, "response": "Beta"}, "29": {"stimulus": 2374, "trial": 29, "rt": 1966, "response": "Alpha"}, "40": {"stimulus": 2062, "trial": 40, "rt": 1878, "response": "Gamma"}, "41": {"stimulus": 280, "trial": 41, "rt": 1672, "response": "Alpha"}, "1": {"stimulus": 812, "trial": 1, "rt": 1857, "response": "Alpha"}, "0": {"stimulus": 374, "trial": 0, "rt": 1951, "response": "Alpha"}, "3": {"stimulus": 218, "trial": 3, "rt": 944, "response": "Beta"}, "2": {"stimulus": 1124, "trial": 2, "rt": 1525, "response": "Beta"}, "5": {"stimulus": 999, "trial": 5, "rt": 1438, "response": "Beta"}, "4": {"stimulus": 843, "trial": 4, "rt": 1928, "response": "Beta"}, "7": {"stimulus": 1437, "trial": 7, "rt": 1269, "response": "Beta"}, "6": {"stimulus": 2437, "trial": 6, "rt": 1288, "response": "Beta"}, "9": {"stimulus": 1655, "trial": 9, "rt": 1562, "response": "Gamma"}, "8": {"stimulus": 1499, "trial": 8, "rt": 1149, "response": "Beta"}, "78": {"stimulus": 1593, "trial": 78, "rt": 895, "response": "Beta"}, "51": {"stimulus": 1780, "trial": 51, "rt": 1864, "response": "Alpha"}, "39": {"stimulus": 968, "trial": 39, "rt": 1321, "response": "Alpha"}, "65": {"stimulus": 2468, "trial": 65, "rt": 1752, "response": "Gamma"}, "76": {"stimulus": 2093, "trial": 76, "rt": 1437, "response": "Beta"}, "75": {"stimulus": 1843, "trial": 75, "rt": 1526, "response": "Beta"}, "38": {"stimulus": 874, "trial": 38, "rt": 1503, "response": "Alpha"}, "73": {"stimulus": 749, "trial": 73, "rt": 2069, "response": "Beta"}, "72": {"stimulus": 124, "trial": 72, "rt": 1576, "response": "Alpha"}, "71": {"stimulus": 437, "trial": 71, "rt": 2127, "response": "Beta"}, "70": {"stimulus": 1218, "trial": 70, "rt": 1679, "response": "Alpha"}, "59": {"stimulus": 1937, "trial": 59, "rt": 1075, "response": "Beta"}, "79": {"stimulus": 1530, "trial": 79, "rt": 2016, "response": "Alpha"}, "58": {"stimulus": 1312, "trial": 58, "rt": 1459, "response": "Gamma"}, "11": {"stimulus": 1624, "trial": 11, "rt": 1849, "response": "Alpha"}, "10": {"stimulus": 1155, "trial": 10, "rt": 1143, "response": "Gamma"}, "13": {"stimulus": 1562, "trial": 13, "rt": 1663, "response": "Gamma"}, "12": {"stimulus": 1062, "trial": 12, "rt": 2378, "response": "Gamma"}, "15": {"stimulus": 2499, "trial": 15, "rt": 858, "response": "Beta"}, "14": {"stimulus": 2187, "trial": 14, "rt": 1354, "response": "Beta"}, "17": {"stimulus": 405, "trial": 17, "rt": 1297, "response": "Gamma"}, "16": {"stimulus": 2030, "trial": 16, "rt": 2194, "response": "Alpha"}, "19": {"stimulus": 2405, "trial": 19, "rt": 1268, "response": "Gamma"}, "18": {"stimulus": 780, "trial": 18, "rt": 1678, "response": "Alpha"}, "31": {"stimulus": 655, "trial": 31, "rt": 2268, "response": "Gamma"}, "30": {"stimulus": 1968, "trial": 30, "rt": 1401, "response": "Gamma"}, "37": {"stimulus": 343, "trial": 37, "rt": 1311, "response": "Beta"}, "36": {"stimulus": 1280, "trial": 36, "rt": 2561, "response": "Beta"}, "35": {"stimulus": 1718, "trial": 35, "rt": 1409, "response": "Alpha"}, "34": {"stimulus": 562, "trial": 34, "rt": 1370, "response": "Alpha"}, "33": {"stimulus": 2155, "trial": 33, "rt": 1417, "response": "Gamma"}, "55": {"stimulus": 1812, "trial": 55, "rt": 1347, "response": "Gamma"}, "74": {"stimulus": 312, "trial": 74, "rt": 1784, "response": "Gamma"}, "32": {"stimulus": 187, "trial": 32, "rt": 1675, "response": "Beta"}, "57": {"stimulus": 2280, "trial": 57, "rt": 1378, "response": "Alpha"}, "50": {"stimulus": 2343, "trial": 50, "rt": 1211, "response": "Beta"}}, "experiment": {"Paradigm": "TACL", "Stimuli": "Size-Color Squares", "Experiment": "Generating-Multiple-Categories"}, "submit": {"timeTotal": 432927, "age": "46", "comments": "Interesting experiment and easy to complete.", "sex": "Female"}}