{"info": {"finish": 1548137254667, "participant": 297, "exposed": true, "lab": false, "start": 1548136790888, "counterbalance": 1, "gentype": 0, "condition": "Cluster", "browser": {"platform": "MacIntel", "userAgent": "Mozilla/5.0 (Macintosh; Intel Mac OS X 10_14_2) AppleWebKit/537.36 (KHTML, like Gecko) Chrome/71.0.3578.98 Safari/537.36"}}, "observation": {"11": {"stimulus": 1093, "trial": 11, "rt": 36445}, "10": {"stimulus": 1083, "trial": 10, "rt": 5422}, "1": {"stimulus": 1083, "trial": 1, "rt": 7874}, "0": {"stimulus": 1093, "trial": 0, "rt": 4105}, "3": {"stimulus": 583, "trial": 3, "rt": 2148}, "2": {"stimulus": 392, "trial": 2, "rt": 2988}, "5": {"stimulus": 583, "trial": 5, "rt": 2558}, "4": {"stimulus": 1083, "trial": 4, "rt": 1890}, "7": {"stimulus": 392, "trial": 7, "rt": 2045}, "6": {"stimulus": 1093, "trial": 6, "rt": 1903}, "9": {"stimulus": 583, "trial": 9, "rt": 1497}, "8": {"stimulus": 392, "trial": 8, "rt": 1585}}, "generation": {"1": {"category": "Not-Alpha", "trial": 1, "stimulus": 2201, "rt": 6694}, "0": {"category": "Not-Alpha", "trial": 0, "stimulus": 5, "rt": 16803}, "3": {"category": "Not-Alpha", "trial": 3, "stimulus": 2499, "rt": 6456}, "2": {"category": "Not-Alpha", "trial": 2, "stimulus": 2453, "rt": 6006}, "5": {"category": "Not-Alpha", "trial": 5, "stimulus": 0, "rt": 11715}, "4": {"category": "Not-Alpha", "trial": 4, "stimulus": 1561, "rt": 5727}, "7": {"category": "Not-Alpha", "trial": 7, "stimulus": 2007, "rt": 5080}, "6": {"category": "Not-Alpha", "trial": 6, "stimulus": 1861, "rt": 4879}}, "generalization": {"56": {"stimulus": 499, "trial": 56, "rt": 1316, "response": "Alpha"}, "77": {"stimulus": 1718, "trial": 77, "rt": 1058, "response": "Beta"}, "54": {"stimulus": 280, "trial": 54, "rt": 466, "response": "Beta"}, "42": {"stimulus": 2374, "trial": 42, "rt": 827, "response": "Beta"}, "48": {"stimulus": 1812, "trial": 48, "rt": 4742, "response": "Beta"}, "43": {"stimulus": 718, "trial": 43, "rt": 2281, "response": "Beta"}, "60": {"stimulus": 1593, "trial": 60, "rt": 715, "response": "Beta"}, "61": {"stimulus": 0, "trial": 61, "rt": 751, "response": "Beta"}, "62": {"stimulus": 1780, "trial": 62, "rt": 650, "response": "Beta"}, "63": {"stimulus": 187, "trial": 63, "rt": 1514, "response": "Alpha"}, "64": {"stimulus": 437, "trial": 64, "rt": 2153, "response": "Alpha"}, "49": {"stimulus": 249, "trial": 49, "rt": 2542, "response": "Alpha"}, "66": {"stimulus": 1905, "trial": 66, "rt": 428, "response": "Beta"}, "67": {"stimulus": 1249, "trial": 67, "rt": 1353, "response": "Beta"}, "68": {"stimulus": 1312, "trial": 68, "rt": 709, "response": "Beta"}, "69": {"stimulus": 30, "trial": 69, "rt": 1333, "response": "Alpha"}, "80": {"stimulus": 343, "trial": 80, "rt": 1739, "response": "Alpha"}, "52": {"stimulus": 1687, "trial": 52, "rt": 1344, "response": "Beta"}, "53": {"stimulus": 1343, "trial": 53, "rt": 1504, "response": "Alpha"}, "24": {"stimulus": 1187, "trial": 24, "rt": 2434, "response": "Beta"}, "25": {"stimulus": 1030, "trial": 25, "rt": 685, "response": "Beta"}, "26": {"stimulus": 1562, "trial": 26, "rt": 603, "response": "Beta"}, "27": {"stimulus": 62, "trial": 27, "rt": 936, "response": "Beta"}, "20": {"stimulus": 2093, "trial": 20, "rt": 629, "response": "Beta"}, "21": {"stimulus": 2312, "trial": 21, "rt": 435, "response": "Beta"}, "22": {"stimulus": 905, "trial": 22, "rt": 936, "response": "Beta"}, "23": {"stimulus": 1749, "trial": 23, "rt": 1276, "response": "Beta"}, "46": {"stimulus": 2218, "trial": 46, "rt": 706, "response": "Beta"}, "47": {"stimulus": 2124, "trial": 47, "rt": 1069, "response": "Beta"}, "44": {"stimulus": 1874, "trial": 44, "rt": 577, "response": "Beta"}, "45": {"stimulus": 1655, "trial": 45, "rt": 1534, "response": "Beta"}, "28": {"stimulus": 1280, "trial": 28, "rt": 803, "response": "Beta"}, "29": {"stimulus": 1999, "trial": 29, "rt": 1379, "response": "Beta"}, "40": {"stimulus": 2405, "trial": 40, "rt": 450, "response": "Beta"}, "41": {"stimulus": 562, "trial": 41, "rt": 635, "response": "Beta"}, "1": {"stimulus": 1437, "trial": 1, "rt": 2856, "response": "Beta"}, "0": {"stimulus": 1968, "trial": 0, "rt": 2047, "response": "Beta"}, "3": {"stimulus": 687, "trial": 3, "rt": 1508, "response": "Alpha"}, "2": {"stimulus": 1468, "trial": 2, "rt": 777, "response": "Beta"}, "5": {"stimulus": 1530, "trial": 5, "rt": 650, "response": "Beta"}, "4": {"stimulus": 2062, "trial": 4, "rt": 672, "response": "Beta"}, "7": {"stimulus": 93, "trial": 7, "rt": 1323, "response": "Alpha"}, "6": {"stimulus": 2030, "trial": 6, "rt": 569, "response": "Beta"}, "9": {"stimulus": 2187, "trial": 9, "rt": 554, "response": "Beta"}, "8": {"stimulus": 2437, "trial": 8, "rt": 990, "response": "Beta"}, "78": {"stimulus": 2280, "trial": 78, "rt": 767, "response": "Beta"}, "51": {"stimulus": 624, "trial": 51, "rt": 6341, "response": "Beta"}, "39": {"stimulus": 1405, "trial": 39, "rt": 501, "response": "Beta"}, "65": {"stimulus": 155, "trial": 65, "rt": 617, "response": "Beta"}, "76": {"stimulus": 968, "trial": 76, "rt": 817, "response": "Beta"}, "75": {"stimulus": 1624, "trial": 75, "rt": 719, "response": "Beta"}, "38": {"stimulus": 2499, "trial": 38, "rt": 728, "response": "Beta"}, "73": {"stimulus": 749, "trial": 73, "rt": 1790, "response": "Alpha"}, "72": {"stimulus": 593, "trial": 72, "rt": 1341, "response": "Alpha"}, "71": {"stimulus": 1062, "trial": 71, "rt": 452, "response": "Beta"}, "70": {"stimulus": 1155, "trial": 70, "rt": 593, "response": "Beta"}, "59": {"stimulus": 2343, "trial": 59, "rt": 921, "response": "Beta"}, "79": {"stimulus": 530, "trial": 79, "rt": 1073, "response": "Beta"}, "58": {"stimulus": 218, "trial": 58, "rt": 1510, "response": "Beta"}, "11": {"stimulus": 1374, "trial": 11, "rt": 570, "response": "Beta"}, "10": {"stimulus": 1218, "trial": 10, "rt": 1508, "response": "Beta"}, "13": {"stimulus": 1124, "trial": 13, "rt": 633, "response": "Beta"}, "12": {"stimulus": 655, "trial": 12, "rt": 1557, "response": "Beta"}, "15": {"stimulus": 812, "trial": 15, "rt": 578, "response": "Beta"}, "14": {"stimulus": 124, "trial": 14, "rt": 540, "response": "Beta"}, "17": {"stimulus": 1937, "trial": 17, "rt": 1242, "response": "Beta"}, "16": {"stimulus": 405, "trial": 16, "rt": 577, "response": "Beta"}, "19": {"stimulus": 843, "trial": 19, "rt": 1360, "response": "Alpha"}, "18": {"stimulus": 468, "trial": 18, "rt": 1220, "response": "Beta"}, "31": {"stimulus": 1499, "trial": 31, "rt": 1765, "response": "Beta"}, "30": {"stimulus": 1093, "trial": 30, "rt": 826, "response": "Beta"}, "37": {"stimulus": 374, "trial": 37, "rt": 661, "response": "Beta"}, "36": {"stimulus": 2155, "trial": 36, "rt": 614, "response": "Beta"}, "35": {"stimulus": 780, "trial": 35, "rt": 743, "response": "Beta"}, "34": {"stimulus": 937, "trial": 34, "rt": 871, "response": "Beta"}, "33": {"stimulus": 1843, "trial": 33, "rt": 954, "response": "Beta"}, "55": {"stimulus": 874, "trial": 55, "rt": 844, "response": "Beta"}, "74": {"stimulus": 2249, "trial": 74, "rt": 781, "response": "Beta"}, "32": {"stimulus": 312, "trial": 32, "rt": 865, "response": "Beta"}, "57": {"stimulus": 999, "trial": 57, "rt": 1056, "response": "Beta"}, "50": {"stimulus": 2468, "trial": 50, "rt": 1582, "response": "Beta"}}, "experiment": {"Paradigm": "TACL", "Stimuli": "Size-Color Squares", "Experiment": "Generating-Multiple-Categories"}, "submit": {"timeTotal": 464080, "age": "35", "comments": "I think this very repetitive but its easy to answer.", "sex": "female"}}