{"info": {"finish": 1548043825926, "participant": 3, "exposed": true, "lab": false, "start": 1548042758208, "counterbalance": 5, "gentype": 1, "condition": "Cluster", "browser": {"platform": "Win32", "userAgent": "Mozilla/5.0 (Windows NT 6.2; Win64; x64) AppleWebKit/537.36 (KHTML, like Gecko) Chrome/69.0.3497.100 Safari/537.36"}}, "observation": {"11": {"stimulus": 1093, "trial": 11, "rt": 1003}, "10": {"stimulus": 392, "trial": 10, "rt": 1251}, "1": {"stimulus": 1093, "trial": 1, "rt": 3743}, "0": {"stimulus": 392, "trial": 0, "rt": 3098}, "3": {"stimulus": 583, "trial": 3, "rt": 1003}, "2": {"stimulus": 1083, "trial": 2, "rt": 1249}, "5": {"stimulus": 1083, "trial": 5, "rt": 1251}, "4": {"stimulus": 1093, "trial": 4, "rt": 1006}, "7": {"stimulus": 392, "trial": 7, "rt": 1250}, "6": {"stimulus": 583, "trial": 6, "rt": 1240}, "9": {"stimulus": 583, "trial": 9, "rt": 1249}, "8": {"stimulus": 1083, "trial": 8, "rt": 1003}}, "generation": {"1": {"category": "Beta", "trial": 1, "stimulus": 179, "rt": 4391}, "0": {"category": "Beta", "trial": 0, "stimulus": 29, "rt": 11435}, "3": {"category": "Beta", "trial": 3, "stimulus": 66, "rt": 1799}, "2": {"category": "Beta", "trial": 2, "stimulus": 169, "rt": 3421}, "5": {"category": "Beta", "trial": 5, "stimulus": 120, "rt": 3931}, "4": {"category": "Beta", "trial": 4, "stimulus": 308, "rt": 4291}, "7": {"category": "Beta", "trial": 7, "stimulus": 218, "rt": 5667}, "6": {"category": "Beta", "trial": 6, "stimulus": 217, "rt": 4741}}, "generalization": {"56": {"stimulus": 937, "trial": 56, "rt": 985, "response": "Alpha"}, "77": {"stimulus": 499, "trial": 77, "rt": 1091, "response": "Beta"}, "54": {"stimulus": 999, "trial": 54, "rt": 1110, "response": "Beta"}, "42": {"stimulus": 1468, "trial": 42, "rt": 913, "response": "Alpha"}, "48": {"stimulus": 2187, "trial": 48, "rt": 1097, "response": "Alpha"}, "43": {"stimulus": 905, "trial": 43, "rt": 1132, "response": "Beta"}, "60": {"stimulus": 1124, "trial": 60, "rt": 943, "response": "Beta"}, "61": {"stimulus": 687, "trial": 61, "rt": 964, "response": "Beta"}, "62": {"stimulus": 1687, "trial": 62, "rt": 1914, "response": "Alpha"}, "63": {"stimulus": 1874, "trial": 63, "rt": 945, "response": "Alpha"}, "64": {"stimulus": 2030, "trial": 64, "rt": 1067, "response": "Alpha"}, "49": {"stimulus": 30, "trial": 49, "rt": 999, "response": "Beta"}, "66": {"stimulus": 1187, "trial": 66, "rt": 888, "response": "Alpha"}, "67": {"stimulus": 2280, "trial": 67, "rt": 828, "response": "Alpha"}, "68": {"stimulus": 968, "trial": 68, "rt": 1284, "response": "Beta"}, "69": {"stimulus": 562, "trial": 69, "rt": 863, "response": "Beta"}, "80": {"stimulus": 593, "trial": 80, "rt": 713, "response": "Beta"}, "52": {"stimulus": 2499, "trial": 52, "rt": 1215, "response": "Alpha"}, "53": {"stimulus": 468, "trial": 53, "rt": 4132, "response": "Beta"}, "24": {"stimulus": 2124, "trial": 24, "rt": 1994, "response": "Alpha"}, "25": {"stimulus": 1780, "trial": 25, "rt": 684, "response": "Alpha"}, "26": {"stimulus": 749, "trial": 26, "rt": 1470, "response": "Beta"}, "27": {"stimulus": 2218, "trial": 27, "rt": 1480, "response": "Alpha"}, "20": {"stimulus": 62, "trial": 20, "rt": 3460, "response": "Beta"}, "21": {"stimulus": 1937, "trial": 21, "rt": 3661, "response": "Alpha"}, "22": {"stimulus": 1155, "trial": 22, "rt": 1572, "response": "Beta"}, "23": {"stimulus": 1843, "trial": 23, "rt": 1152, "response": "Beta"}, "46": {"stimulus": 624, "trial": 46, "rt": 1288, "response": "Beta"}, "47": {"stimulus": 437, "trial": 47, "rt": 1463, "response": "Beta"}, "44": {"stimulus": 2093, "trial": 44, "rt": 1321, "response": "Alpha"}, "45": {"stimulus": 2468, "trial": 45, "rt": 1432, "response": "Alpha"}, "28": {"stimulus": 1530, "trial": 28, "rt": 1292, "response": "Alpha"}, "29": {"stimulus": 405, "trial": 29, "rt": 1309, "response": "Beta"}, "40": {"stimulus": 1999, "trial": 40, "rt": 1606, "response": "Alpha"}, "41": {"stimulus": 1405, "trial": 41, "rt": 2663, "response": "Alpha"}, "1": {"stimulus": 1968, "trial": 1, "rt": 871, "response": "Alpha"}, "0": {"stimulus": 1749, "trial": 0, "rt": 4845, "response": "Alpha"}, "3": {"stimulus": 2249, "trial": 3, "rt": 931, "response": "Alpha"}, "2": {"stimulus": 218, "trial": 2, "rt": 1082, "response": "Beta"}, "5": {"stimulus": 280, "trial": 5, "rt": 1247, "response": "Beta"}, "4": {"stimulus": 1812, "trial": 4, "rt": 742, "response": "Alpha"}, "7": {"stimulus": 1312, "trial": 7, "rt": 579, "response": "Alpha"}, "6": {"stimulus": 1093, "trial": 6, "rt": 1946, "response": "Alpha"}, "9": {"stimulus": 1718, "trial": 9, "rt": 956, "response": "Beta"}, "8": {"stimulus": 2062, "trial": 8, "rt": 2167, "response": "Alpha"}, "78": {"stimulus": 1437, "trial": 78, "rt": 1149, "response": "Alpha"}, "51": {"stimulus": 2343, "trial": 51, "rt": 1133, "response": "Alpha"}, "39": {"stimulus": 780, "trial": 39, "rt": 1216, "response": "Beta"}, "65": {"stimulus": 1562, "trial": 65, "rt": 1281, "response": "Alpha"}, "76": {"stimulus": 2155, "trial": 76, "rt": 1256, "response": "Alpha"}, "75": {"stimulus": 874, "trial": 75, "rt": 1048, "response": "Beta"}, "38": {"stimulus": 343, "trial": 38, "rt": 1337, "response": "Beta"}, "73": {"stimulus": 718, "trial": 73, "rt": 913, "response": "Beta"}, "72": {"stimulus": 1655, "trial": 72, "rt": 1645, "response": "Alpha"}, "71": {"stimulus": 0, "trial": 71, "rt": 1016, "response": "Beta"}, "70": {"stimulus": 843, "trial": 70, "rt": 771, "response": "Beta"}, "59": {"stimulus": 2437, "trial": 59, "rt": 950, "response": "Alpha"}, "79": {"stimulus": 655, "trial": 79, "rt": 1032, "response": "Beta"}, "58": {"stimulus": 1218, "trial": 58, "rt": 1105, "response": "Alpha"}, "11": {"stimulus": 2312, "trial": 11, "rt": 575, "response": "Alpha"}, "10": {"stimulus": 2405, "trial": 10, "rt": 945, "response": "Alpha"}, "13": {"stimulus": 1249, "trial": 13, "rt": 910, "response": "Beta"}, "12": {"stimulus": 1030, "trial": 12, "rt": 1394, "response": "Beta"}, "15": {"stimulus": 812, "trial": 15, "rt": 932, "response": "Beta"}, "14": {"stimulus": 1593, "trial": 14, "rt": 1055, "response": "Beta"}, "17": {"stimulus": 1374, "trial": 17, "rt": 1178, "response": "Alpha"}, "16": {"stimulus": 1343, "trial": 16, "rt": 846, "response": "Alpha"}, "19": {"stimulus": 1499, "trial": 19, "rt": 1006, "response": "Alpha"}, "18": {"stimulus": 1062, "trial": 18, "rt": 1472, "response": "Alpha"}, "31": {"stimulus": 249, "trial": 31, "rt": 1160, "response": "Beta"}, "30": {"stimulus": 530, "trial": 30, "rt": 1219, "response": "Beta"}, "37": {"stimulus": 374, "trial": 37, "rt": 1005, "response": "Beta"}, "36": {"stimulus": 155, "trial": 36, "rt": 1064, "response": "Beta"}, "35": {"stimulus": 1624, "trial": 35, "rt": 2687, "response": "Alpha"}, "34": {"stimulus": 312, "trial": 34, "rt": 2120, "response": "Beta"}, "33": {"stimulus": 124, "trial": 33, "rt": 1784, "response": "Beta"}, "55": {"stimulus": 1280, "trial": 55, "rt": 2077, "response": "Alpha"}, "74": {"stimulus": 2374, "trial": 74, "rt": 851, "response": "Alpha"}, "32": {"stimulus": 1905, "trial": 32, "rt": 1352, "response": "Alpha"}, "57": {"stimulus": 93, "trial": 57, "rt": 1022, "response": "Beta"}, "50": {"stimulus": 187, "trial": 50, "rt": 1062, "response": "Beta"}}, "experiment": {"Paradigm": "TACL", "Stimuli": "Size-Color Squares", "Experiment": "Generating-Multiple-Categories"}, "submit": {"timeTotal": 1067951, "age": "32", "comments": "", "sex": "male"}}