{"info": {"finish": 1548139742807, "participant": 302, "exposed": true, "lab": false, "start": 1548139424361, "counterbalance": 0, "gentype": 0, "condition": "Cluster", "browser": {"platform": "Win32", "userAgent": "Mozilla/5.0 (Windows NT 6.1; Win64; x64) AppleWebKit/537.36 (KHTML, like Gecko) Chrome/71.0.3578.98 Safari/537.36"}}, "observation": {"11": {"stimulus": 392, "trial": 11, "rt": 4361}, "10": {"stimulus": 583, "trial": 10, "rt": 1767}, "1": {"stimulus": 1083, "trial": 1, "rt": 2494}, "0": {"stimulus": 392, "trial": 0, "rt": 5140}, "3": {"stimulus": 1093, "trial": 3, "rt": 1968}, "2": {"stimulus": 583, "trial": 2, "rt": 2985}, "5": {"stimulus": 392, "trial": 5, "rt": 8935}, "4": {"stimulus": 1083, "trial": 4, "rt": 4073}, "7": {"stimulus": 1093, "trial": 7, "rt": 2153}, "6": {"stimulus": 583, "trial": 6, "rt": 1600}, "9": {"stimulus": 1083, "trial": 9, "rt": 1567}, "8": {"stimulus": 1093, "trial": 8, "rt": 2316}}, "generation": {"1": {"category": "Not-Alpha", "trial": 1, "stimulus": 421, "rt": 8224}, "0": {"category": "Not-Alpha", "trial": 0, "stimulus": 1024, "rt": 12518}, "3": {"category": "Not-Alpha", "trial": 3, "stimulus": 1119, "rt": 10758}, "2": {"category": "Not-Alpha", "trial": 2, "stimulus": 620, "rt": 18781}, "5": {"category": "Not-Alpha", "trial": 5, "stimulus": 368, "rt": 6319}, "4": {"category": "Not-Alpha", "trial": 4, "stimulus": 173, "rt": 6846}, "7": {"category": "Not-Alpha", "trial": 7, "stimulus": 320, "rt": 9097}, "6": {"category": "Not-Alpha", "trial": 6, "stimulus": 517, "rt": 7070}}, "generalization": {"56": {"stimulus": 2218, "trial": 56, "rt": 1224, "response": "Beta"}, "77": {"stimulus": 2499, "trial": 77, "rt": 1152, "response": "Beta"}, "54": {"stimulus": 1749, "trial": 54, "rt": 767, "response": "Alpha"}, "42": {"stimulus": 1562, "trial": 42, "rt": 728, "response": "Alpha"}, "48": {"stimulus": 1312, "trial": 48, "rt": 528, "response": "Alpha"}, "43": {"stimulus": 468, "trial": 43, "rt": 664, "response": "Alpha"}, "60": {"stimulus": 2124, "trial": 60, "rt": 479, "response": "Alpha"}, "61": {"stimulus": 1468, "trial": 61, "rt": 504, "response": "Alpha"}, "62": {"stimulus": 1530, "trial": 62, "rt": 663, "response": "Alpha"}, "63": {"stimulus": 1343, "trial": 63, "rt": 696, "response": "Alpha"}, "64": {"stimulus": 1499, "trial": 64, "rt": 760, "response": "Alpha"}, "49": {"stimulus": 749, "trial": 49, "rt": 536, "response": "Alpha"}, "66": {"stimulus": 405, "trial": 66, "rt": 672, "response": "Alpha"}, "67": {"stimulus": 2062, "trial": 67, "rt": 1152, "response": "Alpha"}, "68": {"stimulus": 93, "trial": 68, "rt": 528, "response": "Alpha"}, "69": {"stimulus": 1624, "trial": 69, "rt": 1161, "response": "Alpha"}, "80": {"stimulus": 499, "trial": 80, "rt": 504, "response": "Alpha"}, "52": {"stimulus": 1655, "trial": 52, "rt": 840, "response": "Alpha"}, "53": {"stimulus": 374, "trial": 53, "rt": 543, "response": "Alpha"}, "24": {"stimulus": 218, "trial": 24, "rt": 520, "response": "Alpha"}, "25": {"stimulus": 2249, "trial": 25, "rt": 1487, "response": "Beta"}, "26": {"stimulus": 1374, "trial": 26, "rt": 872, "response": "Alpha"}, "27": {"stimulus": 1062, "trial": 27, "rt": 632, "response": "Alpha"}, "20": {"stimulus": 2312, "trial": 20, "rt": 984, "response": "Beta"}, "21": {"stimulus": 1999, "trial": 21, "rt": 1521, "response": "Alpha"}, "22": {"stimulus": 968, "trial": 22, "rt": 583, "response": "Alpha"}, "23": {"stimulus": 624, "trial": 23, "rt": 504, "response": "Alpha"}, "46": {"stimulus": 1968, "trial": 46, "rt": 817, "response": "Alpha"}, "47": {"stimulus": 905, "trial": 47, "rt": 535, "response": "Alpha"}, "44": {"stimulus": 1874, "trial": 44, "rt": 2520, "response": "Alpha"}, "45": {"stimulus": 655, "trial": 45, "rt": 519, "response": "Alpha"}, "28": {"stimulus": 2468, "trial": 28, "rt": 1057, "response": "Beta"}, "29": {"stimulus": 843, "trial": 29, "rt": 960, "response": "Alpha"}, "40": {"stimulus": 2374, "trial": 40, "rt": 1169, "response": "Beta"}, "41": {"stimulus": 2093, "trial": 41, "rt": 856, "response": "Beta"}, "1": {"stimulus": 437, "trial": 1, "rt": 1031, "response": "Alpha"}, "0": {"stimulus": 593, "trial": 0, "rt": 2127, "response": "Alpha"}, "3": {"stimulus": 187, "trial": 3, "rt": 839, "response": "Alpha"}, "2": {"stimulus": 999, "trial": 2, "rt": 936, "response": "Alpha"}, "5": {"stimulus": 1405, "trial": 5, "rt": 801, "response": "Alpha"}, "4": {"stimulus": 0, "trial": 4, "rt": 720, "response": "Alpha"}, "7": {"stimulus": 1124, "trial": 7, "rt": 944, "response": "Alpha"}, "6": {"stimulus": 1812, "trial": 6, "rt": 1239, "response": "Beta"}, "9": {"stimulus": 1937, "trial": 9, "rt": 910, "response": "Beta"}, "8": {"stimulus": 1905, "trial": 8, "rt": 976, "response": "Beta"}, "78": {"stimulus": 1280, "trial": 78, "rt": 825, "response": "Alpha"}, "51": {"stimulus": 812, "trial": 51, "rt": 672, "response": "Alpha"}, "39": {"stimulus": 1843, "trial": 39, "rt": 1223, "response": "Beta"}, "65": {"stimulus": 1187, "trial": 65, "rt": 575, "response": "Alpha"}, "76": {"stimulus": 1718, "trial": 76, "rt": 658, "response": "Alpha"}, "75": {"stimulus": 1218, "trial": 75, "rt": 816, "response": "Alpha"}, "38": {"stimulus": 1593, "trial": 38, "rt": 825, "response": "Alpha"}, "73": {"stimulus": 1780, "trial": 73, "rt": 880, "response": "Alpha"}, "72": {"stimulus": 687, "trial": 72, "rt": 472, "response": "Alpha"}, "71": {"stimulus": 62, "trial": 71, "rt": 719, "response": "Alpha"}, "70": {"stimulus": 2343, "trial": 70, "rt": 983, "response": "Beta"}, "59": {"stimulus": 2030, "trial": 59, "rt": 754, "response": "Alpha"}, "79": {"stimulus": 155, "trial": 79, "rt": 800, "response": "Alpha"}, "58": {"stimulus": 718, "trial": 58, "rt": 536, "response": "Alpha"}, "11": {"stimulus": 937, "trial": 11, "rt": 792, "response": "Alpha"}, "10": {"stimulus": 2437, "trial": 10, "rt": 961, "response": "Beta"}, "13": {"stimulus": 1687, "trial": 13, "rt": 720, "response": "Alpha"}, "12": {"stimulus": 2405, "trial": 12, "rt": 895, "response": "Beta"}, "15": {"stimulus": 1249, "trial": 15, "rt": 2208, "response": "Alpha"}, "14": {"stimulus": 780, "trial": 14, "rt": 814, "response": "Alpha"}, "17": {"stimulus": 1155, "trial": 17, "rt": 673, "response": "Alpha"}, "16": {"stimulus": 280, "trial": 16, "rt": 670, "response": "Alpha"}, "19": {"stimulus": 530, "trial": 19, "rt": 657, "response": "Alpha"}, "18": {"stimulus": 2187, "trial": 18, "rt": 992, "response": "Beta"}, "31": {"stimulus": 874, "trial": 31, "rt": 752, "response": "Alpha"}, "30": {"stimulus": 1030, "trial": 30, "rt": 888, "response": "Alpha"}, "37": {"stimulus": 562, "trial": 37, "rt": 600, "response": "Alpha"}, "36": {"stimulus": 249, "trial": 36, "rt": 801, "response": "Alpha"}, "35": {"stimulus": 2280, "trial": 35, "rt": 1222, "response": "Beta"}, "34": {"stimulus": 30, "trial": 34, "rt": 655, "response": "Alpha"}, "33": {"stimulus": 124, "trial": 33, "rt": 592, "response": "Alpha"}, "55": {"stimulus": 312, "trial": 55, "rt": 545, "response": "Alpha"}, "74": {"stimulus": 2155, "trial": 74, "rt": 1527, "response": "Beta"}, "32": {"stimulus": 1093, "trial": 32, "rt": 823, "response": "Alpha"}, "57": {"stimulus": 343, "trial": 57, "rt": 968, "response": "Alpha"}, "50": {"stimulus": 1437, "trial": 50, "rt": 615, "response": "Alpha"}}, "experiment": {"Paradigm": "TACL", "Stimuli": "Size-Color Squares", "Experiment": "Generating-Multiple-Categories"}, "submit": {"timeTotal": 319354, "age": "28", "comments": "VERY INTEREST THE GAME OF SURVEY", "sex": "MALE"}}