{"info": {"finish": 1548146433130, "participant": 314, "exposed": true, "lab": false, "start": 1548146028254, "counterbalance": 0, "gentype": 2, "condition": "Row", "browser": {"platform": "Win32", "userAgent": "Mozilla/5.0 (Windows NT 10.0; Win64; x64; rv:64.0) Gecko/20100101 Firefox/64.0"}}, "observation": {"11": {"stimulus": 612, "trial": 11, "rt": 1351}, "10": {"stimulus": 493, "trial": 10, "rt": 1471}, "1": {"stimulus": 493, "trial": 1, "rt": 2397}, "0": {"stimulus": 582, "trial": 0, "rt": 1995}, "3": {"stimulus": 612, "trial": 3, "rt": 1673}, "2": {"stimulus": 421, "trial": 2, "rt": 2147}, "5": {"stimulus": 582, "trial": 5, "rt": 1563}, "4": {"stimulus": 612, "trial": 4, "rt": 1775}, "7": {"stimulus": 493, "trial": 7, "rt": 1518}, "6": {"stimulus": 421, "trial": 6, "rt": 1546}, "9": {"stimulus": 582, "trial": 9, "rt": 1445}, "8": {"stimulus": 421, "trial": 8, "rt": 1538}}, "generation": {"1": {"category": "Beta", "trial": 1, "stimulus": 2459, "rt": 10219}, "0": {"category": "Beta", "trial": 0, "stimulus": 860, "rt": 9370}, "3": {"category": "Beta", "trial": 3, "stimulus": 2307, "rt": 8325}, "2": {"category": "Beta", "trial": 2, "stimulus": 2455, "rt": 7601}, "5": {"category": "Gamma", "trial": 5, "stimulus": 2150, "rt": 4908}, "4": {"category": "Gamma", "trial": 4, "stimulus": 1749, "rt": 6484}, "7": {"category": "Gamma", "trial": 7, "stimulus": 1874, "rt": 5956}, "6": {"category": "Gamma", "trial": 6, "stimulus": 1918, "rt": 4310}}, "generalization": {"56": {"stimulus": 1280, "trial": 56, "rt": 609, "response": "Alpha"}, "77": {"stimulus": 999, "trial": 77, "rt": 1294, "response": "Alpha"}, "54": {"stimulus": 1155, "trial": 54, "rt": 514, "response": "Alpha"}, "42": {"stimulus": 2343, "trial": 42, "rt": 1009, "response": "Gamma"}, "48": {"stimulus": 2249, "trial": 48, "rt": 1015, "response": "Gamma"}, "43": {"stimulus": 2499, "trial": 43, "rt": 1019, "response": "Gamma"}, "60": {"stimulus": 1812, "trial": 60, "rt": 454, "response": "Alpha"}, "61": {"stimulus": 1593, "trial": 61, "rt": 428, "response": "Alpha"}, "62": {"stimulus": 2468, "trial": 62, "rt": 1210, "response": "Gamma"}, "63": {"stimulus": 1843, "trial": 63, "rt": 864, "response": "Alpha"}, "64": {"stimulus": 1905, "trial": 64, "rt": 635, "response": "Alpha"}, "49": {"stimulus": 2124, "trial": 49, "rt": 1366, "response": "Gamma"}, "66": {"stimulus": 1999, "trial": 66, "rt": 1293, "response": "Gamma"}, "67": {"stimulus": 843, "trial": 67, "rt": 1260, "response": "Alpha"}, "68": {"stimulus": 374, "trial": 68, "rt": 849, "response": "Beta"}, "69": {"stimulus": 437, "trial": 69, "rt": 1052, "response": "Beta"}, "80": {"stimulus": 718, "trial": 80, "rt": 1256, "response": "Beta"}, "52": {"stimulus": 2405, "trial": 52, "rt": 1646, "response": "Gamma"}, "53": {"stimulus": 1405, "trial": 53, "rt": 994, "response": "Alpha"}, "24": {"stimulus": 1624, "trial": 24, "rt": 623, "response": "Alpha"}, "25": {"stimulus": 593, "trial": 25, "rt": 881, "response": "Beta"}, "26": {"stimulus": 155, "trial": 26, "rt": 2307, "response": "Beta"}, "27": {"stimulus": 405, "trial": 27, "rt": 28122, "response": "Beta"}, "20": {"stimulus": 2187, "trial": 20, "rt": 2469, "response": "Gamma"}, "21": {"stimulus": 2218, "trial": 21, "rt": 994, "response": "Gamma"}, "22": {"stimulus": 124, "trial": 22, "rt": 829, "response": "Beta"}, "23": {"stimulus": 1718, "trial": 23, "rt": 836, "response": "Alpha"}, "46": {"stimulus": 562, "trial": 46, "rt": 629, "response": "Beta"}, "47": {"stimulus": 905, "trial": 47, "rt": 1766, "response": "Beta"}, "44": {"stimulus": 624, "trial": 44, "rt": 2069, "response": "Alpha"}, "45": {"stimulus": 1749, "trial": 45, "rt": 670, "response": "Alpha"}, "28": {"stimulus": 468, "trial": 28, "rt": 701, "response": "Beta"}, "29": {"stimulus": 187, "trial": 29, "rt": 1013, "response": "Beta"}, "40": {"stimulus": 1062, "trial": 40, "rt": 508, "response": "Alpha"}, "41": {"stimulus": 749, "trial": 41, "rt": 2607, "response": "Alpha"}, "1": {"stimulus": 2062, "trial": 1, "rt": 3788, "response": "Gamma"}, "0": {"stimulus": 655, "trial": 0, "rt": 5488, "response": "Alpha"}, "3": {"stimulus": 1030, "trial": 3, "rt": 747, "response": "Alpha"}, "2": {"stimulus": 93, "trial": 2, "rt": 2043, "response": "Alpha"}, "5": {"stimulus": 1312, "trial": 5, "rt": 1337, "response": "Alpha"}, "4": {"stimulus": 2093, "trial": 4, "rt": 1541, "response": "Gamma"}, "7": {"stimulus": 1468, "trial": 7, "rt": 1585, "response": "Alpha"}, "6": {"stimulus": 780, "trial": 6, "rt": 1840, "response": "Beta"}, "9": {"stimulus": 499, "trial": 9, "rt": 2176, "response": "Beta"}, "8": {"stimulus": 1124, "trial": 8, "rt": 781, "response": "Alpha"}, "78": {"stimulus": 0, "trial": 78, "rt": 636, "response": "Beta"}, "51": {"stimulus": 218, "trial": 51, "rt": 836, "response": "Beta"}, "39": {"stimulus": 874, "trial": 39, "rt": 3176, "response": "Alpha"}, "65": {"stimulus": 1374, "trial": 65, "rt": 672, "response": "Alpha"}, "76": {"stimulus": 1249, "trial": 76, "rt": 595, "response": "Alpha"}, "75": {"stimulus": 2030, "trial": 75, "rt": 805, "response": "Alpha"}, "38": {"stimulus": 2155, "trial": 38, "rt": 1061, "response": "Gamma"}, "73": {"stimulus": 62, "trial": 73, "rt": 1001, "response": "Beta"}, "72": {"stimulus": 1218, "trial": 72, "rt": 664, "response": "Alpha"}, "71": {"stimulus": 812, "trial": 71, "rt": 2419, "response": "Alpha"}, "70": {"stimulus": 2280, "trial": 70, "rt": 1161, "response": "Gamma"}, "59": {"stimulus": 1780, "trial": 59, "rt": 441, "response": "Alpha"}, "79": {"stimulus": 1499, "trial": 79, "rt": 713, "response": "Alpha"}, "58": {"stimulus": 1437, "trial": 58, "rt": 500, "response": "Alpha"}, "11": {"stimulus": 968, "trial": 11, "rt": 677, "response": "Alpha"}, "10": {"stimulus": 1968, "trial": 10, "rt": 1428, "response": "Gamma"}, "13": {"stimulus": 312, "trial": 13, "rt": 828, "response": "Beta"}, "12": {"stimulus": 1937, "trial": 12, "rt": 1883, "response": "Gamma"}, "15": {"stimulus": 937, "trial": 15, "rt": 1205, "response": "Alpha"}, "14": {"stimulus": 2437, "trial": 14, "rt": 1193, "response": "Gamma"}, "17": {"stimulus": 343, "trial": 17, "rt": 1547, "response": "Beta"}, "16": {"stimulus": 687, "trial": 16, "rt": 796, "response": "Beta"}, "19": {"stimulus": 530, "trial": 19, "rt": 1105, "response": "Beta"}, "18": {"stimulus": 2312, "trial": 18, "rt": 1101, "response": "Gamma"}, "31": {"stimulus": 280, "trial": 31, "rt": 1038, "response": "Beta"}, "30": {"stimulus": 1687, "trial": 30, "rt": 1720, "response": "Alpha"}, "37": {"stimulus": 1093, "trial": 37, "rt": 690, "response": "Alpha"}, "36": {"stimulus": 30, "trial": 36, "rt": 716, "response": "Beta"}, "35": {"stimulus": 1562, "trial": 35, "rt": 764, "response": "Alpha"}, "34": {"stimulus": 1187, "trial": 34, "rt": 1222, "response": "Alpha"}, "33": {"stimulus": 249, "trial": 33, "rt": 683, "response": "Beta"}, "55": {"stimulus": 2374, "trial": 55, "rt": 1165, "response": "Gamma"}, "74": {"stimulus": 1655, "trial": 74, "rt": 1178, "response": "Alpha"}, "32": {"stimulus": 1343, "trial": 32, "rt": 726, "response": "Alpha"}, "57": {"stimulus": 1530, "trial": 57, "rt": 534, "response": "Alpha"}, "50": {"stimulus": 1874, "trial": 50, "rt": 1847, "response": "Alpha"}}, "experiment": {"Paradigm": "TACL", "Stimuli": "Size-Color Squares", "Experiment": "Generating-Multiple-Categories"}, "submit": {"timeTotal": 405141, "age": "35", "comments": "It was a good survey", "sex": "Male"}}