{"info": {"finish": 1548151675430, "participant": 315, "exposed": true, "lab": false, "start": 1548151294031, "counterbalance": 5, "gentype": 0, "condition": "Row", "browser": {"platform": "Win32", "userAgent": "Mozilla/5.0 (Windows NT 6.1) AppleWebKit/537.36 (KHTML, like Gecko) Chrome/71.0.3578.98 Safari/537.36"}}, "observation": {"11": {"stimulus": 493, "trial": 11, "rt": 1490}, "10": {"stimulus": 421, "trial": 10, "rt": 1846}, "1": {"stimulus": 582, "trial": 1, "rt": 4054}, "0": {"stimulus": 421, "trial": 0, "rt": 5306}, "3": {"stimulus": 493, "trial": 3, "rt": 3207}, "2": {"stimulus": 612, "trial": 2, "rt": 4022}, "5": {"stimulus": 612, "trial": 5, "rt": 1859}, "4": {"stimulus": 493, "trial": 4, "rt": 1730}, "7": {"stimulus": 582, "trial": 7, "rt": 2117}, "6": {"stimulus": 421, "trial": 6, "rt": 18534}, "9": {"stimulus": 582, "trial": 9, "rt": 1631}, "8": {"stimulus": 612, "trial": 8, "rt": 2703}}, "generation": {"1": {"category": "Not-Alpha", "trial": 1, "stimulus": 489, "rt": 24572}, "0": {"category": "Not-Alpha", "trial": 0, "stimulus": 443, "rt": 30997}, "3": {"category": "Not-Alpha", "trial": 3, "stimulus": 780, "rt": 11869}, "2": {"category": "Not-Alpha", "trial": 2, "stimulus": 635, "rt": 4375}, "5": {"category": "Not-Alpha", "trial": 5, "stimulus": 1328, "rt": 3286}, "4": {"category": "Not-Alpha", "trial": 4, "stimulus": 1127, "rt": 3646}, "7": {"category": "Not-Alpha", "trial": 7, "stimulus": 1107, "rt": 4316}, "6": {"category": "Not-Alpha", "trial": 6, "stimulus": 1077, "rt": 4485}}, "generalization": {"56": {"stimulus": 1405, "trial": 56, "rt": 415, "response": "Beta"}, "77": {"stimulus": 1343, "trial": 77, "rt": 695, "response": "Alpha"}, "54": {"stimulus": 562, "trial": 54, "rt": 558, "response": "Beta"}, "42": {"stimulus": 2187, "trial": 42, "rt": 990, "response": "Beta"}, "48": {"stimulus": 2280, "trial": 48, "rt": 1239, "response": "Alpha"}, "43": {"stimulus": 2030, "trial": 43, "rt": 990, "response": "Beta"}, "60": {"stimulus": 405, "trial": 60, "rt": 640, "response": "Beta"}, "61": {"stimulus": 2093, "trial": 61, "rt": 695, "response": "Alpha"}, "62": {"stimulus": 812, "trial": 62, "rt": 1022, "response": "Beta"}, "63": {"stimulus": 187, "trial": 63, "rt": 950, "response": "Alpha"}, "64": {"stimulus": 1030, "trial": 64, "rt": 1543, "response": "Beta"}, "49": {"stimulus": 218, "trial": 49, "rt": 818, "response": "Beta"}, "66": {"stimulus": 593, "trial": 66, "rt": 711, "response": "Alpha"}, "67": {"stimulus": 905, "trial": 67, "rt": 536, "response": "Alpha"}, "68": {"stimulus": 1155, "trial": 68, "rt": 743, "response": "Beta"}, "69": {"stimulus": 1093, "trial": 69, "rt": 958, "response": "Alpha"}, "80": {"stimulus": 687, "trial": 80, "rt": 661, "response": "Alpha"}, "52": {"stimulus": 999, "trial": 52, "rt": 688, "response": "Alpha"}, "53": {"stimulus": 124, "trial": 53, "rt": 1077, "response": "Beta"}, "24": {"stimulus": 249, "trial": 24, "rt": 717, "response": "Alpha"}, "25": {"stimulus": 2155, "trial": 25, "rt": 785, "response": "Beta"}, "26": {"stimulus": 62, "trial": 26, "rt": 829, "response": "Beta"}, "27": {"stimulus": 2405, "trial": 27, "rt": 1038, "response": "Beta"}, "20": {"stimulus": 1374, "trial": 20, "rt": 1358, "response": "Beta"}, "21": {"stimulus": 1312, "trial": 21, "rt": 1094, "response": "Beta"}, "22": {"stimulus": 2468, "trial": 22, "rt": 741, "response": "Beta"}, "23": {"stimulus": 780, "trial": 23, "rt": 686, "response": "Beta"}, "46": {"stimulus": 1468, "trial": 46, "rt": 837, "response": "Beta"}, "47": {"stimulus": 1937, "trial": 47, "rt": 1159, "response": "Alpha"}, "44": {"stimulus": 2062, "trial": 44, "rt": 918, "response": "Beta"}, "45": {"stimulus": 0, "trial": 45, "rt": 871, "response": "Beta"}, "28": {"stimulus": 1655, "trial": 28, "rt": 1622, "response": "Beta"}, "29": {"stimulus": 1218, "trial": 29, "rt": 1047, "response": "Beta"}, "40": {"stimulus": 874, "trial": 40, "rt": 967, "response": "Beta"}, "41": {"stimulus": 280, "trial": 41, "rt": 1119, "response": "Beta"}, "1": {"stimulus": 1874, "trial": 1, "rt": 1648, "response": "Beta"}, "0": {"stimulus": 2437, "trial": 0, "rt": 2746, "response": "Alpha"}, "3": {"stimulus": 749, "trial": 3, "rt": 1343, "response": "Alpha"}, "2": {"stimulus": 374, "trial": 2, "rt": 1283, "response": "Beta"}, "5": {"stimulus": 2124, "trial": 5, "rt": 1566, "response": "Beta"}, "4": {"stimulus": 1562, "trial": 4, "rt": 918, "response": "Beta"}, "7": {"stimulus": 1593, "trial": 7, "rt": 1183, "response": "Alpha"}, "6": {"stimulus": 499, "trial": 6, "rt": 782, "response": "Alpha"}, "9": {"stimulus": 1187, "trial": 9, "rt": 533, "response": "Alpha"}, "8": {"stimulus": 2249, "trial": 8, "rt": 631, "response": "Alpha"}, "78": {"stimulus": 312, "trial": 78, "rt": 894, "response": "Beta"}, "51": {"stimulus": 1062, "trial": 51, "rt": 1054, "response": "Beta"}, "39": {"stimulus": 655, "trial": 39, "rt": 936, "response": "Beta"}, "65": {"stimulus": 2218, "trial": 65, "rt": 926, "response": "Beta"}, "76": {"stimulus": 1843, "trial": 76, "rt": 782, "response": "Alpha"}, "75": {"stimulus": 2312, "trial": 75, "rt": 798, "response": "Beta"}, "38": {"stimulus": 937, "trial": 38, "rt": 719, "response": "Beta"}, "73": {"stimulus": 1437, "trial": 73, "rt": 527, "response": "Alpha"}, "72": {"stimulus": 2374, "trial": 72, "rt": 526, "response": "Beta"}, "71": {"stimulus": 93, "trial": 71, "rt": 921, "response": "Alpha"}, "70": {"stimulus": 1624, "trial": 70, "rt": 711, "response": "Beta"}, "59": {"stimulus": 1687, "trial": 59, "rt": 1051, "response": "Alpha"}, "79": {"stimulus": 624, "trial": 79, "rt": 1728, "response": "Beta"}, "58": {"stimulus": 1249, "trial": 58, "rt": 431, "response": "Beta"}, "11": {"stimulus": 437, "trial": 11, "rt": 662, "response": "Alpha"}, "10": {"stimulus": 968, "trial": 10, "rt": 863, "response": "Beta"}, "13": {"stimulus": 1812, "trial": 13, "rt": 1118, "response": "Beta"}, "12": {"stimulus": 2343, "trial": 12, "rt": 879, "response": "Alpha"}, "15": {"stimulus": 30, "trial": 15, "rt": 1013, "response": "Beta"}, "14": {"stimulus": 2499, "trial": 14, "rt": 941, "response": "Alpha"}, "17": {"stimulus": 1780, "trial": 17, "rt": 1103, "response": "Beta"}, "16": {"stimulus": 1530, "trial": 16, "rt": 1102, "response": "Beta"}, "19": {"stimulus": 530, "trial": 19, "rt": 1171, "response": "Beta"}, "18": {"stimulus": 1999, "trial": 18, "rt": 557, "response": "Alpha"}, "31": {"stimulus": 1124, "trial": 31, "rt": 582, "response": "Beta"}, "30": {"stimulus": 1968, "trial": 30, "rt": 800, "response": "Beta"}, "37": {"stimulus": 1718, "trial": 37, "rt": 505, "response": "Beta"}, "36": {"stimulus": 343, "trial": 36, "rt": 1007, "response": "Alpha"}, "35": {"stimulus": 155, "trial": 35, "rt": 422, "response": "Beta"}, "34": {"stimulus": 718, "trial": 34, "rt": 744, "response": "Beta"}, "33": {"stimulus": 1499, "trial": 33, "rt": 405, "response": "Alpha"}, "55": {"stimulus": 843, "trial": 55, "rt": 1111, "response": "Alpha"}, "74": {"stimulus": 1749, "trial": 74, "rt": 1054, "response": "Alpha"}, "32": {"stimulus": 468, "trial": 32, "rt": 568, "response": "Beta"}, "57": {"stimulus": 1905, "trial": 57, "rt": 630, "response": "Alpha"}, "50": {"stimulus": 1280, "trial": 50, "rt": 1219, "response": "Alpha"}}, "experiment": {"Paradigm": "TACL", "Stimuli": "Size-Color Squares", "Experiment": "Generating-Multiple-Categories"}, "submit": {"timeTotal": 382435, "age": "35", "comments": "Interesting", "sex": "Male"}}