{"info": {"finish": 1548151957743, "participant": 319, "exposed": true, "lab": false, "start": 1548151489058, "counterbalance": 7, "gentype": 2, "condition": "Cluster", "browser": {"platform": "Win32", "userAgent": "Mozilla/5.0 (Windows NT 10.0; Win64; x64) AppleWebKit/537.36 (KHTML, like Gecko) Chrome/71.0.3578.98 Safari/537.36"}}, "observation": {"11": {"stimulus": 1083, "trial": 11, "rt": 2215}, "10": {"stimulus": 1093, "trial": 10, "rt": 2463}, "1": {"stimulus": 1083, "trial": 1, "rt": 2768}, "0": {"stimulus": 1093, "trial": 0, "rt": 6709}, "3": {"stimulus": 583, "trial": 3, "rt": 2519}, "2": {"stimulus": 392, "trial": 2, "rt": 2518}, "5": {"stimulus": 1083, "trial": 5, "rt": 1849}, "4": {"stimulus": 392, "trial": 4, "rt": 1744}, "7": {"stimulus": 1093, "trial": 7, "rt": 2248}, "6": {"stimulus": 583, "trial": 6, "rt": 1816}, "9": {"stimulus": 392, "trial": 9, "rt": 1703}, "8": {"stimulus": 583, "trial": 8, "rt": 2143}}, "generation": {"1": {"category": "Beta", "trial": 1, "stimulus": 1808, "rt": 9727}, "0": {"category": "Beta", "trial": 0, "stimulus": 1250, "rt": 14911}, "3": {"category": "Beta", "trial": 3, "stimulus": 1314, "rt": 6608}, "2": {"category": "Beta", "trial": 2, "stimulus": 150, "rt": 8911}, "5": {"category": "Gamma", "trial": 5, "stimulus": 1825, "rt": 7416}, "4": {"category": "Gamma", "trial": 4, "stimulus": 2172, "rt": 7951}, "7": {"category": "Gamma", "trial": 7, "stimulus": 1972, "rt": 5431}, "6": {"category": "Gamma", "trial": 6, "stimulus": 2073, "rt": 6430}}, "generalization": {"56": {"stimulus": 499, "trial": 56, "rt": 951, "response": "Alpha"}, "77": {"stimulus": 2343, "trial": 77, "rt": 735, "response": "Alpha"}, "54": {"stimulus": 2124, "trial": 54, "rt": 2415, "response": "Beta"}, "42": {"stimulus": 874, "trial": 42, "rt": 2854, "response": "Alpha"}, "48": {"stimulus": 187, "trial": 48, "rt": 631, "response": "Alpha"}, "43": {"stimulus": 1155, "trial": 43, "rt": 1703, "response": "Beta"}, "60": {"stimulus": 2280, "trial": 60, "rt": 5409, "response": "Alpha"}, "61": {"stimulus": 937, "trial": 61, "rt": 896, "response": "Alpha"}, "62": {"stimulus": 1874, "trial": 62, "rt": 9856, "response": "Gamma"}, "63": {"stimulus": 530, "trial": 63, "rt": 1376, "response": "Alpha"}, "64": {"stimulus": 1968, "trial": 64, "rt": 1575, "response": "Gamma"}, "49": {"stimulus": 687, "trial": 49, "rt": 575, "response": "Alpha"}, "66": {"stimulus": 1562, "trial": 66, "rt": 1239, "response": "Gamma"}, "67": {"stimulus": 155, "trial": 67, "rt": 1262, "response": "Beta"}, "68": {"stimulus": 374, "trial": 68, "rt": 1350, "response": "Alpha"}, "69": {"stimulus": 812, "trial": 69, "rt": 1071, "response": "Beta"}, "80": {"stimulus": 2093, "trial": 80, "rt": 919, "response": "Alpha"}, "52": {"stimulus": 62, "trial": 52, "rt": 1318, "response": "Beta"}, "53": {"stimulus": 1374, "trial": 53, "rt": 4734, "response": "Beta"}, "24": {"stimulus": 905, "trial": 24, "rt": 1990, "response": "Beta"}, "25": {"stimulus": 1624, "trial": 25, "rt": 2974, "response": "Gamma"}, "26": {"stimulus": 2437, "trial": 26, "rt": 1558, "response": "Alpha"}, "27": {"stimulus": 1187, "trial": 27, "rt": 1679, "response": "Alpha"}, "20": {"stimulus": 1749, "trial": 20, "rt": 807, "response": "Alpha"}, "21": {"stimulus": 1124, "trial": 21, "rt": 4967, "response": "Beta"}, "22": {"stimulus": 2374, "trial": 22, "rt": 2688, "response": "Gamma"}, "23": {"stimulus": 2030, "trial": 23, "rt": 2110, "response": "Alpha"}, "46": {"stimulus": 593, "trial": 46, "rt": 673, "response": "Alpha"}, "47": {"stimulus": 1249, "trial": 47, "rt": 696, "response": "Alpha"}, "44": {"stimulus": 124, "trial": 44, "rt": 2320, "response": "Alpha"}, "45": {"stimulus": 1437, "trial": 45, "rt": 790, "response": "Alpha"}, "28": {"stimulus": 2218, "trial": 28, "rt": 2789, "response": "Gamma"}, "29": {"stimulus": 2155, "trial": 29, "rt": 2758, "response": "Beta"}, "40": {"stimulus": 2187, "trial": 40, "rt": 953, "response": "Beta"}, "41": {"stimulus": 655, "trial": 41, "rt": 1303, "response": "Beta"}, "1": {"stimulus": 1062, "trial": 1, "rt": 4327, "response": "Beta"}, "0": {"stimulus": 1999, "trial": 0, "rt": 4046, "response": "Alpha"}, "3": {"stimulus": 2312, "trial": 3, "rt": 1854, "response": "Gamma"}, "2": {"stimulus": 2468, "trial": 2, "rt": 1456, "response": "Gamma"}, "5": {"stimulus": 1468, "trial": 5, "rt": 4343, "response": "Beta"}, "4": {"stimulus": 2405, "trial": 4, "rt": 2349, "response": "Beta"}, "7": {"stimulus": 843, "trial": 7, "rt": 1615, "response": "Alpha"}, "6": {"stimulus": 468, "trial": 6, "rt": 1567, "response": "Beta"}, "9": {"stimulus": 1499, "trial": 9, "rt": 887, "response": "Alpha"}, "8": {"stimulus": 343, "trial": 8, "rt": 4408, "response": "Alpha"}, "78": {"stimulus": 30, "trial": 78, "rt": 1190, "response": "Alpha"}, "51": {"stimulus": 2249, "trial": 51, "rt": 614, "response": "Alpha"}, "39": {"stimulus": 218, "trial": 39, "rt": 1470, "response": "Beta"}, "65": {"stimulus": 1905, "trial": 65, "rt": 3767, "response": "Beta"}, "76": {"stimulus": 1280, "trial": 76, "rt": 2585, "response": "Alpha"}, "75": {"stimulus": 1812, "trial": 75, "rt": 575, "response": "Gamma"}, "38": {"stimulus": 780, "trial": 38, "rt": 832, "response": "Alpha"}, "73": {"stimulus": 968, "trial": 73, "rt": 1231, "response": "Beta"}, "72": {"stimulus": 1030, "trial": 72, "rt": 734, "response": "Alpha"}, "71": {"stimulus": 624, "trial": 71, "rt": 1183, "response": "Alpha"}, "70": {"stimulus": 999, "trial": 70, "rt": 942, "response": "Alpha"}, "59": {"stimulus": 249, "trial": 59, "rt": 1136, "response": "Alpha"}, "79": {"stimulus": 562, "trial": 79, "rt": 1271, "response": "Beta"}, "58": {"stimulus": 1218, "trial": 58, "rt": 3352, "response": "Beta"}, "11": {"stimulus": 1655, "trial": 11, "rt": 1816, "response": "Beta"}, "10": {"stimulus": 1780, "trial": 10, "rt": 2735, "response": "Alpha"}, "13": {"stimulus": 312, "trial": 13, "rt": 2176, "response": "Beta"}, "12": {"stimulus": 1593, "trial": 12, "rt": 1536, "response": "Alpha"}, "15": {"stimulus": 1530, "trial": 15, "rt": 2790, "response": "Alpha"}, "14": {"stimulus": 749, "trial": 14, "rt": 1205, "response": "Alpha"}, "17": {"stimulus": 2062, "trial": 17, "rt": 1238, "response": "Gamma"}, "16": {"stimulus": 405, "trial": 16, "rt": 2152, "response": "Beta"}, "19": {"stimulus": 1937, "trial": 19, "rt": 4592, "response": "Alpha"}, "18": {"stimulus": 280, "trial": 18, "rt": 3591, "response": "Alpha"}, "31": {"stimulus": 1093, "trial": 31, "rt": 1977, "response": "Alpha"}, "30": {"stimulus": 2499, "trial": 30, "rt": 1496, "response": "Alpha"}, "37": {"stimulus": 93, "trial": 37, "rt": 895, "response": "Alpha"}, "36": {"stimulus": 0, "trial": 36, "rt": 1182, "response": "Beta"}, "35": {"stimulus": 1687, "trial": 35, "rt": 888, "response": "Beta"}, "34": {"stimulus": 1312, "trial": 34, "rt": 1230, "response": "Beta"}, "33": {"stimulus": 1843, "trial": 33, "rt": 751, "response": "Alpha"}, "55": {"stimulus": 718, "trial": 55, "rt": 1352, "response": "Beta"}, "74": {"stimulus": 1718, "trial": 74, "rt": 1263, "response": "Gamma"}, "32": {"stimulus": 437, "trial": 32, "rt": 703, "response": "Alpha"}, "57": {"stimulus": 1405, "trial": 57, "rt": 1199, "response": "Beta"}, "50": {"stimulus": 1343, "trial": 50, "rt": 568, "response": "Alpha"}}, "experiment": {"Paradigm": "TACL", "Stimuli": "Size-Color Squares", "Experiment": "Generating-Multiple-Categories"}, "submit": {"timeTotal": 470721, "age": "31", "comments": "Exciting", "sex": "male"}}