{"info": {"finish": 1548160307700, "participant": 337, "exposed": true, "lab": false, "start": 1548159924816, "counterbalance": 7, "gentype": 2, "condition": "XOR", "browser": {"platform": "Win32", "userAgent": "Mozilla/5.0 (Windows NT 10.0; Win64; x64) AppleWebKit/537.36 (KHTML, like Gecko) Chrome/71.0.3578.98 Safari/537.36"}}, "observation": {"11": {"stimulus": 818, "trial": 11, "rt": 1394}, "10": {"stimulus": 403, "trial": 10, "rt": 1471}, "1": {"stimulus": 1479, "trial": 1, "rt": 1961}, "0": {"stimulus": 403, "trial": 0, "rt": 2577}, "3": {"stimulus": 818, "trial": 3, "rt": 1718}, "2": {"stimulus": 1890, "trial": 2, "rt": 3847}, "5": {"stimulus": 403, "trial": 5, "rt": 1845}, "4": {"stimulus": 818, "trial": 4, "rt": 1824}, "7": {"stimulus": 1479, "trial": 7, "rt": 1471}, "6": {"stimulus": 1890, "trial": 6, "rt": 1600}, "9": {"stimulus": 1890, "trial": 9, "rt": 1595}, "8": {"stimulus": 1479, "trial": 8, "rt": 1427}}, "generation": {"1": {"category": "Beta", "trial": 1, "stimulus": 149, "rt": 10561}, "0": {"category": "Beta", "trial": 0, "stimulus": 49, "rt": 36718}, "3": {"category": "Beta", "trial": 3, "stimulus": 98, "rt": 8994}, "2": {"category": "Beta", "trial": 2, "stimulus": 48, "rt": 6486}, "5": {"category": "Gamma", "trial": 5, "stimulus": 1, "rt": 6085}, "4": {"category": "Gamma", "trial": 4, "stimulus": 0, "rt": 9985}, "7": {"category": "Gamma", "trial": 7, "stimulus": 51, "rt": 12195}, "6": {"category": "Gamma", "trial": 6, "stimulus": 50, "rt": 4976}}, "generalization": {"56": {"stimulus": 2312, "trial": 56, "rt": 487, "response": "Alpha"}, "77": {"stimulus": 718, "trial": 77, "rt": 332, "response": "Alpha"}, "54": {"stimulus": 2093, "trial": 54, "rt": 476, "response": "Alpha"}, "42": {"stimulus": 2124, "trial": 42, "rt": 497, "response": "Alpha"}, "48": {"stimulus": 1905, "trial": 48, "rt": 436, "response": "Alpha"}, "43": {"stimulus": 30, "trial": 43, "rt": 3318, "response": "Alpha"}, "60": {"stimulus": 1499, "trial": 60, "rt": 552, "response": "Alpha"}, "61": {"stimulus": 968, "trial": 61, "rt": 803, "response": "Alpha"}, "62": {"stimulus": 187, "trial": 62, "rt": 1404, "response": "Beta"}, "63": {"stimulus": 1312, "trial": 63, "rt": 1193, "response": "Alpha"}, "64": {"stimulus": 1437, "trial": 64, "rt": 579, "response": "Alpha"}, "49": {"stimulus": 2437, "trial": 49, "rt": 1798, "response": "Alpha"}, "66": {"stimulus": 1562, "trial": 66, "rt": 549, "response": "Alpha"}, "67": {"stimulus": 280, "trial": 67, "rt": 1209, "response": "Beta"}, "68": {"stimulus": 374, "trial": 68, "rt": 1554, "response": "Beta"}, "69": {"stimulus": 1812, "trial": 69, "rt": 1003, "response": "Alpha"}, "80": {"stimulus": 905, "trial": 80, "rt": 1167, "response": "Alpha"}, "52": {"stimulus": 0, "trial": 52, "rt": 1304, "response": "Gamma"}, "53": {"stimulus": 1968, "trial": 53, "rt": 580, "response": "Alpha"}, "24": {"stimulus": 1687, "trial": 24, "rt": 1019, "response": "Alpha"}, "25": {"stimulus": 1249, "trial": 25, "rt": 2348, "response": "Beta"}, "26": {"stimulus": 312, "trial": 26, "rt": 1511, "response": "Alpha"}, "27": {"stimulus": 1468, "trial": 27, "rt": 540, "response": "Alpha"}, "20": {"stimulus": 1280, "trial": 20, "rt": 668, "response": "Alpha"}, "21": {"stimulus": 937, "trial": 21, "rt": 878, "response": "Alpha"}, "22": {"stimulus": 1093, "trial": 22, "rt": 1097, "response": "Alpha"}, "23": {"stimulus": 2374, "trial": 23, "rt": 937, "response": "Alpha"}, "46": {"stimulus": 2187, "trial": 46, "rt": 696, "response": "Alpha"}, "47": {"stimulus": 687, "trial": 47, "rt": 653, "response": "Alpha"}, "44": {"stimulus": 1874, "trial": 44, "rt": 551, "response": "Alpha"}, "45": {"stimulus": 1374, "trial": 45, "rt": 506, "response": "Alpha"}, "28": {"stimulus": 1530, "trial": 28, "rt": 403, "response": "Alpha"}, "29": {"stimulus": 655, "trial": 29, "rt": 1639, "response": "Alpha"}, "40": {"stimulus": 749, "trial": 40, "rt": 1189, "response": "Beta"}, "41": {"stimulus": 1937, "trial": 41, "rt": 329, "response": "Alpha"}, "1": {"stimulus": 1405, "trial": 1, "rt": 2992, "response": "Alpha"}, "0": {"stimulus": 780, "trial": 0, "rt": 4212, "response": "Alpha"}, "3": {"stimulus": 1780, "trial": 3, "rt": 1509, "response": "Alpha"}, "2": {"stimulus": 593, "trial": 2, "rt": 3410, "response": "Beta"}, "5": {"stimulus": 1030, "trial": 5, "rt": 1797, "response": "Alpha"}, "4": {"stimulus": 62, "trial": 4, "rt": 1342, "response": "Alpha"}, "7": {"stimulus": 2249, "trial": 7, "rt": 984, "response": "Alpha"}, "6": {"stimulus": 2343, "trial": 6, "rt": 2562, "response": "Alpha"}, "9": {"stimulus": 1655, "trial": 9, "rt": 948, "response": "Alpha"}, "8": {"stimulus": 1218, "trial": 8, "rt": 3145, "response": "Alpha"}, "78": {"stimulus": 1187, "trial": 78, "rt": 726, "response": "Alpha"}, "51": {"stimulus": 1343, "trial": 51, "rt": 570, "response": "Alpha"}, "39": {"stimulus": 2499, "trial": 39, "rt": 590, "response": "Alpha"}, "65": {"stimulus": 2280, "trial": 65, "rt": 464, "response": "Alpha"}, "76": {"stimulus": 2218, "trial": 76, "rt": 407, "response": "Alpha"}, "75": {"stimulus": 2155, "trial": 75, "rt": 586, "response": "Alpha"}, "38": {"stimulus": 1624, "trial": 38, "rt": 628, "response": "Alpha"}, "73": {"stimulus": 218, "trial": 73, "rt": 1535, "response": "Beta"}, "72": {"stimulus": 343, "trial": 72, "rt": 929, "response": "Beta"}, "71": {"stimulus": 1124, "trial": 71, "rt": 304, "response": "Alpha"}, "70": {"stimulus": 2062, "trial": 70, "rt": 363, "response": "Alpha"}, "59": {"stimulus": 437, "trial": 59, "rt": 2441, "response": "Beta"}, "79": {"stimulus": 2405, "trial": 79, "rt": 666, "response": "Alpha"}, "58": {"stimulus": 2030, "trial": 58, "rt": 612, "response": "Alpha"}, "11": {"stimulus": 1155, "trial": 11, "rt": 2799, "response": "Alpha"}, "10": {"stimulus": 2468, "trial": 10, "rt": 495, "response": "Alpha"}, "13": {"stimulus": 874, "trial": 13, "rt": 653, "response": "Alpha"}, "12": {"stimulus": 468, "trial": 12, "rt": 1116, "response": "Alpha"}, "15": {"stimulus": 530, "trial": 15, "rt": 745, "response": "Alpha"}, "14": {"stimulus": 405, "trial": 14, "rt": 759, "response": "Alpha"}, "17": {"stimulus": 1999, "trial": 17, "rt": 681, "response": "Alpha"}, "16": {"stimulus": 155, "trial": 16, "rt": 1442, "response": "Alpha"}, "19": {"stimulus": 1593, "trial": 19, "rt": 767, "response": "Alpha"}, "18": {"stimulus": 1062, "trial": 18, "rt": 920, "response": "Alpha"}, "31": {"stimulus": 1749, "trial": 31, "rt": 807, "response": "Beta"}, "30": {"stimulus": 624, "trial": 30, "rt": 2435, "response": "Alpha"}, "37": {"stimulus": 93, "trial": 37, "rt": 1716, "response": "Beta"}, "36": {"stimulus": 1718, "trial": 36, "rt": 670, "response": "Alpha"}, "35": {"stimulus": 499, "trial": 35, "rt": 892, "response": "Beta"}, "34": {"stimulus": 999, "trial": 34, "rt": 1053, "response": "Alpha"}, "33": {"stimulus": 812, "trial": 33, "rt": 975, "response": "Alpha"}, "55": {"stimulus": 1843, "trial": 55, "rt": 403, "response": "Alpha"}, "74": {"stimulus": 562, "trial": 74, "rt": 1149, "response": "Alpha"}, "32": {"stimulus": 249, "trial": 32, "rt": 2894, "response": "Beta"}, "57": {"stimulus": 843, "trial": 57, "rt": 942, "response": "Alpha"}, "50": {"stimulus": 124, "trial": 50, "rt": 2424, "response": "Alpha"}}, "experiment": {"Paradigm": "TACL", "Stimuli": "Size-Color Squares", "Experiment": "Generating-Multiple-Categories"}, "submit": {"timeTotal": 383137, "age": "32", "comments": "i feel like it was just showing me alphas. i made beta and gamma as big as the boxs could get but i feel like i did not get show many. i made beta black and gamma white and did not see much of those.", "sex": "Male"}}