{"info": {"finish": 1548163181434, "participant": 343, "exposed": true, "lab": false, "start": 1548162915658, "counterbalance": 5, "gentype": 0, "condition": "Cluster", "browser": {"platform": "Win32", "userAgent": "Mozilla/5.0 (Windows NT 10.0; Win64; x64) AppleWebKit/537.36 (KHTML, like Gecko) Chrome/71.0.3578.98 Safari/537.36"}}, "observation": {"11": {"stimulus": 583, "trial": 11, "rt": 1401}, "10": {"stimulus": 1093, "trial": 10, "rt": 1482}, "1": {"stimulus": 392, "trial": 1, "rt": 1914}, "0": {"stimulus": 1083, "trial": 0, "rt": 2234}, "3": {"stimulus": 583, "trial": 3, "rt": 1768}, "2": {"stimulus": 1093, "trial": 2, "rt": 1568}, "5": {"stimulus": 392, "trial": 5, "rt": 1566}, "4": {"stimulus": 1093, "trial": 4, "rt": 1568}, "7": {"stimulus": 1083, "trial": 7, "rt": 2148}, "6": {"stimulus": 583, "trial": 6, "rt": 1423}, "9": {"stimulus": 1083, "trial": 9, "rt": 1528}, "8": {"stimulus": 392, "trial": 8, "rt": 1499}}, "generation": {"1": {"category": "Not-Alpha", "trial": 1, "stimulus": 1856, "rt": 5351}, "0": {"category": "Not-Alpha", "trial": 0, "stimulus": 2450, "rt": 11685}, "3": {"category": "Not-Alpha", "trial": 3, "stimulus": 910, "rt": 6269}, "2": {"category": "Not-Alpha", "trial": 2, "stimulus": 2, "rt": 7473}, "5": {"category": "Not-Alpha", "trial": 5, "stimulus": 2458, "rt": 6901}, "4": {"category": "Not-Alpha", "trial": 4, "stimulus": 1814, "rt": 5056}, "7": {"category": "Not-Alpha", "trial": 7, "stimulus": 59, "rt": 4628}, "6": {"category": "Not-Alpha", "trial": 6, "stimulus": 0, "rt": 3514}}, "generalization": {"56": {"stimulus": 2312, "trial": 56, "rt": 647, "response": "Beta"}, "77": {"stimulus": 2124, "trial": 77, "rt": 1040, "response": "Beta"}, "54": {"stimulus": 2437, "trial": 54, "rt": 974, "response": "Alpha"}, "42": {"stimulus": 1562, "trial": 42, "rt": 502, "response": "Beta"}, "48": {"stimulus": 1874, "trial": 48, "rt": 625, "response": "Beta"}, "43": {"stimulus": 1937, "trial": 43, "rt": 1083, "response": "Alpha"}, "60": {"stimulus": 62, "trial": 60, "rt": 1082, "response": "Alpha"}, "61": {"stimulus": 1749, "trial": 61, "rt": 539, "response": "Alpha"}, "62": {"stimulus": 1218, "trial": 62, "rt": 773, "response": "Beta"}, "63": {"stimulus": 1499, "trial": 63, "rt": 609, "response": "Alpha"}, "64": {"stimulus": 1718, "trial": 64, "rt": 719, "response": "Beta"}, "49": {"stimulus": 562, "trial": 49, "rt": 907, "response": "Beta"}, "66": {"stimulus": 30, "trial": 66, "rt": 1517, "response": "Beta"}, "67": {"stimulus": 999, "trial": 67, "rt": 785, "response": "Alpha"}, "68": {"stimulus": 1843, "trial": 68, "rt": 527, "response": "Alpha"}, "69": {"stimulus": 530, "trial": 69, "rt": 759, "response": "Alpha"}, "80": {"stimulus": 1312, "trial": 80, "rt": 873, "response": "Beta"}, "52": {"stimulus": 1343, "trial": 52, "rt": 458, "response": "Alpha"}, "53": {"stimulus": 2280, "trial": 53, "rt": 804, "response": "Beta"}, "24": {"stimulus": 2343, "trial": 24, "rt": 499, "response": "Alpha"}, "25": {"stimulus": 968, "trial": 25, "rt": 794, "response": "Beta"}, "26": {"stimulus": 0, "trial": 26, "rt": 792, "response": "Beta"}, "27": {"stimulus": 187, "trial": 27, "rt": 789, "response": "Alpha"}, "20": {"stimulus": 249, "trial": 20, "rt": 556, "response": "Alpha"}, "21": {"stimulus": 312, "trial": 21, "rt": 824, "response": "Beta"}, "22": {"stimulus": 937, "trial": 22, "rt": 1130, "response": "Beta"}, "23": {"stimulus": 1999, "trial": 23, "rt": 879, "response": "Alpha"}, "46": {"stimulus": 218, "trial": 46, "rt": 910, "response": "Beta"}, "47": {"stimulus": 1624, "trial": 47, "rt": 575, "response": "Beta"}, "44": {"stimulus": 2187, "trial": 44, "rt": 847, "response": "Alpha"}, "45": {"stimulus": 437, "trial": 45, "rt": 654, "response": "Alpha"}, "28": {"stimulus": 93, "trial": 28, "rt": 503, "response": "Alpha"}, "29": {"stimulus": 1030, "trial": 29, "rt": 714, "response": "Alpha"}, "40": {"stimulus": 1155, "trial": 40, "rt": 531, "response": "Beta"}, "41": {"stimulus": 468, "trial": 41, "rt": 567, "response": "Beta"}, "1": {"stimulus": 843, "trial": 1, "rt": 717, "response": "Alpha"}, "0": {"stimulus": 2468, "trial": 0, "rt": 3175, "response": "Alpha"}, "3": {"stimulus": 718, "trial": 3, "rt": 1410, "response": "Alpha"}, "2": {"stimulus": 1905, "trial": 2, "rt": 895, "response": "Beta"}, "5": {"stimulus": 2155, "trial": 5, "rt": 838, "response": "Beta"}, "4": {"stimulus": 2030, "trial": 4, "rt": 915, "response": "Alpha"}, "7": {"stimulus": 749, "trial": 7, "rt": 980, "response": "Alpha"}, "6": {"stimulus": 593, "trial": 6, "rt": 671, "response": "Alpha"}, "9": {"stimulus": 1093, "trial": 9, "rt": 460, "response": "Alpha"}, "8": {"stimulus": 1187, "trial": 8, "rt": 623, "response": "Alpha"}, "78": {"stimulus": 1437, "trial": 78, "rt": 716, "response": "Alpha"}, "51": {"stimulus": 2249, "trial": 51, "rt": 534, "response": "Alpha"}, "39": {"stimulus": 624, "trial": 39, "rt": 638, "response": "Beta"}, "65": {"stimulus": 1655, "trial": 65, "rt": 899, "response": "Beta"}, "76": {"stimulus": 405, "trial": 76, "rt": 722, "response": "Beta"}, "75": {"stimulus": 2093, "trial": 75, "rt": 648, "response": "Alpha"}, "38": {"stimulus": 2405, "trial": 38, "rt": 835, "response": "Beta"}, "73": {"stimulus": 1124, "trial": 73, "rt": 425, "response": "Beta"}, "72": {"stimulus": 1812, "trial": 72, "rt": 397, "response": "Beta"}, "71": {"stimulus": 905, "trial": 71, "rt": 473, "response": "Beta"}, "70": {"stimulus": 812, "trial": 70, "rt": 701, "response": "Beta"}, "59": {"stimulus": 1780, "trial": 59, "rt": 683, "response": "Alpha"}, "79": {"stimulus": 1593, "trial": 79, "rt": 555, "response": "Alpha"}, "58": {"stimulus": 655, "trial": 58, "rt": 507, "response": "Beta"}, "11": {"stimulus": 1687, "trial": 11, "rt": 829, "response": "Alpha"}, "10": {"stimulus": 343, "trial": 10, "rt": 676, "response": "Alpha"}, "13": {"stimulus": 2062, "trial": 13, "rt": 596, "response": "Beta"}, "12": {"stimulus": 1468, "trial": 12, "rt": 985, "response": "Beta"}, "15": {"stimulus": 1968, "trial": 15, "rt": 769, "response": "Beta"}, "14": {"stimulus": 124, "trial": 14, "rt": 656, "response": "Beta"}, "17": {"stimulus": 1062, "trial": 17, "rt": 807, "response": "Beta"}, "16": {"stimulus": 874, "trial": 16, "rt": 602, "response": "Beta"}, "19": {"stimulus": 687, "trial": 19, "rt": 873, "response": "Alpha"}, "18": {"stimulus": 2218, "trial": 18, "rt": 819, "response": "Beta"}, "31": {"stimulus": 1530, "trial": 31, "rt": 843, "response": "Alpha"}, "30": {"stimulus": 2499, "trial": 30, "rt": 620, "response": "Alpha"}, "37": {"stimulus": 2374, "trial": 37, "rt": 1320, "response": "Beta"}, "36": {"stimulus": 1374, "trial": 36, "rt": 718, "response": "Alpha"}, "35": {"stimulus": 1249, "trial": 35, "rt": 612, "response": "Alpha"}, "34": {"stimulus": 780, "trial": 34, "rt": 872, "response": "Alpha"}, "33": {"stimulus": 1280, "trial": 33, "rt": 1041, "response": "Beta"}, "55": {"stimulus": 374, "trial": 55, "rt": 735, "response": "Beta"}, "74": {"stimulus": 1405, "trial": 74, "rt": 781, "response": "Beta"}, "32": {"stimulus": 280, "trial": 32, "rt": 963, "response": "Beta"}, "57": {"stimulus": 155, "trial": 57, "rt": 582, "response": "Beta"}, "50": {"stimulus": 499, "trial": 50, "rt": 703, "response": "Alpha"}}, "experiment": {"Paradigm": "TACL", "Stimuli": "Size-Color Squares", "Experiment": "Generating-Multiple-Categories"}, "submit": {"timeTotal": 266209, "age": "29", "comments": "Thanks!", "sex": "male"}}