{"info": {"finish": 1548163483181, "participant": 344, "exposed": true, "lab": false, "start": 1548163048968, "counterbalance": 3, "gentype": 2, "condition": "Cluster", "browser": {"platform": "Win32", "userAgent": "Mozilla/5.0 (Windows NT 6.1; Win64; x64) AppleWebKit/537.36 (KHTML, like Gecko) Chrome/71.0.3578.98 Safari/537.36"}}, "observation": {"11": {"stimulus": 1083, "trial": 11, "rt": 23376}, "10": {"stimulus": 1093, "trial": 10, "rt": 36028}, "1": {"stimulus": 1083, "trial": 1, "rt": 2059}, "0": {"stimulus": 583, "trial": 0, "rt": 3286}, "3": {"stimulus": 392, "trial": 3, "rt": 11401}, "2": {"stimulus": 1093, "trial": 2, "rt": 2278}, "5": {"stimulus": 392, "trial": 5, "rt": 2149}, "4": {"stimulus": 1083, "trial": 4, "rt": 4518}, "7": {"stimulus": 583, "trial": 7, "rt": 2405}, "6": {"stimulus": 1093, "trial": 6, "rt": 2048}, "9": {"stimulus": 392, "trial": 9, "rt": 14462}, "8": {"stimulus": 583, "trial": 8, "rt": 10366}}, "generation": {"1": {"category": "Beta", "trial": 1, "stimulus": 817, "rt": 5796}, "0": {"category": "Beta", "trial": 0, "stimulus": 969, "rt": 8452}, "3": {"category": "Beta", "trial": 3, "stimulus": 670, "rt": 5309}, "2": {"category": "Beta", "trial": 2, "stimulus": 719, "rt": 5466}, "5": {"category": "Gamma", "trial": 5, "stimulus": 772, "rt": 4605}, "4": {"category": "Gamma", "trial": 4, "stimulus": 822, "rt": 4531}, "7": {"category": "Gamma", "trial": 7, "stimulus": 672, "rt": 12533}, "6": {"category": "Gamma", "trial": 6, "stimulus": 673, "rt": 3394}}, "generalization": {"56": {"stimulus": 249, "trial": 56, "rt": 1189, "response": "Alpha"}, "77": {"stimulus": 1812, "trial": 77, "rt": 573, "response": "Beta"}, "54": {"stimulus": 1155, "trial": 54, "rt": 981, "response": "Gamma"}, "42": {"stimulus": 749, "trial": 42, "rt": 1174, "response": "Alpha"}, "48": {"stimulus": 1874, "trial": 48, "rt": 212, "response": "Alpha"}, "43": {"stimulus": 2124, "trial": 43, "rt": 1103, "response": "Beta"}, "60": {"stimulus": 280, "trial": 60, "rt": 918, "response": "Alpha"}, "61": {"stimulus": 30, "trial": 61, "rt": 638, "response": "Alpha"}, "62": {"stimulus": 1593, "trial": 62, "rt": 886, "response": "Beta"}, "63": {"stimulus": 1249, "trial": 63, "rt": 758, "response": "Beta"}, "64": {"stimulus": 843, "trial": 64, "rt": 470, "response": "Beta"}, "49": {"stimulus": 2405, "trial": 49, "rt": 431, "response": "Alpha"}, "66": {"stimulus": 1093, "trial": 66, "rt": 436, "response": "Beta"}, "67": {"stimulus": 437, "trial": 67, "rt": 20533, "response": "Alpha"}, "68": {"stimulus": 562, "trial": 68, "rt": 1255, "response": "Alpha"}, "69": {"stimulus": 468, "trial": 69, "rt": 469, "response": "Alpha"}, "80": {"stimulus": 1468, "trial": 80, "rt": 542, "response": "Alpha"}, "52": {"stimulus": 1562, "trial": 52, "rt": 1051, "response": "Gamma"}, "53": {"stimulus": 2093, "trial": 53, "rt": 910, "response": "Beta"}, "24": {"stimulus": 499, "trial": 24, "rt": 964, "response": "Alpha"}, "25": {"stimulus": 1655, "trial": 25, "rt": 1253, "response": "Beta"}, "26": {"stimulus": 1405, "trial": 26, "rt": 1238, "response": "Beta"}, "27": {"stimulus": 1499, "trial": 27, "rt": 730, "response": "Beta"}, "20": {"stimulus": 687, "trial": 20, "rt": 1022, "response": "Alpha"}, "21": {"stimulus": 124, "trial": 21, "rt": 7118, "response": "Alpha"}, "22": {"stimulus": 937, "trial": 22, "rt": 828, "response": "Alpha"}, "23": {"stimulus": 1530, "trial": 23, "rt": 574, "response": "Alpha"}, "46": {"stimulus": 655, "trial": 46, "rt": 622, "response": "Alpha"}, "47": {"stimulus": 2062, "trial": 47, "rt": 438, "response": "Alpha"}, "44": {"stimulus": 312, "trial": 44, "rt": 1198, "response": "Alpha"}, "45": {"stimulus": 155, "trial": 45, "rt": 1502, "response": "Alpha"}, "28": {"stimulus": 1218, "trial": 28, "rt": 1175, "response": "Beta"}, "29": {"stimulus": 2249, "trial": 29, "rt": 573, "response": "Beta"}, "40": {"stimulus": 2437, "trial": 40, "rt": 470, "response": "Alpha"}, "41": {"stimulus": 1437, "trial": 41, "rt": 477, "response": "Beta"}, "1": {"stimulus": 718, "trial": 1, "rt": 1436, "response": "Alpha"}, "0": {"stimulus": 2218, "trial": 0, "rt": 4312, "response": "Beta"}, "3": {"stimulus": 2499, "trial": 3, "rt": 907, "response": "Alpha"}, "2": {"stimulus": 1937, "trial": 2, "rt": 1095, "response": "Beta"}, "5": {"stimulus": 374, "trial": 5, "rt": 1134, "response": "Alpha"}, "4": {"stimulus": 1999, "trial": 4, "rt": 1046, "response": "Beta"}, "7": {"stimulus": 2280, "trial": 7, "rt": 1422, "response": "Gamma"}, "6": {"stimulus": 1968, "trial": 6, "rt": 932, "response": "Beta"}, "9": {"stimulus": 1687, "trial": 9, "rt": 1177, "response": "Beta"}, "8": {"stimulus": 1062, "trial": 8, "rt": 1311, "response": "Alpha"}, "78": {"stimulus": 2155, "trial": 78, "rt": 555, "response": "Beta"}, "51": {"stimulus": 1343, "trial": 51, "rt": 18650, "response": "Gamma"}, "39": {"stimulus": 1312, "trial": 39, "rt": 757, "response": "Alpha"}, "65": {"stimulus": 187, "trial": 65, "rt": 454, "response": "Beta"}, "76": {"stimulus": 1780, "trial": 76, "rt": 1614, "response": "Beta"}, "75": {"stimulus": 2374, "trial": 75, "rt": 1031, "response": "Beta"}, "38": {"stimulus": 0, "trial": 38, "rt": 1100, "response": "Alpha"}, "73": {"stimulus": 1749, "trial": 73, "rt": 981, "response": "Beta"}, "72": {"stimulus": 405, "trial": 72, "rt": 1222, "response": "Alpha"}, "71": {"stimulus": 1718, "trial": 71, "rt": 492, "response": "Gamma"}, "70": {"stimulus": 1624, "trial": 70, "rt": 998, "response": "Gamma"}, "59": {"stimulus": 93, "trial": 59, "rt": 1100, "response": "Alpha"}, "79": {"stimulus": 530, "trial": 79, "rt": 873, "response": "Alpha"}, "58": {"stimulus": 1280, "trial": 58, "rt": 1251, "response": "Gamma"}, "11": {"stimulus": 2187, "trial": 11, "rt": 696, "response": "Alpha"}, "10": {"stimulus": 999, "trial": 10, "rt": 1330, "response": "Gamma"}, "13": {"stimulus": 2312, "trial": 13, "rt": 590, "response": "Beta"}, "12": {"stimulus": 1905, "trial": 12, "rt": 807, "response": "Beta"}, "15": {"stimulus": 624, "trial": 15, "rt": 1142, "response": "Alpha"}, "14": {"stimulus": 812, "trial": 14, "rt": 1116, "response": "Gamma"}, "17": {"stimulus": 62, "trial": 17, "rt": 1129, "response": "Gamma"}, "16": {"stimulus": 1124, "trial": 16, "rt": 533, "response": "Alpha"}, "19": {"stimulus": 1187, "trial": 19, "rt": 598, "response": "Alpha"}, "18": {"stimulus": 874, "trial": 18, "rt": 976, "response": "Alpha"}, "31": {"stimulus": 593, "trial": 31, "rt": 1156, "response": "Alpha"}, "30": {"stimulus": 2343, "trial": 30, "rt": 631, "response": "Beta"}, "37": {"stimulus": 2030, "trial": 37, "rt": 655, "response": "Beta"}, "36": {"stimulus": 1843, "trial": 36, "rt": 1116, "response": "Beta"}, "35": {"stimulus": 780, "trial": 35, "rt": 863, "response": "Gamma"}, "34": {"stimulus": 1374, "trial": 34, "rt": 772, "response": "Beta"}, "33": {"stimulus": 2468, "trial": 33, "rt": 877, "response": "Beta"}, "55": {"stimulus": 1030, "trial": 55, "rt": 2100, "response": "Gamma"}, "74": {"stimulus": 343, "trial": 74, "rt": 998, "response": "Alpha"}, "32": {"stimulus": 968, "trial": 32, "rt": 670, "response": "Alpha"}, "57": {"stimulus": 905, "trial": 57, "rt": 1190, "response": "Gamma"}, "50": {"stimulus": 218, "trial": 50, "rt": 454, "response": "Alpha"}}, "experiment": {"Paradigm": "TACL", "Stimuli": "Size-Color Squares", "Experiment": "Generating-Multiple-Categories"}, "submit": {"timeTotal": 435983, "age": "27", "comments": "good", "sex": "male"}}