{"info": {"finish": 1548164890681, "participant": 351, "exposed": true, "lab": false, "start": 1548164325342, "counterbalance": 3, "gentype": 2, "condition": "Row", "browser": {"platform": "Win32", "userAgent": "Mozilla/5.0 (Windows NT 10.0; Win64; x64; rv:64.0) Gecko/20100101 Firefox/64.0"}}, "observation": {"11": {"stimulus": 493, "trial": 11, "rt": 1662}, "10": {"stimulus": 582, "trial": 10, "rt": 2421}, "1": {"stimulus": 421, "trial": 1, "rt": 27832}, "0": {"stimulus": 612, "trial": 0, "rt": 3515}, "3": {"stimulus": 582, "trial": 3, "rt": 1525}, "2": {"stimulus": 493, "trial": 2, "rt": 2579}, "5": {"stimulus": 493, "trial": 5, "rt": 1634}, "4": {"stimulus": 421, "trial": 4, "rt": 2688}, "7": {"stimulus": 582, "trial": 7, "rt": 2478}, "6": {"stimulus": 612, "trial": 6, "rt": 1536}, "9": {"stimulus": 612, "trial": 9, "rt": 3953}, "8": {"stimulus": 421, "trial": 8, "rt": 1699}}, "generation": {"1": {"category": "Beta", "trial": 1, "stimulus": 2414, "rt": 6532}, "0": {"category": "Beta", "trial": 0, "stimulus": 2409, "rt": 25618}, "3": {"category": "Beta", "trial": 3, "stimulus": 2418, "rt": 6447}, "2": {"category": "Beta", "trial": 2, "stimulus": 2400, "rt": 7709}, "5": {"category": "Gamma", "trial": 5, "stimulus": 19, "rt": 10741}, "4": {"category": "Gamma", "trial": 4, "stimulus": 21, "rt": 18819}, "7": {"category": "Gamma", "trial": 7, "stimulus": 16, "rt": 8969}, "6": {"category": "Gamma", "trial": 6, "stimulus": 11, "rt": 37116}}, "generalization": {"56": {"stimulus": 312, "trial": 56, "rt": 1258, "response": "Gamma"}, "77": {"stimulus": 1905, "trial": 77, "rt": 718, "response": "Beta"}, "54": {"stimulus": 1530, "trial": 54, "rt": 722, "response": "Beta"}, "42": {"stimulus": 624, "trial": 42, "rt": 65738, "response": "Beta"}, "48": {"stimulus": 2187, "trial": 48, "rt": 1003, "response": "Beta"}, "43": {"stimulus": 1187, "trial": 43, "rt": 905, "response": "Beta"}, "60": {"stimulus": 62, "trial": 60, "rt": 630, "response": "Gamma"}, "61": {"stimulus": 1499, "trial": 61, "rt": 859, "response": "Beta"}, "62": {"stimulus": 2249, "trial": 62, "rt": 733, "response": "Beta"}, "63": {"stimulus": 718, "trial": 63, "rt": 1141, "response": "Alpha"}, "64": {"stimulus": 687, "trial": 64, "rt": 835, "response": "Alpha"}, "49": {"stimulus": 2343, "trial": 49, "rt": 889, "response": "Beta"}, "66": {"stimulus": 1968, "trial": 66, "rt": 876, "response": "Beta"}, "67": {"stimulus": 812, "trial": 67, "rt": 1049, "response": "Alpha"}, "68": {"stimulus": 1999, "trial": 68, "rt": 905, "response": "Beta"}, "69": {"stimulus": 2312, "trial": 69, "rt": 1406, "response": "Beta"}, "80": {"stimulus": 655, "trial": 80, "rt": 784, "response": "Alpha"}, "52": {"stimulus": 218, "trial": 52, "rt": 8075, "response": "Gamma"}, "53": {"stimulus": 1030, "trial": 53, "rt": 5129, "response": "Alpha"}, "24": {"stimulus": 1749, "trial": 24, "rt": 3022, "response": "Beta"}, "25": {"stimulus": 1593, "trial": 25, "rt": 739, "response": "Beta"}, "26": {"stimulus": 1937, "trial": 26, "rt": 929, "response": "Beta"}, "27": {"stimulus": 968, "trial": 27, "rt": 1335, "response": "Alpha"}, "20": {"stimulus": 499, "trial": 20, "rt": 1858, "response": "Alpha"}, "21": {"stimulus": 780, "trial": 21, "rt": 1074, "response": "Alpha"}, "22": {"stimulus": 2499, "trial": 22, "rt": 1179, "response": "Beta"}, "23": {"stimulus": 124, "trial": 23, "rt": 1178, "response": "Gamma"}, "46": {"stimulus": 468, "trial": 46, "rt": 2393, "response": "Alpha"}, "47": {"stimulus": 937, "trial": 47, "rt": 2955, "response": "Alpha"}, "44": {"stimulus": 93, "trial": 44, "rt": 1135, "response": "Gamma"}, "45": {"stimulus": 1062, "trial": 45, "rt": 3898, "response": "Alpha"}, "28": {"stimulus": 2030, "trial": 28, "rt": 1038, "response": "Beta"}, "29": {"stimulus": 1312, "trial": 29, "rt": 1083, "response": "Alpha"}, "40": {"stimulus": 374, "trial": 40, "rt": 1299, "response": "Gamma"}, "41": {"stimulus": 905, "trial": 41, "rt": 1292, "response": "Alpha"}, "1": {"stimulus": 1343, "trial": 1, "rt": 1021, "response": "Beta"}, "0": {"stimulus": 187, "trial": 0, "rt": 2443, "response": "Gamma"}, "3": {"stimulus": 2280, "trial": 3, "rt": 1034, "response": "Beta"}, "2": {"stimulus": 530, "trial": 2, "rt": 1050, "response": "Alpha"}, "5": {"stimulus": 2062, "trial": 5, "rt": 1250, "response": "Beta"}, "4": {"stimulus": 343, "trial": 4, "rt": 3323, "response": "Alpha"}, "7": {"stimulus": 1687, "trial": 7, "rt": 776, "response": "Beta"}, "6": {"stimulus": 280, "trial": 6, "rt": 1227, "response": "Alpha"}, "9": {"stimulus": 2405, "trial": 9, "rt": 1244, "response": "Beta"}, "8": {"stimulus": 1249, "trial": 8, "rt": 793, "response": "Beta"}, "78": {"stimulus": 1624, "trial": 78, "rt": 584, "response": "Beta"}, "51": {"stimulus": 1374, "trial": 51, "rt": 2242, "response": "Alpha"}, "39": {"stimulus": 1843, "trial": 39, "rt": 777, "response": "Beta"}, "65": {"stimulus": 1437, "trial": 65, "rt": 3107, "response": "Beta"}, "76": {"stimulus": 1812, "trial": 76, "rt": 525, "response": "Beta"}, "75": {"stimulus": 999, "trial": 75, "rt": 1349, "response": "Alpha"}, "38": {"stimulus": 1218, "trial": 38, "rt": 761, "response": "Alpha"}, "73": {"stimulus": 249, "trial": 73, "rt": 6311, "response": "Gamma"}, "72": {"stimulus": 1093, "trial": 72, "rt": 15553, "response": "Alpha"}, "71": {"stimulus": 1405, "trial": 71, "rt": 1904, "response": "Alpha"}, "70": {"stimulus": 155, "trial": 70, "rt": 1445, "response": "Gamma"}, "59": {"stimulus": 437, "trial": 59, "rt": 7786, "response": "Gamma"}, "79": {"stimulus": 874, "trial": 79, "rt": 934, "response": "Alpha"}, "58": {"stimulus": 1468, "trial": 58, "rt": 828, "response": "Beta"}, "11": {"stimulus": 2093, "trial": 11, "rt": 618, "response": "Beta"}, "10": {"stimulus": 1280, "trial": 10, "rt": 1042, "response": "Alpha"}, "13": {"stimulus": 843, "trial": 13, "rt": 2165, "response": "Alpha"}, "12": {"stimulus": 2374, "trial": 12, "rt": 901, "response": "Beta"}, "15": {"stimulus": 2155, "trial": 15, "rt": 778, "response": "Beta"}, "14": {"stimulus": 405, "trial": 14, "rt": 907, "response": "Alpha"}, "17": {"stimulus": 749, "trial": 17, "rt": 1203, "response": "Alpha"}, "16": {"stimulus": 1780, "trial": 16, "rt": 708, "response": "Beta"}, "19": {"stimulus": 2437, "trial": 19, "rt": 768, "response": "Beta"}, "18": {"stimulus": 1124, "trial": 18, "rt": 1859, "response": "Alpha"}, "31": {"stimulus": 2124, "trial": 31, "rt": 1634, "response": "Beta"}, "30": {"stimulus": 1562, "trial": 30, "rt": 981, "response": "Alpha"}, "37": {"stimulus": 1718, "trial": 37, "rt": 2522, "response": "Beta"}, "36": {"stimulus": 2468, "trial": 36, "rt": 2848, "response": "Beta"}, "35": {"stimulus": 30, "trial": 35, "rt": 941, "response": "Gamma"}, "34": {"stimulus": 593, "trial": 34, "rt": 1436, "response": "Alpha"}, "33": {"stimulus": 1874, "trial": 33, "rt": 15396, "response": "Beta"}, "55": {"stimulus": 2218, "trial": 55, "rt": 777, "response": "Beta"}, "74": {"stimulus": 0, "trial": 74, "rt": 951, "response": "Gamma"}, "32": {"stimulus": 562, "trial": 32, "rt": 1367, "response": "Alpha"}, "57": {"stimulus": 1155, "trial": 57, "rt": 9564, "response": "Beta"}, "50": {"stimulus": 1655, "trial": 50, "rt": 1177, "response": "Beta"}}, "experiment": {"Paradigm": "TACL", "Stimuli": "Size-Color Squares", "Experiment": "Generating-Multiple-Categories"}, "submit": {"timeTotal": 565701, "age": "28", "comments": "I thought it was really fun to try to discern which is gamma, alpha, and beta. I think overall that I did pretty well.", "sex": "Male"}}