{"info": {"finish": 1548169850372, "participant": 353, "exposed": true, "lab": false, "start": 1548169343875, "counterbalance": 1, "gentype": 1, "condition": "XOR", "browser": {"platform": "Win32", "userAgent": "Mozilla/5.0 (Windows NT 6.1) AppleWebKit/537.36 (KHTML, like Gecko) Chrome/71.0.3578.98 Safari/537.36"}}, "observation": {"11": {"stimulus": 818, "trial": 11, "rt": 1641}, "10": {"stimulus": 403, "trial": 10, "rt": 1877}, "1": {"stimulus": 818, "trial": 1, "rt": 7607}, "0": {"stimulus": 1479, "trial": 0, "rt": 5666}, "3": {"stimulus": 403, "trial": 3, "rt": 2299}, "2": {"stimulus": 1890, "trial": 2, "rt": 9018}, "5": {"stimulus": 1479, "trial": 5, "rt": 1647}, "4": {"stimulus": 403, "trial": 4, "rt": 1584}, "7": {"stimulus": 1890, "trial": 7, "rt": 8267}, "6": {"stimulus": 818, "trial": 6, "rt": 1739}, "9": {"stimulus": 1890, "trial": 9, "rt": 2821}, "8": {"stimulus": 1479, "trial": 8, "rt": 1930}}, "generation": {"1": {"category": "Beta", "trial": 1, "stimulus": 785, "rt": 10483}, "0": {"category": "Beta", "trial": 0, "stimulus": 626, "rt": 11938}, "3": {"category": "Beta", "trial": 3, "stimulus": 581, "rt": 85160}, "2": {"category": "Beta", "trial": 2, "stimulus": 872, "rt": 5537}, "5": {"category": "Beta", "trial": 5, "stimulus": 681, "rt": 5152}, "4": {"category": "Beta", "trial": 4, "stimulus": 383, "rt": 4117}, "7": {"category": "Beta", "trial": 7, "stimulus": 773, "rt": 137615}, "6": {"category": "Beta", "trial": 6, "stimulus": 825, "rt": 9870}}, "generalization": {"56": {"stimulus": 874, "trial": 56, "rt": 382, "response": "Alpha"}, "77": {"stimulus": 1718, "trial": 77, "rt": 231, "response": "Beta"}, "54": {"stimulus": 2405, "trial": 54, "rt": 666, "response": "Alpha"}, "42": {"stimulus": 687, "trial": 42, "rt": 269, "response": "Alpha"}, "48": {"stimulus": 62, "trial": 48, "rt": 773, "response": "Beta"}, "43": {"stimulus": 218, "trial": 43, "rt": 156, "response": "Alpha"}, "60": {"stimulus": 1343, "trial": 60, "rt": 446, "response": "Beta"}, "61": {"stimulus": 1749, "trial": 61, "rt": 193, "response": "Beta"}, "62": {"stimulus": 2343, "trial": 62, "rt": 326, "response": "Beta"}, "63": {"stimulus": 2062, "trial": 63, "rt": 558, "response": "Beta"}, "64": {"stimulus": 343, "trial": 64, "rt": 342, "response": "Alpha"}, "49": {"stimulus": 2312, "trial": 49, "rt": 227, "response": "Beta"}, "66": {"stimulus": 499, "trial": 66, "rt": 606, "response": "Alpha"}, "67": {"stimulus": 1187, "trial": 67, "rt": 143, "response": "Alpha"}, "68": {"stimulus": 593, "trial": 68, "rt": 418, "response": "Alpha"}, "69": {"stimulus": 1155, "trial": 69, "rt": 420, "response": "Alpha"}, "80": {"stimulus": 1843, "trial": 80, "rt": 368, "response": "Beta"}, "52": {"stimulus": 1655, "trial": 52, "rt": 207, "response": "Beta"}, "53": {"stimulus": 843, "trial": 53, "rt": 376, "response": "Alpha"}, "24": {"stimulus": 124, "trial": 24, "rt": 581, "response": "Beta"}, "25": {"stimulus": 1905, "trial": 25, "rt": 332, "response": "Alpha"}, "26": {"stimulus": 562, "trial": 26, "rt": 418, "response": "Beta"}, "27": {"stimulus": 0, "trial": 27, "rt": 133, "response": "Beta"}, "20": {"stimulus": 2030, "trial": 20, "rt": 328, "response": "Beta"}, "21": {"stimulus": 30, "trial": 21, "rt": 1658, "response": "Beta"}, "22": {"stimulus": 1468, "trial": 22, "rt": 431, "response": "Alpha"}, "23": {"stimulus": 1780, "trial": 23, "rt": 419, "response": "Beta"}, "46": {"stimulus": 1937, "trial": 46, "rt": 148, "response": "Alpha"}, "47": {"stimulus": 312, "trial": 47, "rt": 954, "response": "Beta"}, "44": {"stimulus": 968, "trial": 44, "rt": 219, "response": "Alpha"}, "45": {"stimulus": 749, "trial": 45, "rt": 203, "response": "Alpha"}, "28": {"stimulus": 280, "trial": 28, "rt": 207, "response": "Beta"}, "29": {"stimulus": 1874, "trial": 29, "rt": 306, "response": "Beta"}, "40": {"stimulus": 1999, "trial": 40, "rt": 345, "response": "Beta"}, "41": {"stimulus": 655, "trial": 41, "rt": 355, "response": "Beta"}, "1": {"stimulus": 2124, "trial": 1, "rt": 1291, "response": "Beta"}, "0": {"stimulus": 812, "trial": 0, "rt": 3878, "response": "Beta"}, "3": {"stimulus": 1968, "trial": 3, "rt": 803, "response": "Beta"}, "2": {"stimulus": 1593, "trial": 2, "rt": 431, "response": "Alpha"}, "5": {"stimulus": 2187, "trial": 5, "rt": 1304, "response": "Alpha"}, "4": {"stimulus": 1093, "trial": 4, "rt": 793, "response": "Alpha"}, "7": {"stimulus": 530, "trial": 7, "rt": 1029, "response": "Alpha"}, "6": {"stimulus": 437, "trial": 6, "rt": 1314, "response": "Alpha"}, "9": {"stimulus": 1812, "trial": 9, "rt": 368, "response": "Beta"}, "8": {"stimulus": 1218, "trial": 8, "rt": 394, "response": "Beta"}, "78": {"stimulus": 1562, "trial": 78, "rt": 144, "response": "Beta"}, "51": {"stimulus": 155, "trial": 51, "rt": 183, "response": "Beta"}, "39": {"stimulus": 374, "trial": 39, "rt": 355, "response": "Beta"}, "65": {"stimulus": 2218, "trial": 65, "rt": 243, "response": "Alpha"}, "76": {"stimulus": 2280, "trial": 76, "rt": 829, "response": "Beta"}, "75": {"stimulus": 1062, "trial": 75, "rt": 170, "response": "Beta"}, "38": {"stimulus": 1687, "trial": 38, "rt": 456, "response": "Beta"}, "73": {"stimulus": 249, "trial": 73, "rt": 136, "response": "Beta"}, "72": {"stimulus": 937, "trial": 72, "rt": 327, "response": "Beta"}, "71": {"stimulus": 468, "trial": 71, "rt": 431, "response": "Beta"}, "70": {"stimulus": 2468, "trial": 70, "rt": 341, "response": "Alpha"}, "59": {"stimulus": 93, "trial": 59, "rt": 803, "response": "Beta"}, "79": {"stimulus": 1530, "trial": 79, "rt": 380, "response": "Beta"}, "58": {"stimulus": 905, "trial": 58, "rt": 124, "response": "Alpha"}, "11": {"stimulus": 2499, "trial": 11, "rt": 180, "response": "Beta"}, "10": {"stimulus": 1374, "trial": 10, "rt": 768, "response": "Alpha"}, "13": {"stimulus": 1030, "trial": 13, "rt": 328, "response": "Beta"}, "12": {"stimulus": 1437, "trial": 12, "rt": 397, "response": "Alpha"}, "15": {"stimulus": 405, "trial": 15, "rt": 406, "response": "Beta"}, "14": {"stimulus": 2437, "trial": 14, "rt": 356, "response": "Alpha"}, "17": {"stimulus": 2249, "trial": 17, "rt": 344, "response": "Beta"}, "16": {"stimulus": 624, "trial": 16, "rt": 321, "response": "Beta"}, "19": {"stimulus": 1405, "trial": 19, "rt": 395, "response": "Alpha"}, "18": {"stimulus": 1499, "trial": 18, "rt": 219, "response": "Alpha"}, "31": {"stimulus": 187, "trial": 31, "rt": 282, "response": "Alpha"}, "30": {"stimulus": 999, "trial": 30, "rt": 295, "response": "Beta"}, "37": {"stimulus": 2093, "trial": 37, "rt": 17685, "response": "Beta"}, "36": {"stimulus": 1249, "trial": 36, "rt": 167, "response": "Beta"}, "35": {"stimulus": 1624, "trial": 35, "rt": 259, "response": "Alpha"}, "34": {"stimulus": 1124, "trial": 34, "rt": 342, "response": "Beta"}, "33": {"stimulus": 1280, "trial": 33, "rt": 320, "response": "Alpha"}, "55": {"stimulus": 718, "trial": 55, "rt": 108, "response": "Alpha"}, "74": {"stimulus": 1312, "trial": 74, "rt": 232, "response": "Beta"}, "32": {"stimulus": 2155, "trial": 32, "rt": 81, "response": "Beta"}, "57": {"stimulus": 2374, "trial": 57, "rt": 151, "response": "Alpha"}, "50": {"stimulus": 780, "trial": 50, "rt": 131, "response": "Beta"}}, "experiment": {"Paradigm": "TACL", "Stimuli": "Size-Color Squares", "Experiment": "Generating-Multiple-Categories"}, "submit": {"timeTotal": 508912, "age": "30", "comments": "very good", "sex": "male"}}