{"info": {"finish": 1548171270116, "participant": 354, "exposed": true, "lab": false, "start": 1548169946965, "counterbalance": 0, "gentype": 1, "condition": "XOR", "browser": {"platform": "Linux armv8l", "userAgent": "Mozilla/5.0 (Linux; Android 8.0.0; SM-G930VL) AppleWebKit/537.36 (KHTML, like Gecko) Chrome/71.0.3578.99 Mobile Safari/537.36"}}, "observation": {"11": {"stimulus": 818, "trial": 11, "rt": 6299}, "10": {"stimulus": 1890, "trial": 10, "rt": 2001}, "1": {"stimulus": 818, "trial": 1, "rt": 2865}, "0": {"stimulus": 1890, "trial": 0, "rt": 3505}, "3": {"stimulus": 403, "trial": 3, "rt": 5539}, "2": {"stimulus": 1479, "trial": 2, "rt": 3008}, "5": {"stimulus": 1890, "trial": 5, "rt": 2878}, "4": {"stimulus": 403, "trial": 4, "rt": 6619}, "7": {"stimulus": 1479, "trial": 7, "rt": 1937}, "6": {"stimulus": 818, "trial": 6, "rt": 1878}, "9": {"stimulus": 1479, "trial": 9, "rt": 1774}, "8": {"stimulus": 403, "trial": 8, "rt": 1952}}, "generation": {"1": {"category": "Beta", "trial": 1, "stimulus": 2450, "rt": 12439}, "0": {"category": "Beta", "trial": 0, "stimulus": 49, "rt": 108794}, "3": {"category": "Beta", "trial": 3, "stimulus": 1700, "rt": 5547}, "2": {"category": "Beta", "trial": 2, "stimulus": 37, "rt": 40157}, "5": {"category": "Beta", "trial": 5, "stimulus": 2451, "rt": 11198}, "4": {"category": "Beta", "trial": 4, "stimulus": 2352, "rt": 25822}, "7": {"category": "Beta", "trial": 7, "stimulus": 141, "rt": 8673}, "6": {"category": "Beta", "trial": 6, "stimulus": 2005, "rt": 21912}}, "generalization": {"56": {"stimulus": 1624, "trial": 56, "rt": 2119, "response": "Alpha"}, "77": {"stimulus": 30, "trial": 77, "rt": 1700, "response": "Beta"}, "54": {"stimulus": 374, "trial": 54, "rt": 1500, "response": "Beta"}, "42": {"stimulus": 93, "trial": 42, "rt": 1242, "response": "Beta"}, "48": {"stimulus": 2093, "trial": 48, "rt": 1044, "response": "Alpha"}, "43": {"stimulus": 437, "trial": 43, "rt": 985, "response": "Beta"}, "60": {"stimulus": 1312, "trial": 60, "rt": 1874, "response": "Beta"}, "61": {"stimulus": 1280, "trial": 61, "rt": 2005, "response": "Beta"}, "62": {"stimulus": 843, "trial": 62, "rt": 2366, "response": "Beta"}, "63": {"stimulus": 1530, "trial": 63, "rt": 1321, "response": "Alpha"}, "64": {"stimulus": 749, "trial": 64, "rt": 2086, "response": "Beta"}, "49": {"stimulus": 530, "trial": 49, "rt": 1339, "response": "Beta"}, "66": {"stimulus": 1343, "trial": 66, "rt": 1887, "response": "Alpha"}, "67": {"stimulus": 312, "trial": 67, "rt": 1489, "response": "Alpha"}, "68": {"stimulus": 2155, "trial": 68, "rt": 3027, "response": "Beta"}, "69": {"stimulus": 1593, "trial": 69, "rt": 41060, "response": "Beta"}, "80": {"stimulus": 1155, "trial": 80, "rt": 1289, "response": "Beta"}, "52": {"stimulus": 937, "trial": 52, "rt": 1537, "response": "Beta"}, "53": {"stimulus": 1999, "trial": 53, "rt": 1024, "response": "Alpha"}, "24": {"stimulus": 593, "trial": 24, "rt": 2313, "response": "Beta"}, "25": {"stimulus": 1843, "trial": 25, "rt": 1511, "response": "Alpha"}, "26": {"stimulus": 155, "trial": 26, "rt": 1388, "response": "Alpha"}, "27": {"stimulus": 1030, "trial": 27, "rt": 2350, "response": "Alpha"}, "20": {"stimulus": 1187, "trial": 20, "rt": 1339, "response": "Beta"}, "21": {"stimulus": 2312, "trial": 21, "rt": 5823, "response": "Beta"}, "22": {"stimulus": 718, "trial": 22, "rt": 2292, "response": "Alpha"}, "23": {"stimulus": 874, "trial": 23, "rt": 1066, "response": "Alpha"}, "46": {"stimulus": 2124, "trial": 46, "rt": 1199, "response": "Alpha"}, "47": {"stimulus": 1937, "trial": 47, "rt": 956, "response": "Alpha"}, "44": {"stimulus": 1218, "trial": 44, "rt": 4016, "response": "Alpha"}, "45": {"stimulus": 1687, "trial": 45, "rt": 3738, "response": "Alpha"}, "28": {"stimulus": 2343, "trial": 28, "rt": 1506, "response": "Alpha"}, "29": {"stimulus": 405, "trial": 29, "rt": 3256, "response": "Alpha"}, "40": {"stimulus": 1968, "trial": 40, "rt": 2144, "response": "Alpha"}, "41": {"stimulus": 280, "trial": 41, "rt": 1644, "response": "Beta"}, "1": {"stimulus": 499, "trial": 1, "rt": 4698, "response": "Beta"}, "0": {"stimulus": 1468, "trial": 0, "rt": 3824, "response": "Alpha"}, "3": {"stimulus": 1780, "trial": 3, "rt": 1574, "response": "Alpha"}, "2": {"stimulus": 124, "trial": 2, "rt": 1540, "response": "Beta"}, "5": {"stimulus": 2030, "trial": 5, "rt": 1660, "response": "Alpha"}, "4": {"stimulus": 1124, "trial": 4, "rt": 3632, "response": "Alpha"}, "7": {"stimulus": 343, "trial": 7, "rt": 4335, "response": "Beta"}, "6": {"stimulus": 1749, "trial": 6, "rt": 5620, "response": "Beta"}, "9": {"stimulus": 968, "trial": 9, "rt": 2673, "response": "Beta"}, "8": {"stimulus": 1499, "trial": 8, "rt": 6522, "response": "Alpha"}, "78": {"stimulus": 1874, "trial": 78, "rt": 1929, "response": "Alpha"}, "51": {"stimulus": 2187, "trial": 51, "rt": 51962, "response": "Alpha"}, "39": {"stimulus": 249, "trial": 39, "rt": 2137, "response": "Beta"}, "65": {"stimulus": 780, "trial": 65, "rt": 2824, "response": "Beta"}, "76": {"stimulus": 62, "trial": 76, "rt": 1624, "response": "Alpha"}, "75": {"stimulus": 624, "trial": 75, "rt": 4871, "response": "Beta"}, "38": {"stimulus": 812, "trial": 38, "rt": 5384, "response": "Beta"}, "73": {"stimulus": 468, "trial": 73, "rt": 1601, "response": "Beta"}, "72": {"stimulus": 655, "trial": 72, "rt": 2302, "response": "Alpha"}, "71": {"stimulus": 218, "trial": 71, "rt": 1909, "response": "Beta"}, "70": {"stimulus": 1062, "trial": 70, "rt": 2203, "response": "Alpha"}, "59": {"stimulus": 562, "trial": 59, "rt": 2363, "response": "Alpha"}, "79": {"stimulus": 1437, "trial": 79, "rt": 972, "response": "Alpha"}, "58": {"stimulus": 2437, "trial": 58, "rt": 2651, "response": "Alpha"}, "11": {"stimulus": 1718, "trial": 11, "rt": 1697, "response": "Alpha"}, "10": {"stimulus": 0, "trial": 10, "rt": 1862, "response": "Alpha"}, "13": {"stimulus": 1374, "trial": 13, "rt": 4269, "response": "Beta"}, "12": {"stimulus": 2249, "trial": 12, "rt": 1910, "response": "Alpha"}, "15": {"stimulus": 1655, "trial": 15, "rt": 914, "response": "Alpha"}, "14": {"stimulus": 1562, "trial": 14, "rt": 2542, "response": "Alpha"}, "17": {"stimulus": 1812, "trial": 17, "rt": 6935, "response": "Beta"}, "16": {"stimulus": 187, "trial": 16, "rt": 1918, "response": "Beta"}, "19": {"stimulus": 1093, "trial": 19, "rt": 22354, "response": "Beta"}, "18": {"stimulus": 905, "trial": 18, "rt": 3879, "response": "Alpha"}, "31": {"stimulus": 2218, "trial": 31, "rt": 2291, "response": "Beta"}, "30": {"stimulus": 2280, "trial": 30, "rt": 1595, "response": "Beta"}, "37": {"stimulus": 2062, "trial": 37, "rt": 2550, "response": "Alpha"}, "36": {"stimulus": 1405, "trial": 36, "rt": 1964, "response": "Beta"}, "35": {"stimulus": 2468, "trial": 35, "rt": 1035, "response": "Alpha"}, "34": {"stimulus": 2374, "trial": 34, "rt": 1112, "response": "Alpha"}, "33": {"stimulus": 2499, "trial": 33, "rt": 1479, "response": "Alpha"}, "55": {"stimulus": 999, "trial": 55, "rt": 1879, "response": "Beta"}, "74": {"stimulus": 1249, "trial": 74, "rt": 4335, "response": "Beta"}, "32": {"stimulus": 2405, "trial": 32, "rt": 2535, "response": "Beta"}, "57": {"stimulus": 687, "trial": 57, "rt": 1523, "response": "Alpha"}, "50": {"stimulus": 1905, "trial": 50, "rt": 3497, "response": "Beta"}}, "experiment": {"Paradigm": "TACL", "Stimuli": "Size-Color Squares", "Experiment": "Generating-Multiple-Categories"}, "submit": {"timeTotal": 1323389, "age": "40", "comments": "Very interesting!", "sex": "Female "}}