{"info": {"finish": 1548170350941, "participant": 355, "exposed": true, "lab": false, "start": 1548169959046, "counterbalance": 2, "gentype": 1, "condition": "XOR", "browser": {"platform": "Linux aarch64", "userAgent": "Mozilla/5.0 (X11; CrOS aarch64 11151.113.0) AppleWebKit/537.36 (KHTML, like Gecko) Chrome/71.0.3578.127 Safari/537.36"}}, "observation": {"11": {"stimulus": 1890, "trial": 11, "rt": 1502}, "10": {"stimulus": 1479, "trial": 10, "rt": 1532}, "1": {"stimulus": 818, "trial": 1, "rt": 3499}, "0": {"stimulus": 403, "trial": 0, "rt": 3473}, "3": {"stimulus": 1890, "trial": 3, "rt": 2157}, "2": {"stimulus": 1479, "trial": 2, "rt": 2916}, "5": {"stimulus": 818, "trial": 5, "rt": 2306}, "4": {"stimulus": 403, "trial": 4, "rt": 3089}, "7": {"stimulus": 1890, "trial": 7, "rt": 1203}, "6": {"stimulus": 1479, "trial": 6, "rt": 1802}, "9": {"stimulus": 818, "trial": 9, "rt": 1619}, "8": {"stimulus": 403, "trial": 8, "rt": 2187}}, "generation": {"1": {"category": "Beta", "trial": 1, "stimulus": 2292, "rt": 9532}, "0": {"category": "Beta", "trial": 0, "stimulus": 2499, "rt": 16647}, "3": {"category": "Beta", "trial": 3, "stimulus": 2450, "rt": 8095}, "2": {"category": "Beta", "trial": 2, "stimulus": 1943, "rt": 13445}, "5": {"category": "Beta", "trial": 5, "stimulus": 1850, "rt": 11496}, "4": {"category": "Beta", "trial": 4, "stimulus": 2100, "rt": 8647}, "7": {"category": "Beta", "trial": 7, "stimulus": 449, "rt": 7093}, "6": {"category": "Beta", "trial": 6, "stimulus": 49, "rt": 8555}}, "generalization": {"56": {"stimulus": 1218, "trial": 56, "rt": 1677, "response": "Beta"}, "77": {"stimulus": 499, "trial": 77, "rt": 1567, "response": "Beta"}, "54": {"stimulus": 1124, "trial": 54, "rt": 1515, "response": "Beta"}, "42": {"stimulus": 1687, "trial": 42, "rt": 4386, "response": "Alpha"}, "48": {"stimulus": 249, "trial": 48, "rt": 1516, "response": "Beta"}, "43": {"stimulus": 374, "trial": 43, "rt": 903, "response": "Alpha"}, "60": {"stimulus": 2499, "trial": 60, "rt": 1415, "response": "Alpha"}, "61": {"stimulus": 999, "trial": 61, "rt": 1027, "response": "Beta"}, "62": {"stimulus": 2155, "trial": 62, "rt": 1057, "response": "Beta"}, "63": {"stimulus": 2062, "trial": 63, "rt": 837, "response": "Beta"}, "64": {"stimulus": 93, "trial": 64, "rt": 1470, "response": "Beta"}, "49": {"stimulus": 1843, "trial": 49, "rt": 1645, "response": "Alpha"}, "66": {"stimulus": 343, "trial": 66, "rt": 1600, "response": "Beta"}, "67": {"stimulus": 687, "trial": 67, "rt": 3026, "response": "Alpha"}, "68": {"stimulus": 2218, "trial": 68, "rt": 1102, "response": "Beta"}, "69": {"stimulus": 1312, "trial": 69, "rt": 1421, "response": "Beta"}, "80": {"stimulus": 2374, "trial": 80, "rt": 1235, "response": "Beta"}, "52": {"stimulus": 624, "trial": 52, "rt": 1086, "response": "Alpha"}, "53": {"stimulus": 2187, "trial": 53, "rt": 1879, "response": "Alpha"}, "24": {"stimulus": 874, "trial": 24, "rt": 1311, "response": "Alpha"}, "25": {"stimulus": 1280, "trial": 25, "rt": 3109, "response": "Alpha"}, "26": {"stimulus": 1374, "trial": 26, "rt": 1328, "response": "Alpha"}, "27": {"stimulus": 1437, "trial": 27, "rt": 3005, "response": "Alpha"}, "20": {"stimulus": 1749, "trial": 20, "rt": 1974, "response": "Alpha"}, "21": {"stimulus": 718, "trial": 21, "rt": 2154, "response": "Alpha"}, "22": {"stimulus": 1062, "trial": 22, "rt": 1232, "response": "Alpha"}, "23": {"stimulus": 780, "trial": 23, "rt": 1984, "response": "Alpha"}, "46": {"stimulus": 1468, "trial": 46, "rt": 1548, "response": "Beta"}, "47": {"stimulus": 1999, "trial": 47, "rt": 1266, "response": "Alpha"}, "44": {"stimulus": 1780, "trial": 44, "rt": 1598, "response": "Beta"}, "45": {"stimulus": 2249, "trial": 45, "rt": 1226, "response": "Alpha"}, "28": {"stimulus": 1812, "trial": 28, "rt": 905, "response": "Beta"}, "29": {"stimulus": 1624, "trial": 29, "rt": 1053, "response": "Beta"}, "40": {"stimulus": 1093, "trial": 40, "rt": 1659, "response": "Alpha"}, "41": {"stimulus": 280, "trial": 41, "rt": 2089, "response": "Alpha"}, "1": {"stimulus": 812, "trial": 1, "rt": 2328, "response": "Alpha"}, "0": {"stimulus": 2468, "trial": 0, "rt": 2134, "response": "Beta"}, "3": {"stimulus": 1405, "trial": 3, "rt": 1541, "response": "Beta"}, "2": {"stimulus": 1593, "trial": 2, "rt": 1883, "response": "Alpha"}, "5": {"stimulus": 124, "trial": 5, "rt": 1750, "response": "Alpha"}, "4": {"stimulus": 312, "trial": 4, "rt": 1175, "response": "Alpha"}, "7": {"stimulus": 2312, "trial": 7, "rt": 1069, "response": "Beta"}, "6": {"stimulus": 30, "trial": 6, "rt": 2605, "response": "Alpha"}, "9": {"stimulus": 1718, "trial": 9, "rt": 1989, "response": "Beta"}, "8": {"stimulus": 1655, "trial": 8, "rt": 1192, "response": "Beta"}, "78": {"stimulus": 218, "trial": 78, "rt": 851, "response": "Alpha"}, "51": {"stimulus": 468, "trial": 51, "rt": 1601, "response": "Alpha"}, "39": {"stimulus": 1937, "trial": 39, "rt": 3104, "response": "Beta"}, "65": {"stimulus": 62, "trial": 65, "rt": 1077, "response": "Alpha"}, "76": {"stimulus": 2405, "trial": 76, "rt": 1224, "response": "Beta"}, "75": {"stimulus": 593, "trial": 75, "rt": 1424, "response": "Beta"}, "38": {"stimulus": 905, "trial": 38, "rt": 1586, "response": "Alpha"}, "73": {"stimulus": 1249, "trial": 73, "rt": 1720, "response": "Alpha"}, "72": {"stimulus": 562, "trial": 72, "rt": 1047, "response": "Alpha"}, "71": {"stimulus": 843, "trial": 71, "rt": 1439, "response": "Beta"}, "70": {"stimulus": 530, "trial": 70, "rt": 1729, "response": "Alpha"}, "59": {"stimulus": 2030, "trial": 59, "rt": 1622, "response": "Alpha"}, "79": {"stimulus": 187, "trial": 79, "rt": 1985, "response": "Beta"}, "58": {"stimulus": 968, "trial": 58, "rt": 1220, "response": "Alpha"}, "11": {"stimulus": 437, "trial": 11, "rt": 1536, "response": "Beta"}, "10": {"stimulus": 1187, "trial": 10, "rt": 1043, "response": "Alpha"}, "13": {"stimulus": 1968, "trial": 13, "rt": 1270, "response": "Beta"}, "12": {"stimulus": 1030, "trial": 12, "rt": 1131, "response": "Alpha"}, "15": {"stimulus": 2437, "trial": 15, "rt": 1374, "response": "Beta"}, "14": {"stimulus": 1530, "trial": 14, "rt": 1361, "response": "Alpha"}, "17": {"stimulus": 1905, "trial": 17, "rt": 2152, "response": "Beta"}, "16": {"stimulus": 749, "trial": 16, "rt": 1010, "response": "Alpha"}, "19": {"stimulus": 1499, "trial": 19, "rt": 1225, "response": "Alpha"}, "18": {"stimulus": 1343, "trial": 18, "rt": 1936, "response": "Alpha"}, "31": {"stimulus": 2343, "trial": 31, "rt": 1465, "response": "Alpha"}, "30": {"stimulus": 1562, "trial": 30, "rt": 1400, "response": "Beta"}, "37": {"stimulus": 2280, "trial": 37, "rt": 1235, "response": "Beta"}, "36": {"stimulus": 0, "trial": 36, "rt": 1143, "response": "Alpha"}, "35": {"stimulus": 2124, "trial": 35, "rt": 2332, "response": "Beta"}, "34": {"stimulus": 405, "trial": 34, "rt": 928, "response": "Alpha"}, "33": {"stimulus": 655, "trial": 33, "rt": 974, "response": "Alpha"}, "55": {"stimulus": 155, "trial": 55, "rt": 892, "response": "Alpha"}, "74": {"stimulus": 1874, "trial": 74, "rt": 1549, "response": "Beta"}, "32": {"stimulus": 1155, "trial": 32, "rt": 2521, "response": "Beta"}, "57": {"stimulus": 937, "trial": 57, "rt": 2012, "response": "Alpha"}, "50": {"stimulus": 2093, "trial": 50, "rt": 2157, "response": "Alpha"}}, "experiment": {"Paradigm": "TACL", "Stimuli": "Size-Color Squares", "Experiment": "Generating-Multiple-Categories"}, "submit": {"timeTotal": 392282, "age": "41", "comments": "interesting and fun", "sex": "Female"}}