{"info": {"finish": 1548170915255, "participant": 359, "exposed": true, "lab": false, "start": 1548170557839, "counterbalance": 7, "gentype": 0, "condition": "XOR", "browser": {"platform": "Win32", "userAgent": "Mozilla/5.0 (Windows NT 10.0; Win64; x64) AppleWebKit/537.36 (KHTML, like Gecko) Chrome/71.0.3578.98 Safari/537.36"}}, "observation": {"11": {"stimulus": 1890, "trial": 11, "rt": 3120}, "10": {"stimulus": 1479, "trial": 10, "rt": 2734}, "1": {"stimulus": 1890, "trial": 1, "rt": 3734}, "0": {"stimulus": 403, "trial": 0, "rt": 3257}, "3": {"stimulus": 1479, "trial": 3, "rt": 2511}, "2": {"stimulus": 818, "trial": 2, "rt": 2847}, "5": {"stimulus": 403, "trial": 5, "rt": 2326}, "4": {"stimulus": 1479, "trial": 4, "rt": 3869}, "7": {"stimulus": 1890, "trial": 7, "rt": 2167}, "6": {"stimulus": 818, "trial": 6, "rt": 1702}, "9": {"stimulus": 403, "trial": 9, "rt": 2142}, "8": {"stimulus": 818, "trial": 8, "rt": 2223}}, "generation": {"1": {"category": "Not-Alpha", "trial": 1, "stimulus": 2450, "rt": 10732}, "0": {"category": "Not-Alpha", "trial": 0, "stimulus": 49, "rt": 21245}, "3": {"category": "Not-Alpha", "trial": 3, "stimulus": 16, "rt": 8902}, "2": {"category": "Not-Alpha", "trial": 2, "stimulus": 1190, "rt": 10038}, "5": {"category": "Not-Alpha", "trial": 5, "stimulus": 2499, "rt": 7750}, "4": {"category": "Not-Alpha", "trial": 4, "stimulus": 1199, "rt": 7205}, "7": {"category": "Not-Alpha", "trial": 7, "stimulus": 749, "rt": 5613}, "6": {"category": "Not-Alpha", "trial": 6, "stimulus": 138, "rt": 8158}}, "generalization": {"56": {"stimulus": 155, "trial": 56, "rt": 1932, "response": "Alpha"}, "77": {"stimulus": 312, "trial": 77, "rt": 1437, "response": "Beta"}, "54": {"stimulus": 780, "trial": 54, "rt": 1199, "response": "Beta"}, "42": {"stimulus": 468, "trial": 42, "rt": 1022, "response": "Beta"}, "48": {"stimulus": 280, "trial": 48, "rt": 574, "response": "Beta"}, "43": {"stimulus": 2374, "trial": 43, "rt": 734, "response": "Beta"}, "60": {"stimulus": 1937, "trial": 60, "rt": 734, "response": "Alpha"}, "61": {"stimulus": 1718, "trial": 61, "rt": 574, "response": "Beta"}, "62": {"stimulus": 1468, "trial": 62, "rt": 1078, "response": "Alpha"}, "63": {"stimulus": 593, "trial": 63, "rt": 479, "response": "Alpha"}, "64": {"stimulus": 843, "trial": 64, "rt": 895, "response": "Beta"}, "49": {"stimulus": 624, "trial": 49, "rt": 1181, "response": "Alpha"}, "66": {"stimulus": 1030, "trial": 66, "rt": 648, "response": "Alpha"}, "67": {"stimulus": 1280, "trial": 67, "rt": 1030, "response": "Beta"}, "68": {"stimulus": 1374, "trial": 68, "rt": 759, "response": "Alpha"}, "69": {"stimulus": 1843, "trial": 69, "rt": 1133, "response": "Beta"}, "80": {"stimulus": 1624, "trial": 80, "rt": 822, "response": "Alpha"}, "52": {"stimulus": 1312, "trial": 52, "rt": 1007, "response": "Alpha"}, "53": {"stimulus": 718, "trial": 53, "rt": 743, "response": "Alpha"}, "24": {"stimulus": 437, "trial": 24, "rt": 1550, "response": "Beta"}, "25": {"stimulus": 1187, "trial": 25, "rt": 934, "response": "Alpha"}, "26": {"stimulus": 2187, "trial": 26, "rt": 623, "response": "Alpha"}, "27": {"stimulus": 2312, "trial": 27, "rt": 807, "response": "Alpha"}, "20": {"stimulus": 749, "trial": 20, "rt": 863, "response": "Alpha"}, "21": {"stimulus": 1343, "trial": 21, "rt": 3048, "response": "Beta"}, "22": {"stimulus": 499, "trial": 22, "rt": 3058, "response": "Beta"}, "23": {"stimulus": 1780, "trial": 23, "rt": 878, "response": "Alpha"}, "46": {"stimulus": 905, "trial": 46, "rt": 536, "response": "Alpha"}, "47": {"stimulus": 1562, "trial": 47, "rt": 638, "response": "Alpha"}, "44": {"stimulus": 968, "trial": 44, "rt": 791, "response": "Alpha"}, "45": {"stimulus": 1155, "trial": 45, "rt": 718, "response": "Alpha"}, "28": {"stimulus": 1749, "trial": 28, "rt": 1127, "response": "Beta"}, "29": {"stimulus": 1405, "trial": 29, "rt": 942, "response": "Alpha"}, "40": {"stimulus": 937, "trial": 40, "rt": 944, "response": "Alpha"}, "41": {"stimulus": 2062, "trial": 41, "rt": 824, "response": "Alpha"}, "1": {"stimulus": 2124, "trial": 1, "rt": 1917, "response": "Alpha"}, "0": {"stimulus": 1530, "trial": 0, "rt": 2475, "response": "Alpha"}, "3": {"stimulus": 2280, "trial": 3, "rt": 1654, "response": "Alpha"}, "2": {"stimulus": 1249, "trial": 2, "rt": 1333, "response": "Beta"}, "5": {"stimulus": 1437, "trial": 5, "rt": 2598, "response": "Beta"}, "4": {"stimulus": 999, "trial": 4, "rt": 1182, "response": "Beta"}, "7": {"stimulus": 1062, "trial": 7, "rt": 775, "response": "Alpha"}, "6": {"stimulus": 218, "trial": 6, "rt": 822, "response": "Alpha"}, "9": {"stimulus": 1999, "trial": 9, "rt": 1038, "response": "Alpha"}, "8": {"stimulus": 187, "trial": 8, "rt": 1303, "response": "Beta"}, "78": {"stimulus": 2030, "trial": 78, "rt": 807, "response": "Alpha"}, "51": {"stimulus": 93, "trial": 51, "rt": 821, "response": "Beta"}, "39": {"stimulus": 2405, "trial": 39, "rt": 1062, "response": "Alpha"}, "65": {"stimulus": 1655, "trial": 65, "rt": 1014, "response": "Alpha"}, "76": {"stimulus": 2155, "trial": 76, "rt": 927, "response": "Alpha"}, "75": {"stimulus": 30, "trial": 75, "rt": 952, "response": "Alpha"}, "38": {"stimulus": 562, "trial": 38, "rt": 1102, "response": "Beta"}, "73": {"stimulus": 1124, "trial": 73, "rt": 527, "response": "Alpha"}, "72": {"stimulus": 62, "trial": 72, "rt": 622, "response": "Alpha"}, "71": {"stimulus": 530, "trial": 71, "rt": 1189, "response": "Alpha"}, "70": {"stimulus": 1593, "trial": 70, "rt": 575, "response": "Beta"}, "59": {"stimulus": 2499, "trial": 59, "rt": 1167, "response": "Beta"}, "79": {"stimulus": 2218, "trial": 79, "rt": 710, "response": "Alpha"}, "58": {"stimulus": 1968, "trial": 58, "rt": 710, "response": "Alpha"}, "11": {"stimulus": 812, "trial": 11, "rt": 854, "response": "Alpha"}, "10": {"stimulus": 124, "trial": 10, "rt": 1838, "response": "Beta"}, "13": {"stimulus": 2093, "trial": 13, "rt": 1206, "response": "Beta"}, "12": {"stimulus": 1218, "trial": 12, "rt": 990, "response": "Beta"}, "15": {"stimulus": 874, "trial": 15, "rt": 2118, "response": "Beta"}, "14": {"stimulus": 687, "trial": 14, "rt": 615, "response": "Alpha"}, "17": {"stimulus": 405, "trial": 17, "rt": 1214, "response": "Beta"}, "16": {"stimulus": 374, "trial": 16, "rt": 1141, "response": "Beta"}, "19": {"stimulus": 343, "trial": 19, "rt": 3006, "response": "Beta"}, "18": {"stimulus": 1499, "trial": 18, "rt": 1430, "response": "Alpha"}, "31": {"stimulus": 1874, "trial": 31, "rt": 1134, "response": "Alpha"}, "30": {"stimulus": 2468, "trial": 30, "rt": 878, "response": "Alpha"}, "37": {"stimulus": 1812, "trial": 37, "rt": 1126, "response": "Alpha"}, "36": {"stimulus": 2249, "trial": 36, "rt": 1430, "response": "Beta"}, "35": {"stimulus": 249, "trial": 35, "rt": 591, "response": "Alpha"}, "34": {"stimulus": 2343, "trial": 34, "rt": 1820, "response": "Beta"}, "33": {"stimulus": 1905, "trial": 33, "rt": 566, "response": "Alpha"}, "55": {"stimulus": 2437, "trial": 55, "rt": 1902, "response": "Alpha"}, "74": {"stimulus": 655, "trial": 74, "rt": 662, "response": "Beta"}, "32": {"stimulus": 1687, "trial": 32, "rt": 1199, "response": "Beta"}, "57": {"stimulus": 1093, "trial": 57, "rt": 701, "response": "Alpha"}, "50": {"stimulus": 0, "trial": 50, "rt": 1182, "response": "Alpha"}}, "experiment": {"Paradigm": "TACL", "Stimuli": "Size-Color Squares", "Experiment": "Generating-Multiple-Categories"}, "submit": {"timeTotal": 357696, "age": "40", "comments": "Interesting!", "sex": "female"}}