{"info": {"finish": 1548044688317, "participant": 37, "exposed": true, "lab": false, "start": 1548043587398, "counterbalance": 5, "gentype": 2, "condition": "XOR", "browser": {"platform": "Win32", "userAgent": "Mozilla/5.0 (Windows NT 6.1) AppleWebKit/537.36 (KHTML, like Gecko) Chrome/71.0.3578.98 Safari/537.36"}}, "observation": {"11": {"stimulus": 403, "trial": 11, "rt": 1610}, "10": {"stimulus": 818, "trial": 10, "rt": 1484}, "1": {"stimulus": 1890, "trial": 1, "rt": 1527}, "0": {"stimulus": 403, "trial": 0, "rt": 5954}, "3": {"stimulus": 1479, "trial": 3, "rt": 1551}, "2": {"stimulus": 818, "trial": 2, "rt": 1520}, "5": {"stimulus": 403, "trial": 5, "rt": 1828}, "4": {"stimulus": 818, "trial": 4, "rt": 1927}, "7": {"stimulus": 1890, "trial": 7, "rt": 1502}, "6": {"stimulus": 1479, "trial": 6, "rt": 1468}, "9": {"stimulus": 1890, "trial": 9, "rt": 1514}, "8": {"stimulus": 1479, "trial": 8, "rt": 1498}}, "generation": {"1": {"category": "Beta", "trial": 1, "stimulus": 2498, "rt": 4050}, "0": {"category": "Beta", "trial": 0, "stimulus": 1899, "rt": 11673}, "3": {"category": "Beta", "trial": 3, "stimulus": 1994, "rt": 4329}, "2": {"category": "Beta", "trial": 2, "stimulus": 2344, "rt": 4526}, "5": {"category": "Gamma", "trial": 5, "stimulus": 2092, "rt": 3667}, "4": {"category": "Gamma", "trial": 4, "stimulus": 1890, "rt": 5968}, "7": {"category": "Gamma", "trial": 7, "stimulus": 2191, "rt": 5732}, "6": {"category": "Gamma", "trial": 6, "stimulus": 2190, "rt": 5019}}, "generalization": {"56": {"stimulus": 155, "trial": 56, "rt": 1769, "response": "Beta"}, "77": {"stimulus": 687, "trial": 77, "rt": 556, "response": "Beta"}, "54": {"stimulus": 343, "trial": 54, "rt": 1200, "response": "Beta"}, "42": {"stimulus": 905, "trial": 42, "rt": 1091, "response": "Alpha"}, "48": {"stimulus": 999, "trial": 48, "rt": 646, "response": "Beta"}, "43": {"stimulus": 280, "trial": 43, "rt": 1267, "response": "Beta"}, "60": {"stimulus": 1593, "trial": 60, "rt": 1950, "response": "Gamma"}, "61": {"stimulus": 530, "trial": 61, "rt": 2568, "response": "Gamma"}, "62": {"stimulus": 2343, "trial": 62, "rt": 2133, "response": "Alpha"}, "63": {"stimulus": 2249, "trial": 63, "rt": 4893, "response": "Gamma"}, "64": {"stimulus": 593, "trial": 64, "rt": 1385, "response": "Gamma"}, "49": {"stimulus": 93, "trial": 49, "rt": 843, "response": "Beta"}, "66": {"stimulus": 1468, "trial": 66, "rt": 1476, "response": "Alpha"}, "67": {"stimulus": 1187, "trial": 67, "rt": 1598, "response": "Gamma"}, "68": {"stimulus": 1030, "trial": 68, "rt": 2141, "response": "Gamma"}, "69": {"stimulus": 749, "trial": 69, "rt": 13324, "response": "Gamma"}, "80": {"stimulus": 1905, "trial": 80, "rt": 431, "response": "Alpha"}, "52": {"stimulus": 1968, "trial": 52, "rt": 729, "response": "Beta"}, "53": {"stimulus": 2030, "trial": 53, "rt": 851, "response": "Beta"}, "24": {"stimulus": 499, "trial": 24, "rt": 1234, "response": "Alpha"}, "25": {"stimulus": 1405, "trial": 25, "rt": 1221, "response": "Gamma"}, "26": {"stimulus": 2093, "trial": 26, "rt": 1829, "response": "Gamma"}, "27": {"stimulus": 655, "trial": 27, "rt": 2669, "response": "Beta"}, "20": {"stimulus": 218, "trial": 20, "rt": 1745, "response": "Gamma"}, "21": {"stimulus": 937, "trial": 21, "rt": 586, "response": "Beta"}, "22": {"stimulus": 2062, "trial": 22, "rt": 494, "response": "Gamma"}, "23": {"stimulus": 1718, "trial": 23, "rt": 736, "response": "Beta"}, "46": {"stimulus": 1874, "trial": 46, "rt": 471, "response": "Beta"}, "47": {"stimulus": 2155, "trial": 47, "rt": 531, "response": "Beta"}, "44": {"stimulus": 312, "trial": 44, "rt": 1757, "response": "Beta"}, "45": {"stimulus": 30, "trial": 45, "rt": 1489, "response": "Beta"}, "28": {"stimulus": 124, "trial": 28, "rt": 760, "response": "Gamma"}, "29": {"stimulus": 1093, "trial": 29, "rt": 3601, "response": "Gamma"}, "40": {"stimulus": 812, "trial": 40, "rt": 866, "response": "Alpha"}, "41": {"stimulus": 468, "trial": 41, "rt": 1116, "response": "Alpha"}, "1": {"stimulus": 1655, "trial": 1, "rt": 4117, "response": "Gamma"}, "0": {"stimulus": 1562, "trial": 0, "rt": 2442, "response": "Gamma"}, "3": {"stimulus": 437, "trial": 3, "rt": 1513, "response": "Beta"}, "2": {"stimulus": 0, "trial": 2, "rt": 3801, "response": "Alpha"}, "5": {"stimulus": 1249, "trial": 5, "rt": 1077, "response": "Beta"}, "4": {"stimulus": 2280, "trial": 4, "rt": 2516, "response": "Beta"}, "7": {"stimulus": 874, "trial": 7, "rt": 1440, "response": "Beta"}, "6": {"stimulus": 1843, "trial": 6, "rt": 1174, "response": "Gamma"}, "9": {"stimulus": 2499, "trial": 9, "rt": 1015, "response": "Gamma"}, "8": {"stimulus": 374, "trial": 8, "rt": 1302, "response": "Beta"}, "78": {"stimulus": 624, "trial": 78, "rt": 553, "response": "Alpha"}, "51": {"stimulus": 2374, "trial": 51, "rt": 636, "response": "Beta"}, "39": {"stimulus": 1062, "trial": 39, "rt": 1283, "response": "Alpha"}, "65": {"stimulus": 1312, "trial": 65, "rt": 2269, "response": "Alpha"}, "76": {"stimulus": 187, "trial": 76, "rt": 1082, "response": "Alpha"}, "75": {"stimulus": 780, "trial": 75, "rt": 3651, "response": "Alpha"}, "38": {"stimulus": 405, "trial": 38, "rt": 1033, "response": "Alpha"}, "73": {"stimulus": 843, "trial": 73, "rt": 1333, "response": "Beta"}, "72": {"stimulus": 1749, "trial": 72, "rt": 9632, "response": "Alpha"}, "71": {"stimulus": 1124, "trial": 71, "rt": 127202, "response": "Alpha"}, "70": {"stimulus": 2468, "trial": 70, "rt": 9923, "response": "Gamma"}, "59": {"stimulus": 1812, "trial": 59, "rt": 1442, "response": "Alpha"}, "79": {"stimulus": 968, "trial": 79, "rt": 1950, "response": "Beta"}, "58": {"stimulus": 1499, "trial": 58, "rt": 2556, "response": "Gamma"}, "11": {"stimulus": 1343, "trial": 11, "rt": 962, "response": "Gamma"}, "10": {"stimulus": 1937, "trial": 10, "rt": 1048, "response": "Gamma"}, "13": {"stimulus": 2437, "trial": 13, "rt": 630, "response": "Gamma"}, "12": {"stimulus": 2187, "trial": 12, "rt": 860, "response": "Gamma"}, "15": {"stimulus": 1780, "trial": 15, "rt": 714, "response": "Gamma"}, "14": {"stimulus": 718, "trial": 14, "rt": 1464, "response": "Alpha"}, "17": {"stimulus": 249, "trial": 17, "rt": 814, "response": "Alpha"}, "16": {"stimulus": 1218, "trial": 16, "rt": 770, "response": "Beta"}, "19": {"stimulus": 1624, "trial": 19, "rt": 3333, "response": "Alpha"}, "18": {"stimulus": 2218, "trial": 18, "rt": 2200, "response": "Alpha"}, "31": {"stimulus": 1374, "trial": 31, "rt": 2310, "response": "Alpha"}, "30": {"stimulus": 2124, "trial": 30, "rt": 1132, "response": "Alpha"}, "37": {"stimulus": 1687, "trial": 37, "rt": 26248, "response": "Alpha"}, "36": {"stimulus": 62, "trial": 36, "rt": 2751, "response": "Alpha"}, "35": {"stimulus": 2312, "trial": 35, "rt": 1311, "response": "Alpha"}, "34": {"stimulus": 1155, "trial": 34, "rt": 3780, "response": "Alpha"}, "33": {"stimulus": 2405, "trial": 33, "rt": 972, "response": "Alpha"}, "55": {"stimulus": 1999, "trial": 55, "rt": 728, "response": "Beta"}, "74": {"stimulus": 1280, "trial": 74, "rt": 27816, "response": "Alpha"}, "32": {"stimulus": 562, "trial": 32, "rt": 2747, "response": "Alpha"}, "57": {"stimulus": 1437, "trial": 57, "rt": 1191, "response": "Beta"}, "50": {"stimulus": 1530, "trial": 50, "rt": 812, "response": "Beta"}}, "experiment": {"Paradigm": "TACL", "Stimuli": "Size-Color Squares", "Experiment": "Generating-Multiple-Categories"}, "submit": {"timeTotal": 1100975, "age": "27", "comments": "nice", "sex": "female"}}