{"info": {"finish": 1548175204921, "participant": 370, "exposed": true, "lab": false, "start": 1548174982564, "counterbalance": 0, "gentype": 1, "condition": "Cluster", "browser": {"platform": "Win32", "userAgent": "Mozilla/5.0 (Windows NT 10.0; Win64; x64) AppleWebKit/537.36 (KHTML, like Gecko) Chrome/71.0.3578.98 Safari/537.36"}}, "observation": {"11": {"stimulus": 583, "trial": 11, "rt": 1621}, "10": {"stimulus": 1083, "trial": 10, "rt": 1601}, "1": {"stimulus": 1093, "trial": 1, "rt": 2320}, "0": {"stimulus": 1083, "trial": 0, "rt": 3341}, "3": {"stimulus": 583, "trial": 3, "rt": 1543}, "2": {"stimulus": 392, "trial": 2, "rt": 2202}, "5": {"stimulus": 583, "trial": 5, "rt": 4582}, "4": {"stimulus": 1093, "trial": 4, "rt": 4462}, "7": {"stimulus": 1083, "trial": 7, "rt": 1542}, "6": {"stimulus": 392, "trial": 6, "rt": 2243}, "9": {"stimulus": 392, "trial": 9, "rt": 1561}, "8": {"stimulus": 1093, "trial": 8, "rt": 2801}}, "generation": {"1": {"category": "Beta", "trial": 1, "stimulus": 1488, "rt": 2921}, "0": {"category": "Beta", "trial": 0, "stimulus": 623, "rt": 3541}, "3": {"category": "Beta", "trial": 3, "stimulus": 977, "rt": 2061}, "2": {"category": "Beta", "trial": 2, "stimulus": 1462, "rt": 2261}, "5": {"category": "Beta", "trial": 5, "stimulus": 361, "rt": 2862}, "4": {"category": "Beta", "trial": 4, "stimulus": 1273, "rt": 3161}, "7": {"category": "Beta", "trial": 7, "stimulus": 1626, "rt": 1720}, "6": {"category": "Beta", "trial": 6, "stimulus": 1286, "rt": 3001}}, "generalization": {"56": {"stimulus": 905, "trial": 56, "rt": 180, "response": "Beta"}, "77": {"stimulus": 1780, "trial": 77, "rt": 139, "response": "Beta"}, "54": {"stimulus": 93, "trial": 54, "rt": 300, "response": "Alpha"}, "42": {"stimulus": 62, "trial": 42, "rt": 81, "response": "Alpha"}, "48": {"stimulus": 30, "trial": 48, "rt": 1102, "response": "Alpha"}, "43": {"stimulus": 812, "trial": 43, "rt": 280, "response": "Beta"}, "60": {"stimulus": 2312, "trial": 60, "rt": 138, "response": "Alpha"}, "61": {"stimulus": 687, "trial": 61, "rt": 300, "response": "Beta"}, "62": {"stimulus": 1593, "trial": 62, "rt": 180, "response": "Beta"}, "63": {"stimulus": 1499, "trial": 63, "rt": 220, "response": "Alpha"}, "64": {"stimulus": 2249, "trial": 64, "rt": 2200, "response": "Beta"}, "49": {"stimulus": 499, "trial": 49, "rt": 119, "response": "Beta"}, "66": {"stimulus": 2280, "trial": 66, "rt": 380, "response": "Alpha"}, "67": {"stimulus": 1718, "trial": 67, "rt": 320, "response": "Beta"}, "68": {"stimulus": 343, "trial": 68, "rt": 120, "response": "Alpha"}, "69": {"stimulus": 2187, "trial": 69, "rt": 120, "response": "Alpha"}, "80": {"stimulus": 2030, "trial": 80, "rt": 99, "response": "Alpha"}, "52": {"stimulus": 1468, "trial": 52, "rt": 721, "response": "Beta"}, "53": {"stimulus": 749, "trial": 53, "rt": 139, "response": "Beta"}, "24": {"stimulus": 1749, "trial": 24, "rt": 461, "response": "Beta"}, "25": {"stimulus": 2218, "trial": 25, "rt": 719, "response": "Beta"}, "26": {"stimulus": 1655, "trial": 26, "rt": 301, "response": "Alpha"}, "27": {"stimulus": 1343, "trial": 27, "rt": 560, "response": "Alpha"}, "20": {"stimulus": 249, "trial": 20, "rt": 100, "response": "Beta"}, "21": {"stimulus": 999, "trial": 21, "rt": 138, "response": "Alpha"}, "22": {"stimulus": 1030, "trial": 22, "rt": 241, "response": "Alpha"}, "23": {"stimulus": 155, "trial": 23, "rt": 199, "response": "Beta"}, "46": {"stimulus": 1687, "trial": 46, "rt": 259, "response": "Beta"}, "47": {"stimulus": 2062, "trial": 47, "rt": 9906, "response": "Alpha"}, "44": {"stimulus": 1437, "trial": 44, "rt": 99, "response": "Beta"}, "45": {"stimulus": 874, "trial": 45, "rt": 900, "response": "Alpha"}, "28": {"stimulus": 218, "trial": 28, "rt": 221, "response": "Beta"}, "29": {"stimulus": 1405, "trial": 29, "rt": 219, "response": "Alpha"}, "40": {"stimulus": 437, "trial": 40, "rt": 420, "response": "Beta"}, "41": {"stimulus": 2155, "trial": 41, "rt": 280, "response": "Alpha"}, "1": {"stimulus": 593, "trial": 1, "rt": 418, "response": "Beta"}, "0": {"stimulus": 1280, "trial": 0, "rt": 1059, "response": "Alpha"}, "3": {"stimulus": 1155, "trial": 3, "rt": 560, "response": "Alpha"}, "2": {"stimulus": 0, "trial": 2, "rt": 300, "response": "Beta"}, "5": {"stimulus": 2499, "trial": 5, "rt": 299, "response": "Beta"}, "4": {"stimulus": 2374, "trial": 4, "rt": 582, "response": "Alpha"}, "7": {"stimulus": 1312, "trial": 7, "rt": 277, "response": "Beta"}, "6": {"stimulus": 405, "trial": 6, "rt": 281, "response": "Alpha"}, "9": {"stimulus": 2093, "trial": 9, "rt": 599, "response": "Alpha"}, "8": {"stimulus": 1374, "trial": 8, "rt": 179, "response": "Beta"}, "78": {"stimulus": 468, "trial": 78, "rt": 119, "response": "Beta"}, "51": {"stimulus": 2343, "trial": 51, "rt": 4583, "response": "Alpha"}, "39": {"stimulus": 655, "trial": 39, "rt": 279, "response": "Beta"}, "65": {"stimulus": 1062, "trial": 65, "rt": 59, "response": "Beta"}, "76": {"stimulus": 1530, "trial": 76, "rt": 279, "response": "Alpha"}, "75": {"stimulus": 312, "trial": 75, "rt": 338, "response": "Alpha"}, "38": {"stimulus": 187, "trial": 38, "rt": 319, "response": "Alpha"}, "73": {"stimulus": 280, "trial": 73, "rt": 179, "response": "Beta"}, "72": {"stimulus": 1624, "trial": 72, "rt": 220, "response": "Alpha"}, "71": {"stimulus": 1187, "trial": 71, "rt": 521, "response": "Alpha"}, "70": {"stimulus": 2437, "trial": 70, "rt": 179, "response": "Beta"}, "59": {"stimulus": 2124, "trial": 59, "rt": 200, "response": "Alpha"}, "79": {"stimulus": 1937, "trial": 79, "rt": 278, "response": "Alpha"}, "58": {"stimulus": 937, "trial": 58, "rt": 220, "response": "Beta"}, "11": {"stimulus": 1093, "trial": 11, "rt": 220, "response": "Beta"}, "10": {"stimulus": 624, "trial": 10, "rt": 680, "response": "Alpha"}, "13": {"stimulus": 1124, "trial": 13, "rt": 159, "response": "Beta"}, "12": {"stimulus": 1843, "trial": 12, "rt": 641, "response": "Beta"}, "15": {"stimulus": 718, "trial": 15, "rt": 519, "response": "Alpha"}, "14": {"stimulus": 1812, "trial": 14, "rt": 78, "response": "Beta"}, "17": {"stimulus": 562, "trial": 17, "rt": 320, "response": "Beta"}, "16": {"stimulus": 780, "trial": 16, "rt": 300, "response": "Alpha"}, "19": {"stimulus": 1562, "trial": 19, "rt": 220, "response": "Alpha"}, "18": {"stimulus": 374, "trial": 18, "rt": 300, "response": "Beta"}, "31": {"stimulus": 2405, "trial": 31, "rt": 300, "response": "Beta"}, "30": {"stimulus": 968, "trial": 30, "rt": 180, "response": "Beta"}, "37": {"stimulus": 1968, "trial": 37, "rt": 239, "response": "Beta"}, "36": {"stimulus": 843, "trial": 36, "rt": 379, "response": "Beta"}, "35": {"stimulus": 1999, "trial": 35, "rt": 4422, "response": "Alpha"}, "34": {"stimulus": 1249, "trial": 34, "rt": 101, "response": "Beta"}, "33": {"stimulus": 530, "trial": 33, "rt": 538, "response": "Alpha"}, "55": {"stimulus": 1218, "trial": 55, "rt": 99, "response": "Alpha"}, "74": {"stimulus": 2468, "trial": 74, "rt": 300, "response": "Beta"}, "32": {"stimulus": 1874, "trial": 32, "rt": 140, "response": "Alpha"}, "57": {"stimulus": 1905, "trial": 57, "rt": 320, "response": "Beta"}, "50": {"stimulus": 124, "trial": 50, "rt": 297, "response": "Beta"}}, "experiment": {"Paradigm": "TACL", "Stimuli": "Size-Color Squares", "Experiment": "Generating-Multiple-Categories"}, "submit": {"timeTotal": 222544, "age": "26", "comments": "Fun study !", "sex": "male"}}