{"info": {"finish": 1548176321410, "participant": 372, "exposed": true, "lab": false, "start": 1548175938819, "counterbalance": 1, "gentype": 0, "condition": "XOR", "browser": {"platform": "Win32", "userAgent": "Mozilla/5.0 (Windows NT 10.0; Win64; x64) AppleWebKit/537.36 (KHTML, like Gecko) Chrome/71.0.3578.98 Safari/537.36"}}, "observation": {"11": {"stimulus": 1890, "trial": 11, "rt": 1646}, "10": {"stimulus": 818, "trial": 10, "rt": 2151}, "1": {"stimulus": 1479, "trial": 1, "rt": 2478}, "0": {"stimulus": 818, "trial": 0, "rt": 4073}, "3": {"stimulus": 403, "trial": 3, "rt": 1984}, "2": {"stimulus": 1890, "trial": 2, "rt": 2150}, "5": {"stimulus": 1890, "trial": 5, "rt": 1872}, "4": {"stimulus": 818, "trial": 4, "rt": 1887}, "7": {"stimulus": 1479, "trial": 7, "rt": 6401}, "6": {"stimulus": 403, "trial": 6, "rt": 2055}, "9": {"stimulus": 1479, "trial": 9, "rt": 1744}, "8": {"stimulus": 403, "trial": 8, "rt": 2005}}, "generation": {"1": {"category": "Not-Alpha", "trial": 1, "stimulus": 2493, "rt": 13765}, "0": {"category": "Not-Alpha", "trial": 0, "stimulus": 2499, "rt": 21143}, "3": {"category": "Not-Alpha", "trial": 3, "stimulus": 2450, "rt": 7688}, "2": {"category": "Not-Alpha", "trial": 2, "stimulus": 0, "rt": 6575}, "5": {"category": "Not-Alpha", "trial": 5, "stimulus": 2005, "rt": 5613}, "4": {"category": "Not-Alpha", "trial": 4, "stimulus": 2200, "rt": 8311}, "7": {"category": "Not-Alpha", "trial": 7, "stimulus": 2225, "rt": 4446}, "6": {"category": "Not-Alpha", "trial": 6, "stimulus": 2249, "rt": 6430}}, "generalization": {"56": {"stimulus": 2468, "trial": 56, "rt": 1127, "response": "Beta"}, "77": {"stimulus": 374, "trial": 77, "rt": 903, "response": "Alpha"}, "54": {"stimulus": 1499, "trial": 54, "rt": 1277, "response": "Alpha"}, "42": {"stimulus": 2405, "trial": 42, "rt": 983, "response": "Beta"}, "48": {"stimulus": 1280, "trial": 48, "rt": 1326, "response": "Alpha"}, "43": {"stimulus": 2280, "trial": 43, "rt": 815, "response": "Beta"}, "60": {"stimulus": 1124, "trial": 60, "rt": 878, "response": "Alpha"}, "61": {"stimulus": 2312, "trial": 61, "rt": 1062, "response": "Beta"}, "62": {"stimulus": 687, "trial": 62, "rt": 904, "response": "Alpha"}, "63": {"stimulus": 593, "trial": 63, "rt": 807, "response": "Alpha"}, "64": {"stimulus": 1093, "trial": 64, "rt": 1519, "response": "Alpha"}, "49": {"stimulus": 93, "trial": 49, "rt": 1079, "response": "Alpha"}, "66": {"stimulus": 2124, "trial": 66, "rt": 1182, "response": "Beta"}, "67": {"stimulus": 1468, "trial": 67, "rt": 2159, "response": "Alpha"}, "68": {"stimulus": 905, "trial": 68, "rt": 1226, "response": "Alpha"}, "69": {"stimulus": 1218, "trial": 69, "rt": 2256, "response": "Alpha"}, "80": {"stimulus": 1030, "trial": 80, "rt": 1270, "response": "Alpha"}, "52": {"stimulus": 405, "trial": 52, "rt": 1447, "response": "Alpha"}, "53": {"stimulus": 2499, "trial": 53, "rt": 992, "response": "Beta"}, "24": {"stimulus": 1343, "trial": 24, "rt": 1207, "response": "Alpha"}, "25": {"stimulus": 843, "trial": 25, "rt": 863, "response": "Alpha"}, "26": {"stimulus": 2187, "trial": 26, "rt": 1063, "response": "Beta"}, "27": {"stimulus": 1187, "trial": 27, "rt": 1128, "response": "Alpha"}, "20": {"stimulus": 968, "trial": 20, "rt": 1110, "response": "Alpha"}, "21": {"stimulus": 312, "trial": 21, "rt": 1408, "response": "Beta"}, "22": {"stimulus": 1780, "trial": 22, "rt": 1023, "response": "Alpha"}, "23": {"stimulus": 1968, "trial": 23, "rt": 2095, "response": "Beta"}, "46": {"stimulus": 1812, "trial": 46, "rt": 1728, "response": "Beta"}, "47": {"stimulus": 2249, "trial": 47, "rt": 970, "response": "Beta"}, "44": {"stimulus": 718, "trial": 44, "rt": 1671, "response": "Alpha"}, "45": {"stimulus": 2218, "trial": 45, "rt": 1119, "response": "Beta"}, "28": {"stimulus": 812, "trial": 28, "rt": 888, "response": "Alpha"}, "29": {"stimulus": 1718, "trial": 29, "rt": 3118, "response": "Beta"}, "40": {"stimulus": 1749, "trial": 40, "rt": 2703, "response": "Alpha"}, "41": {"stimulus": 1905, "trial": 41, "rt": 1407, "response": "Alpha"}, "1": {"stimulus": 874, "trial": 1, "rt": 892, "response": "Alpha"}, "0": {"stimulus": 999, "trial": 0, "rt": 3638, "response": "Alpha"}, "3": {"stimulus": 1937, "trial": 3, "rt": 1303, "response": "Alpha"}, "2": {"stimulus": 280, "trial": 2, "rt": 2159, "response": "Beta"}, "5": {"stimulus": 1655, "trial": 5, "rt": 1230, "response": "Alpha"}, "4": {"stimulus": 1374, "trial": 4, "rt": 2318, "response": "Alpha"}, "7": {"stimulus": 1999, "trial": 7, "rt": 1183, "response": "Alpha"}, "6": {"stimulus": 218, "trial": 6, "rt": 2086, "response": "Beta"}, "9": {"stimulus": 2093, "trial": 9, "rt": 3229, "response": "Beta"}, "8": {"stimulus": 1562, "trial": 8, "rt": 951, "response": "Alpha"}, "78": {"stimulus": 0, "trial": 78, "rt": 1685, "response": "Beta"}, "51": {"stimulus": 2374, "trial": 51, "rt": 1118, "response": "Alpha"}, "39": {"stimulus": 1874, "trial": 39, "rt": 1088, "response": "Beta"}, "65": {"stimulus": 1687, "trial": 65, "rt": 1527, "response": "Alpha"}, "76": {"stimulus": 2437, "trial": 76, "rt": 1030, "response": "Beta"}, "75": {"stimulus": 1249, "trial": 75, "rt": 1056, "response": "Alpha"}, "38": {"stimulus": 749, "trial": 38, "rt": 1726, "response": "Alpha"}, "73": {"stimulus": 499, "trial": 73, "rt": 1254, "response": "Alpha"}, "72": {"stimulus": 655, "trial": 72, "rt": 2182, "response": "Alpha"}, "71": {"stimulus": 187, "trial": 71, "rt": 1382, "response": "Beta"}, "70": {"stimulus": 1062, "trial": 70, "rt": 855, "response": "Alpha"}, "59": {"stimulus": 937, "trial": 59, "rt": 1503, "response": "Alpha"}, "79": {"stimulus": 1312, "trial": 79, "rt": 838, "response": "Alpha"}, "58": {"stimulus": 1530, "trial": 58, "rt": 1630, "response": "Alpha"}, "11": {"stimulus": 62, "trial": 11, "rt": 2023, "response": "Beta"}, "10": {"stimulus": 468, "trial": 10, "rt": 1304, "response": "Alpha"}, "13": {"stimulus": 2155, "trial": 13, "rt": 1302, "response": "Beta"}, "12": {"stimulus": 437, "trial": 12, "rt": 1175, "response": "Alpha"}, "15": {"stimulus": 562, "trial": 15, "rt": 1663, "response": "Alpha"}, "14": {"stimulus": 1405, "trial": 14, "rt": 2942, "response": "Alpha"}, "17": {"stimulus": 343, "trial": 17, "rt": 2454, "response": "Beta"}, "16": {"stimulus": 1437, "trial": 16, "rt": 2102, "response": "Alpha"}, "19": {"stimulus": 1593, "trial": 19, "rt": 910, "response": "Alpha"}, "18": {"stimulus": 1843, "trial": 18, "rt": 1527, "response": "Alpha"}, "31": {"stimulus": 2030, "trial": 31, "rt": 1302, "response": "Beta"}, "30": {"stimulus": 2343, "trial": 30, "rt": 1424, "response": "Beta"}, "37": {"stimulus": 2062, "trial": 37, "rt": 1223, "response": "Alpha"}, "36": {"stimulus": 155, "trial": 36, "rt": 1142, "response": "Beta"}, "35": {"stimulus": 780, "trial": 35, "rt": 822, "response": "Alpha"}, "34": {"stimulus": 624, "trial": 34, "rt": 959, "response": "Alpha"}, "33": {"stimulus": 530, "trial": 33, "rt": 895, "response": "Alpha"}, "55": {"stimulus": 249, "trial": 55, "rt": 1398, "response": "Alpha"}, "74": {"stimulus": 1624, "trial": 74, "rt": 1668, "response": "Alpha"}, "32": {"stimulus": 1155, "trial": 32, "rt": 1310, "response": "Alpha"}, "57": {"stimulus": 124, "trial": 57, "rt": 1062, "response": "Alpha"}, "50": {"stimulus": 30, "trial": 50, "rt": 1310, "response": "Beta"}}, "experiment": {"Paradigm": "TACL", "Stimuli": "Size-Color Squares", "Experiment": "Generating-Multiple-Categories"}, "submit": {"timeTotal": 383216, "age": "56", "comments": "no", "sex": "man"}}