{"info": {"finish": 1548178938551, "participant": 378, "exposed": true, "lab": false, "start": 1548178446243, "counterbalance": 7, "gentype": 2, "condition": "Cluster", "browser": {"platform": "Win32", "userAgent": "Mozilla/5.0 (Windows NT 10.0; Win64; x64) AppleWebKit/537.36 (KHTML, like Gecko) Chrome/71.0.3578.98 Safari/537.36"}}, "observation": {"11": {"stimulus": 583, "trial": 11, "rt": 1558}, "10": {"stimulus": 392, "trial": 10, "rt": 1730}, "1": {"stimulus": 1093, "trial": 1, "rt": 2117}, "0": {"stimulus": 583, "trial": 0, "rt": 3242}, "3": {"stimulus": 392, "trial": 3, "rt": 1805}, "2": {"stimulus": 1083, "trial": 2, "rt": 1904}, "5": {"stimulus": 392, "trial": 5, "rt": 1599}, "4": {"stimulus": 1083, "trial": 4, "rt": 1800}, "7": {"stimulus": 1093, "trial": 7, "rt": 1611}, "6": {"stimulus": 583, "trial": 6, "rt": 2039}, "9": {"stimulus": 1083, "trial": 9, "rt": 1863}, "8": {"stimulus": 1093, "trial": 8, "rt": 1565}}, "generation": {"1": {"category": "Beta", "trial": 1, "stimulus": 1300, "rt": 9885}, "0": {"category": "Beta", "trial": 0, "stimulus": 2150, "rt": 31111}, "3": {"category": "Beta", "trial": 3, "stimulus": 0, "rt": 4429}, "2": {"category": "Beta", "trial": 2, "stimulus": 450, "rt": 11590}, "5": {"category": "Gamma", "trial": 5, "stimulus": 2497, "rt": 8229}, "4": {"category": "Gamma", "trial": 4, "stimulus": 2499, "rt": 29904}, "7": {"category": "Gamma", "trial": 7, "stimulus": 2492, "rt": 7766}, "6": {"category": "Gamma", "trial": 6, "stimulus": 2493, "rt": 5295}}, "generalization": {"56": {"stimulus": 1530, "trial": 56, "rt": 1619, "response": "Alpha"}, "77": {"stimulus": 2499, "trial": 77, "rt": 1327, "response": "Gamma"}, "54": {"stimulus": 499, "trial": 54, "rt": 2619, "response": "Alpha"}, "42": {"stimulus": 562, "trial": 42, "rt": 1063, "response": "Alpha"}, "48": {"stimulus": 624, "trial": 48, "rt": 2007, "response": "Alpha"}, "43": {"stimulus": 1437, "trial": 43, "rt": 1134, "response": "Alpha"}, "60": {"stimulus": 1593, "trial": 60, "rt": 902, "response": "Alpha"}, "61": {"stimulus": 1780, "trial": 61, "rt": 1433, "response": "Alpha"}, "62": {"stimulus": 405, "trial": 62, "rt": 1504, "response": "Beta"}, "63": {"stimulus": 1312, "trial": 63, "rt": 1471, "response": "Alpha"}, "64": {"stimulus": 1874, "trial": 64, "rt": 2797, "response": "Alpha"}, "49": {"stimulus": 968, "trial": 49, "rt": 826, "response": "Alpha"}, "66": {"stimulus": 1280, "trial": 66, "rt": 1071, "response": "Alpha"}, "67": {"stimulus": 1718, "trial": 67, "rt": 1279, "response": "Alpha"}, "68": {"stimulus": 1187, "trial": 68, "rt": 815, "response": "Alpha"}, "69": {"stimulus": 1843, "trial": 69, "rt": 6181, "response": "Alpha"}, "80": {"stimulus": 1030, "trial": 80, "rt": 1254, "response": "Alpha"}, "52": {"stimulus": 218, "trial": 52, "rt": 1023, "response": "Alpha"}, "53": {"stimulus": 62, "trial": 53, "rt": 2207, "response": "Alpha"}, "24": {"stimulus": 1905, "trial": 24, "rt": 1622, "response": "Beta"}, "25": {"stimulus": 2062, "trial": 25, "rt": 1095, "response": "Beta"}, "26": {"stimulus": 30, "trial": 26, "rt": 1118, "response": "Alpha"}, "27": {"stimulus": 2093, "trial": 27, "rt": 1758, "response": "Gamma"}, "20": {"stimulus": 1624, "trial": 20, "rt": 4542, "response": "Alpha"}, "21": {"stimulus": 749, "trial": 21, "rt": 1457, "response": "Alpha"}, "22": {"stimulus": 2280, "trial": 22, "rt": 3855, "response": "Alpha"}, "23": {"stimulus": 780, "trial": 23, "rt": 3459, "response": "Alpha"}, "46": {"stimulus": 1499, "trial": 46, "rt": 4720, "response": "Alpha"}, "47": {"stimulus": 343, "trial": 47, "rt": 800, "response": "Alpha"}, "44": {"stimulus": 2405, "trial": 44, "rt": 2073, "response": "Beta"}, "45": {"stimulus": 687, "trial": 45, "rt": 1503, "response": "Alpha"}, "28": {"stimulus": 2218, "trial": 28, "rt": 6343, "response": "Alpha"}, "29": {"stimulus": 2187, "trial": 29, "rt": 1662, "response": "Alpha"}, "40": {"stimulus": 2124, "trial": 40, "rt": 2688, "response": "Alpha"}, "41": {"stimulus": 2374, "trial": 41, "rt": 1851, "response": "Alpha"}, "1": {"stimulus": 374, "trial": 1, "rt": 1022, "response": "Alpha"}, "0": {"stimulus": 280, "trial": 0, "rt": 4614, "response": "Alpha"}, "3": {"stimulus": 1062, "trial": 3, "rt": 2840, "response": "Beta"}, "2": {"stimulus": 937, "trial": 2, "rt": 3735, "response": "Alpha"}, "5": {"stimulus": 1687, "trial": 5, "rt": 1610, "response": "Alpha"}, "4": {"stimulus": 2437, "trial": 4, "rt": 2624, "response": "Gamma"}, "7": {"stimulus": 2343, "trial": 7, "rt": 1280, "response": "Gamma"}, "6": {"stimulus": 2155, "trial": 6, "rt": 2583, "response": "Beta"}, "9": {"stimulus": 249, "trial": 9, "rt": 1752, "response": "Alpha"}, "8": {"stimulus": 2312, "trial": 8, "rt": 4615, "response": "Beta"}, "78": {"stimulus": 1218, "trial": 78, "rt": 3292, "response": "Alpha"}, "51": {"stimulus": 187, "trial": 51, "rt": 1145, "response": "Alpha"}, "39": {"stimulus": 312, "trial": 39, "rt": 3719, "response": "Alpha"}, "65": {"stimulus": 468, "trial": 65, "rt": 1149, "response": "Alpha"}, "76": {"stimulus": 1124, "trial": 76, "rt": 1033, "response": "Alpha"}, "75": {"stimulus": 593, "trial": 75, "rt": 1422, "response": "Alpha"}, "38": {"stimulus": 655, "trial": 38, "rt": 4488, "response": "Beta"}, "73": {"stimulus": 718, "trial": 73, "rt": 1679, "response": "Alpha"}, "72": {"stimulus": 812, "trial": 72, "rt": 1350, "response": "Beta"}, "71": {"stimulus": 530, "trial": 71, "rt": 1552, "response": "Alpha"}, "70": {"stimulus": 1999, "trial": 70, "rt": 1429, "response": "Gamma"}, "59": {"stimulus": 2030, "trial": 59, "rt": 1432, "response": "Alpha"}, "79": {"stimulus": 1812, "trial": 79, "rt": 2030, "response": "Alpha"}, "58": {"stimulus": 0, "trial": 58, "rt": 5009, "response": "Beta"}, "11": {"stimulus": 1249, "trial": 11, "rt": 1301, "response": "Alpha"}, "10": {"stimulus": 1655, "trial": 10, "rt": 3599, "response": "Beta"}, "13": {"stimulus": 874, "trial": 13, "rt": 1990, "response": "Alpha"}, "12": {"stimulus": 1343, "trial": 12, "rt": 1199, "response": "Alpha"}, "15": {"stimulus": 93, "trial": 15, "rt": 1512, "response": "Alpha"}, "14": {"stimulus": 1468, "trial": 14, "rt": 1999, "response": "Alpha"}, "17": {"stimulus": 843, "trial": 17, "rt": 926, "response": "Alpha"}, "16": {"stimulus": 999, "trial": 16, "rt": 3869, "response": "Alpha"}, "19": {"stimulus": 155, "trial": 19, "rt": 992, "response": "Beta"}, "18": {"stimulus": 905, "trial": 18, "rt": 7199, "response": "Beta"}, "31": {"stimulus": 1093, "trial": 31, "rt": 1566, "response": "Alpha"}, "30": {"stimulus": 1374, "trial": 30, "rt": 1979, "response": "Alpha"}, "37": {"stimulus": 1968, "trial": 37, "rt": 3163, "response": "Alpha"}, "36": {"stimulus": 2249, "trial": 36, "rt": 1605, "response": "Gamma"}, "35": {"stimulus": 1155, "trial": 35, "rt": 3614, "response": "Beta"}, "34": {"stimulus": 1405, "trial": 34, "rt": 1358, "response": "Beta"}, "33": {"stimulus": 2468, "trial": 33, "rt": 4522, "response": "Beta"}, "55": {"stimulus": 1562, "trial": 55, "rt": 2205, "response": "Beta"}, "74": {"stimulus": 1749, "trial": 74, "rt": 1839, "response": "Gamma"}, "32": {"stimulus": 437, "trial": 32, "rt": 1255, "response": "Alpha"}, "57": {"stimulus": 1937, "trial": 57, "rt": 3008, "response": "Alpha"}, "50": {"stimulus": 124, "trial": 50, "rt": 1150, "response": "Alpha"}}, "experiment": {"Paradigm": "TACL", "Stimuli": "Size-Color Squares", "Experiment": "Generating-Multiple-Categories"}, "submit": {"timeTotal": 492904, "age": "53", "comments": "Great experiment.", "sex": "male"}}