{"info": {"finish": 1548044102655, "participant": 39, "exposed": true, "lab": false, "start": 1548043594341, "counterbalance": 4, "gentype": 1, "condition": "Row", "browser": {"platform": "Win32", "userAgent": "Mozilla/5.0 (Windows NT 6.1) AppleWebKit/537.36 (KHTML, like Gecko) Chrome/71.0.3578.98 Safari/537.36"}}, "observation": {"11": {"stimulus": 493, "trial": 11, "rt": 1499}, "10": {"stimulus": 612, "trial": 10, "rt": 9708}, "1": {"stimulus": 612, "trial": 1, "rt": 2420}, "0": {"stimulus": 582, "trial": 0, "rt": 6157}, "3": {"stimulus": 421, "trial": 3, "rt": 3731}, "2": {"stimulus": 493, "trial": 2, "rt": 3548}, "5": {"stimulus": 612, "trial": 5, "rt": 3337}, "4": {"stimulus": 582, "trial": 4, "rt": 1679}, "7": {"stimulus": 493, "trial": 7, "rt": 1701}, "6": {"stimulus": 421, "trial": 6, "rt": 1979}, "9": {"stimulus": 582, "trial": 9, "rt": 1475}, "8": {"stimulus": 421, "trial": 8, "rt": 20535}}, "generation": {"1": {"category": "Beta", "trial": 1, "stimulus": 1264, "rt": 13017}, "0": {"category": "Beta", "trial": 0, "stimulus": 1758, "rt": 11884}, "3": {"category": "Beta", "trial": 3, "stimulus": 819, "rt": 4285}, "2": {"category": "Beta", "trial": 2, "stimulus": 1360, "rt": 17962}, "5": {"category": "Beta", "trial": 5, "stimulus": 1512, "rt": 9531}, "4": {"category": "Beta", "trial": 4, "stimulus": 1262, "rt": 5257}, "7": {"category": "Beta", "trial": 7, "stimulus": 914, "rt": 3067}, "6": {"category": "Beta", "trial": 6, "stimulus": 861, "rt": 15570}}, "generalization": {"56": {"stimulus": 2280, "trial": 56, "rt": 596, "response": "Beta"}, "77": {"stimulus": 2062, "trial": 77, "rt": 387, "response": "Beta"}, "54": {"stimulus": 2374, "trial": 54, "rt": 1165, "response": "Alpha"}, "42": {"stimulus": 2093, "trial": 42, "rt": 1347, "response": "Alpha"}, "48": {"stimulus": 1312, "trial": 48, "rt": 606, "response": "Beta"}, "43": {"stimulus": 968, "trial": 43, "rt": 604, "response": "Beta"}, "60": {"stimulus": 405, "trial": 60, "rt": 570, "response": "Beta"}, "61": {"stimulus": 905, "trial": 61, "rt": 798, "response": "Beta"}, "62": {"stimulus": 2030, "trial": 62, "rt": 1726, "response": "Alpha"}, "63": {"stimulus": 1905, "trial": 63, "rt": 602, "response": "Beta"}, "64": {"stimulus": 2437, "trial": 64, "rt": 5138, "response": "Beta"}, "49": {"stimulus": 280, "trial": 49, "rt": 553, "response": "Beta"}, "66": {"stimulus": 1499, "trial": 66, "rt": 898, "response": "Alpha"}, "67": {"stimulus": 218, "trial": 67, "rt": 1755, "response": "Beta"}, "68": {"stimulus": 437, "trial": 68, "rt": 1287, "response": "Alpha"}, "69": {"stimulus": 530, "trial": 69, "rt": 1038, "response": "Alpha"}, "80": {"stimulus": 249, "trial": 80, "rt": 1464, "response": "Alpha"}, "52": {"stimulus": 155, "trial": 52, "rt": 1392, "response": "Beta"}, "53": {"stimulus": 655, "trial": 53, "rt": 6001, "response": "Beta"}, "24": {"stimulus": 1874, "trial": 24, "rt": 2257, "response": "Beta"}, "25": {"stimulus": 2499, "trial": 25, "rt": 1191, "response": "Alpha"}, "26": {"stimulus": 499, "trial": 26, "rt": 1309, "response": "Alpha"}, "27": {"stimulus": 1155, "trial": 27, "rt": 562, "response": "Beta"}, "20": {"stimulus": 1593, "trial": 20, "rt": 1006, "response": "Alpha"}, "21": {"stimulus": 1843, "trial": 21, "rt": 629, "response": "Alpha"}, "22": {"stimulus": 1780, "trial": 22, "rt": 583, "response": "Alpha"}, "23": {"stimulus": 937, "trial": 23, "rt": 504, "response": "Alpha"}, "46": {"stimulus": 2468, "trial": 46, "rt": 484, "response": "Beta"}, "47": {"stimulus": 0, "trial": 47, "rt": 818, "response": "Beta"}, "44": {"stimulus": 1062, "trial": 44, "rt": 494, "response": "Beta"}, "45": {"stimulus": 687, "trial": 45, "rt": 1360, "response": "Alpha"}, "28": {"stimulus": 1968, "trial": 28, "rt": 810, "response": "Beta"}, "29": {"stimulus": 843, "trial": 29, "rt": 1026, "response": "Alpha"}, "40": {"stimulus": 1030, "trial": 40, "rt": 1017, "response": "Alpha"}, "41": {"stimulus": 593, "trial": 41, "rt": 1221, "response": "Alpha"}, "1": {"stimulus": 1937, "trial": 1, "rt": 965, "response": "Alpha"}, "0": {"stimulus": 2312, "trial": 0, "rt": 1638, "response": "Beta"}, "3": {"stimulus": 468, "trial": 3, "rt": 988, "response": "Beta"}, "2": {"stimulus": 874, "trial": 2, "rt": 1231, "response": "Beta"}, "5": {"stimulus": 1468, "trial": 5, "rt": 698, "response": "Beta"}, "4": {"stimulus": 1624, "trial": 4, "rt": 786, "response": "Beta"}, "7": {"stimulus": 1687, "trial": 7, "rt": 1490, "response": "Alpha"}, "6": {"stimulus": 374, "trial": 6, "rt": 1178, "response": "Beta"}, "9": {"stimulus": 2405, "trial": 9, "rt": 1274, "response": "Beta"}, "8": {"stimulus": 187, "trial": 8, "rt": 1335, "response": "Alpha"}, "78": {"stimulus": 62, "trial": 78, "rt": 760, "response": "Beta"}, "51": {"stimulus": 343, "trial": 51, "rt": 1126, "response": "Alpha"}, "39": {"stimulus": 1562, "trial": 39, "rt": 609, "response": "Beta"}, "65": {"stimulus": 749, "trial": 65, "rt": 1428, "response": "Beta"}, "76": {"stimulus": 624, "trial": 76, "rt": 2262, "response": "Alpha"}, "75": {"stimulus": 1218, "trial": 75, "rt": 1673, "response": "Beta"}, "38": {"stimulus": 2124, "trial": 38, "rt": 1266, "response": "Alpha"}, "73": {"stimulus": 1718, "trial": 73, "rt": 1147, "response": "Beta"}, "72": {"stimulus": 1187, "trial": 72, "rt": 1081, "response": "Alpha"}, "71": {"stimulus": 1437, "trial": 71, "rt": 910, "response": "Alpha"}, "70": {"stimulus": 1374, "trial": 70, "rt": 595, "response": "Alpha"}, "59": {"stimulus": 2218, "trial": 59, "rt": 893, "response": "Beta"}, "79": {"stimulus": 1812, "trial": 79, "rt": 580, "response": "Beta"}, "58": {"stimulus": 2187, "trial": 58, "rt": 812, "response": "Alpha"}, "11": {"stimulus": 93, "trial": 11, "rt": 1011, "response": "Alpha"}, "10": {"stimulus": 1405, "trial": 10, "rt": 595, "response": "Beta"}, "13": {"stimulus": 124, "trial": 13, "rt": 1231, "response": "Beta"}, "12": {"stimulus": 2249, "trial": 12, "rt": 1347, "response": "Alpha"}, "15": {"stimulus": 812, "trial": 15, "rt": 1770, "response": "Beta"}, "14": {"stimulus": 1093, "trial": 14, "rt": 922, "response": "Alpha"}, "17": {"stimulus": 1749, "trial": 17, "rt": 783, "response": "Alpha"}, "16": {"stimulus": 1249, "trial": 16, "rt": 835, "response": "Alpha"}, "19": {"stimulus": 999, "trial": 19, "rt": 453, "response": "Alpha"}, "18": {"stimulus": 1343, "trial": 18, "rt": 430, "response": "Alpha"}, "31": {"stimulus": 1655, "trial": 31, "rt": 1455, "response": "Beta"}, "30": {"stimulus": 1280, "trial": 30, "rt": 973, "response": "Alpha"}, "37": {"stimulus": 562, "trial": 37, "rt": 111487, "response": "Beta"}, "36": {"stimulus": 780, "trial": 36, "rt": 10444, "response": "Alpha"}, "35": {"stimulus": 2343, "trial": 35, "rt": 1976, "response": "Alpha"}, "34": {"stimulus": 1530, "trial": 34, "rt": 1088, "response": "Alpha"}, "33": {"stimulus": 312, "trial": 33, "rt": 859, "response": "Beta"}, "55": {"stimulus": 1999, "trial": 55, "rt": 1833, "response": "Alpha"}, "74": {"stimulus": 1124, "trial": 74, "rt": 446, "response": "Beta"}, "32": {"stimulus": 2155, "trial": 32, "rt": 1242, "response": "Beta"}, "57": {"stimulus": 30, "trial": 57, "rt": 908, "response": "Alpha"}, "50": {"stimulus": 718, "trial": 50, "rt": 549, "response": "Beta"}}, "experiment": {"Paradigm": "TACL", "Stimuli": "Size-Color Squares", "Experiment": "Generating-Multiple-Categories"}, "submit": {"timeTotal": 509205, "age": "27", "comments": "very interesting", "sex": "female"}}