{"info": {"finish": 1548182133503, "participant": 390, "exposed": true, "lab": false, "start": 1548181718896, "counterbalance": 4, "gentype": 2, "condition": "Row", "browser": {"platform": "Win32", "userAgent": "Mozilla/5.0 (Windows NT 10.0; Win64; x64) AppleWebKit/537.36 (KHTML, like Gecko) Chrome/71.0.3578.98 Safari/537.36"}}, "observation": {"11": {"stimulus": 582, "trial": 11, "rt": 1776}, "10": {"stimulus": 421, "trial": 10, "rt": 3983}, "1": {"stimulus": 582, "trial": 1, "rt": 6250}, "0": {"stimulus": 493, "trial": 0, "rt": 10864}, "3": {"stimulus": 612, "trial": 3, "rt": 2580}, "2": {"stimulus": 421, "trial": 2, "rt": 7186}, "5": {"stimulus": 493, "trial": 5, "rt": 2088}, "4": {"stimulus": 421, "trial": 4, "rt": 3032}, "7": {"stimulus": 582, "trial": 7, "rt": 2051}, "6": {"stimulus": 612, "trial": 6, "rt": 1726}, "9": {"stimulus": 493, "trial": 9, "rt": 1813}, "8": {"stimulus": 612, "trial": 8, "rt": 2388}}, "generation": {"1": {"category": "Beta", "trial": 1, "stimulus": 1593, "rt": 6683}, "0": {"category": "Beta", "trial": 0, "stimulus": 2043, "rt": 13229}, "3": {"category": "Beta", "trial": 3, "stimulus": 2399, "rt": 7023}, "2": {"category": "Beta", "trial": 2, "stimulus": 2493, "rt": 6972}, "5": {"category": "Gamma", "trial": 5, "stimulus": 411, "rt": 5397}, "4": {"category": "Gamma", "trial": 4, "stimulus": 0, "rt": 4706}, "7": {"category": "Gamma", "trial": 7, "stimulus": 709, "rt": 5870}, "6": {"category": "Gamma", "trial": 6, "stimulus": 702, "rt": 6167}}, "generalization": {"56": {"stimulus": 749, "trial": 56, "rt": 791, "response": "Alpha"}, "77": {"stimulus": 843, "trial": 77, "rt": 1232, "response": "Beta"}, "54": {"stimulus": 2062, "trial": 54, "rt": 1200, "response": "Gamma"}, "42": {"stimulus": 1562, "trial": 42, "rt": 1062, "response": "Gamma"}, "48": {"stimulus": 1843, "trial": 48, "rt": 1253, "response": "Beta"}, "43": {"stimulus": 1624, "trial": 43, "rt": 1636, "response": "Beta"}, "60": {"stimulus": 1374, "trial": 60, "rt": 963, "response": "Beta"}, "61": {"stimulus": 937, "trial": 61, "rt": 1034, "response": "Beta"}, "62": {"stimulus": 2249, "trial": 62, "rt": 1164, "response": "Beta"}, "63": {"stimulus": 655, "trial": 63, "rt": 2307, "response": "Gamma"}, "64": {"stimulus": 1343, "trial": 64, "rt": 1120, "response": "Beta"}, "49": {"stimulus": 718, "trial": 49, "rt": 1044, "response": "Alpha"}, "66": {"stimulus": 1874, "trial": 66, "rt": 1260, "response": "Gamma"}, "67": {"stimulus": 218, "trial": 67, "rt": 1886, "response": "Alpha"}, "68": {"stimulus": 343, "trial": 68, "rt": 1211, "response": "Alpha"}, "69": {"stimulus": 1249, "trial": 69, "rt": 895, "response": "Beta"}, "80": {"stimulus": 124, "trial": 80, "rt": 1044, "response": "Alpha"}, "52": {"stimulus": 2218, "trial": 52, "rt": 1135, "response": "Gamma"}, "53": {"stimulus": 1437, "trial": 53, "rt": 995, "response": "Beta"}, "24": {"stimulus": 1530, "trial": 24, "rt": 1669, "response": "Beta"}, "25": {"stimulus": 1405, "trial": 25, "rt": 2751, "response": "Gamma"}, "26": {"stimulus": 312, "trial": 26, "rt": 1366, "response": "Alpha"}, "27": {"stimulus": 905, "trial": 27, "rt": 2722, "response": "Alpha"}, "20": {"stimulus": 2374, "trial": 20, "rt": 3510, "response": "Beta"}, "21": {"stimulus": 2093, "trial": 21, "rt": 1042, "response": "Beta"}, "22": {"stimulus": 1030, "trial": 22, "rt": 1202, "response": "Alpha"}, "23": {"stimulus": 1218, "trial": 23, "rt": 1174, "response": "Alpha"}, "46": {"stimulus": 0, "trial": 46, "rt": 1401, "response": "Alpha"}, "47": {"stimulus": 1968, "trial": 47, "rt": 1716, "response": "Gamma"}, "44": {"stimulus": 687, "trial": 44, "rt": 912, "response": "Beta"}, "45": {"stimulus": 1749, "trial": 45, "rt": 1091, "response": "Beta"}, "28": {"stimulus": 968, "trial": 28, "rt": 1036, "response": "Alpha"}, "29": {"stimulus": 874, "trial": 29, "rt": 682, "response": "Alpha"}, "40": {"stimulus": 155, "trial": 40, "rt": 1412, "response": "Alpha"}, "41": {"stimulus": 1093, "trial": 41, "rt": 1103, "response": "Beta"}, "1": {"stimulus": 2187, "trial": 1, "rt": 4257, "response": "Beta"}, "0": {"stimulus": 1812, "trial": 0, "rt": 5446, "response": "Beta"}, "3": {"stimulus": 249, "trial": 3, "rt": 3134, "response": "Alpha"}, "2": {"stimulus": 999, "trial": 2, "rt": 1310, "response": "Alpha"}, "5": {"stimulus": 1593, "trial": 5, "rt": 1645, "response": "Beta"}, "4": {"stimulus": 1187, "trial": 4, "rt": 7073, "response": "Gamma"}, "7": {"stimulus": 2124, "trial": 7, "rt": 2741, "response": "Gamma"}, "6": {"stimulus": 1312, "trial": 6, "rt": 2221, "response": "Gamma"}, "9": {"stimulus": 812, "trial": 9, "rt": 4617, "response": "Gamma"}, "8": {"stimulus": 405, "trial": 8, "rt": 1459, "response": "Alpha"}, "78": {"stimulus": 2343, "trial": 78, "rt": 671, "response": "Beta"}, "51": {"stimulus": 374, "trial": 51, "rt": 961, "response": "Alpha"}, "39": {"stimulus": 1905, "trial": 39, "rt": 787, "response": "Gamma"}, "65": {"stimulus": 2405, "trial": 65, "rt": 974, "response": "Gamma"}, "76": {"stimulus": 187, "trial": 76, "rt": 1169, "response": "Alpha"}, "75": {"stimulus": 1780, "trial": 75, "rt": 1379, "response": "Gamma"}, "38": {"stimulus": 1155, "trial": 38, "rt": 974, "response": "Gamma"}, "73": {"stimulus": 2437, "trial": 73, "rt": 1010, "response": "Beta"}, "72": {"stimulus": 530, "trial": 72, "rt": 1002, "response": "Alpha"}, "71": {"stimulus": 2499, "trial": 71, "rt": 719, "response": "Beta"}, "70": {"stimulus": 2280, "trial": 70, "rt": 790, "response": "Beta"}, "59": {"stimulus": 1280, "trial": 59, "rt": 2264, "response": "Beta"}, "79": {"stimulus": 1937, "trial": 79, "rt": 598, "response": "Beta"}, "58": {"stimulus": 593, "trial": 58, "rt": 836, "response": "Alpha"}, "11": {"stimulus": 2468, "trial": 11, "rt": 1517, "response": "Gamma"}, "10": {"stimulus": 2155, "trial": 10, "rt": 1832, "response": "Gamma"}, "13": {"stimulus": 1687, "trial": 13, "rt": 1619, "response": "Beta"}, "12": {"stimulus": 93, "trial": 12, "rt": 2016, "response": "Alpha"}, "15": {"stimulus": 499, "trial": 15, "rt": 1100, "response": "Alpha"}, "14": {"stimulus": 2030, "trial": 14, "rt": 1006, "response": "Beta"}, "17": {"stimulus": 1124, "trial": 17, "rt": 1679, "response": "Alpha"}, "16": {"stimulus": 1999, "trial": 16, "rt": 1614, "response": "Beta"}, "19": {"stimulus": 437, "trial": 19, "rt": 2102, "response": "Alpha"}, "18": {"stimulus": 62, "trial": 18, "rt": 1213, "response": "Gamma"}, "31": {"stimulus": 1062, "trial": 31, "rt": 1679, "response": "Alpha"}, "30": {"stimulus": 280, "trial": 30, "rt": 1580, "response": "Alpha"}, "37": {"stimulus": 1468, "trial": 37, "rt": 905, "response": "Beta"}, "36": {"stimulus": 624, "trial": 36, "rt": 1423, "response": "Beta"}, "35": {"stimulus": 1655, "trial": 35, "rt": 753, "response": "Gamma"}, "34": {"stimulus": 2312, "trial": 34, "rt": 1386, "response": "Gamma"}, "33": {"stimulus": 562, "trial": 33, "rt": 1060, "response": "Alpha"}, "55": {"stimulus": 780, "trial": 55, "rt": 1061, "response": "Alpha"}, "74": {"stimulus": 1718, "trial": 74, "rt": 1011, "response": "Gamma"}, "32": {"stimulus": 30, "trial": 32, "rt": 1454, "response": "Alpha"}, "57": {"stimulus": 468, "trial": 57, "rt": 928, "response": "Alpha"}, "50": {"stimulus": 1499, "trial": 50, "rt": 1122, "response": "Beta"}}, "experiment": {"Paradigm": "TACL", "Stimuli": "Size-Color Squares", "Experiment": "Generating-Multiple-Categories"}, "submit": {"timeTotal": 414946, "age": "60", "comments": "Interesting categorization experiment.", "sex": "Female"}}