{"info": {"finish": 1548182850191, "participant": 391, "exposed": true, "lab": false, "start": 1548182501184, "counterbalance": 7, "gentype": 2, "condition": "Row", "browser": {"platform": "MacIntel", "userAgent": "Mozilla/5.0 (Macintosh; Intel Mac OS X 10_14_2) AppleWebKit/537.36 (KHTML, like Gecko) Chrome/71.0.3578.98 Safari/537.36"}}, "observation": {"11": {"stimulus": 493, "trial": 11, "rt": 1374}, "10": {"stimulus": 421, "trial": 10, "rt": 1447}, "1": {"stimulus": 582, "trial": 1, "rt": 1430}, "0": {"stimulus": 421, "trial": 0, "rt": 1991}, "3": {"stimulus": 612, "trial": 3, "rt": 1404}, "2": {"stimulus": 493, "trial": 2, "rt": 1408}, "5": {"stimulus": 582, "trial": 5, "rt": 10586}, "4": {"stimulus": 612, "trial": 4, "rt": 1552}, "7": {"stimulus": 493, "trial": 7, "rt": 2146}, "6": {"stimulus": 421, "trial": 6, "rt": 1686}, "9": {"stimulus": 612, "trial": 9, "rt": 1820}, "8": {"stimulus": 582, "trial": 8, "rt": 3128}}, "generation": {"1": {"category": "Beta", "trial": 1, "stimulus": 2457, "rt": 4490}, "0": {"category": "Beta", "trial": 0, "stimulus": 2450, "rt": 13136}, "3": {"category": "Beta", "trial": 3, "stimulus": 1250, "rt": 2881}, "2": {"category": "Beta", "trial": 2, "stimulus": 1653, "rt": 3408}, "5": {"category": "Gamma", "trial": 5, "stimulus": 1224, "rt": 5255}, "4": {"category": "Gamma", "trial": 4, "stimulus": 1477, "rt": 4007}, "7": {"category": "Gamma", "trial": 7, "stimulus": 1199, "rt": 5199}, "6": {"category": "Gamma", "trial": 6, "stimulus": 980, "rt": 7437}}, "generalization": {"56": {"stimulus": 1624, "trial": 56, "rt": 361, "response": "Gamma"}, "77": {"stimulus": 2312, "trial": 77, "rt": 225, "response": "Gamma"}, "54": {"stimulus": 1312, "trial": 54, "rt": 470, "response": "Alpha"}, "42": {"stimulus": 1093, "trial": 42, "rt": 198, "response": "Beta"}, "48": {"stimulus": 312, "trial": 48, "rt": 642, "response": "Alpha"}, "43": {"stimulus": 1280, "trial": 43, "rt": 278, "response": "Gamma"}, "60": {"stimulus": 2343, "trial": 60, "rt": 451, "response": "Gamma"}, "61": {"stimulus": 2218, "trial": 61, "rt": 469, "response": "Gamma"}, "62": {"stimulus": 1030, "trial": 62, "rt": 573, "response": "Beta"}, "63": {"stimulus": 2468, "trial": 63, "rt": 338, "response": "Alpha"}, "64": {"stimulus": 905, "trial": 64, "rt": 347, "response": "Gamma"}, "49": {"stimulus": 2093, "trial": 49, "rt": 316, "response": "Gamma"}, "66": {"stimulus": 1905, "trial": 66, "rt": 349, "response": "Alpha"}, "67": {"stimulus": 530, "trial": 67, "rt": 316, "response": "Beta"}, "68": {"stimulus": 1062, "trial": 68, "rt": 327, "response": "Gamma"}, "69": {"stimulus": 2187, "trial": 69, "rt": 473, "response": "Alpha"}, "80": {"stimulus": 374, "trial": 80, "rt": 197, "response": "Alpha"}, "52": {"stimulus": 843, "trial": 52, "rt": 266, "response": "Beta"}, "53": {"stimulus": 280, "trial": 53, "rt": 462, "response": "Alpha"}, "24": {"stimulus": 718, "trial": 24, "rt": 361, "response": "Gamma"}, "25": {"stimulus": 0, "trial": 25, "rt": 1069, "response": "Alpha"}, "26": {"stimulus": 1155, "trial": 26, "rt": 270, "response": "Gamma"}, "27": {"stimulus": 624, "trial": 27, "rt": 327, "response": "Beta"}, "20": {"stimulus": 1437, "trial": 20, "rt": 305, "response": "Alpha"}, "21": {"stimulus": 593, "trial": 21, "rt": 346, "response": "Alpha"}, "22": {"stimulus": 468, "trial": 22, "rt": 223, "response": "Beta"}, "23": {"stimulus": 1124, "trial": 23, "rt": 282, "response": "Gamma"}, "46": {"stimulus": 1499, "trial": 46, "rt": 562, "response": "Gamma"}, "47": {"stimulus": 2030, "trial": 47, "rt": 620, "response": "Beta"}, "44": {"stimulus": 874, "trial": 44, "rt": 190, "response": "Beta"}, "45": {"stimulus": 93, "trial": 45, "rt": 326, "response": "Alpha"}, "28": {"stimulus": 749, "trial": 28, "rt": 359, "response": "Gamma"}, "29": {"stimulus": 1468, "trial": 29, "rt": 585, "response": "Alpha"}, "40": {"stimulus": 2249, "trial": 40, "rt": 236, "response": "Beta"}, "41": {"stimulus": 1937, "trial": 41, "rt": 293, "response": "Alpha"}, "1": {"stimulus": 1562, "trial": 1, "rt": 1132, "response": "Beta"}, "0": {"stimulus": 2124, "trial": 0, "rt": 2126, "response": "Alpha"}, "3": {"stimulus": 499, "trial": 3, "rt": 395, "response": "Alpha"}, "2": {"stimulus": 562, "trial": 2, "rt": 708, "response": "Beta"}, "5": {"stimulus": 1780, "trial": 5, "rt": 384, "response": "Beta"}, "4": {"stimulus": 780, "trial": 4, "rt": 574, "response": "Gamma"}, "7": {"stimulus": 405, "trial": 7, "rt": 371, "response": "Alpha"}, "6": {"stimulus": 1687, "trial": 6, "rt": 383, "response": "Alpha"}, "9": {"stimulus": 249, "trial": 9, "rt": 495, "response": "Gamma"}, "8": {"stimulus": 2499, "trial": 8, "rt": 372, "response": "Gamma"}, "78": {"stimulus": 1968, "trial": 78, "rt": 169, "response": "Beta"}, "51": {"stimulus": 2374, "trial": 51, "rt": 659, "response": "Beta"}, "39": {"stimulus": 187, "trial": 39, "rt": 315, "response": "Alpha"}, "65": {"stimulus": 124, "trial": 65, "rt": 224, "response": "Beta"}, "76": {"stimulus": 1530, "trial": 76, "rt": 390, "response": "Alpha"}, "75": {"stimulus": 1374, "trial": 75, "rt": 344, "response": "Beta"}, "38": {"stimulus": 2062, "trial": 38, "rt": 91, "response": "Alpha"}, "73": {"stimulus": 1874, "trial": 73, "rt": 721, "response": "Beta"}, "72": {"stimulus": 1749, "trial": 72, "rt": 652, "response": "Alpha"}, "71": {"stimulus": 1249, "trial": 71, "rt": 462, "response": "Alpha"}, "70": {"stimulus": 1218, "trial": 70, "rt": 211, "response": "Beta"}, "59": {"stimulus": 655, "trial": 59, "rt": 225, "response": "Alpha"}, "79": {"stimulus": 1187, "trial": 79, "rt": 203, "response": "Gamma"}, "58": {"stimulus": 1718, "trial": 58, "rt": 381, "response": "Beta"}, "11": {"stimulus": 437, "trial": 11, "rt": 383, "response": "Alpha"}, "10": {"stimulus": 2155, "trial": 10, "rt": 719, "response": "Beta"}, "13": {"stimulus": 1843, "trial": 13, "rt": 312, "response": "Alpha"}, "12": {"stimulus": 2437, "trial": 12, "rt": 338, "response": "Beta"}, "15": {"stimulus": 343, "trial": 15, "rt": 451, "response": "Beta"}, "14": {"stimulus": 937, "trial": 14, "rt": 417, "response": "Alpha"}, "17": {"stimulus": 968, "trial": 17, "rt": 158, "response": "Gamma"}, "16": {"stimulus": 2280, "trial": 16, "rt": 356, "response": "Gamma"}, "19": {"stimulus": 62, "trial": 19, "rt": 266, "response": "Beta"}, "18": {"stimulus": 2405, "trial": 18, "rt": 439, "response": "Beta"}, "31": {"stimulus": 1999, "trial": 31, "rt": 1564, "response": "Beta"}, "30": {"stimulus": 1343, "trial": 30, "rt": 288, "response": "Alpha"}, "37": {"stimulus": 1812, "trial": 37, "rt": 1010, "response": "Gamma"}, "36": {"stimulus": 999, "trial": 36, "rt": 327, "response": "Gamma"}, "35": {"stimulus": 218, "trial": 35, "rt": 258, "response": "Beta"}, "34": {"stimulus": 687, "trial": 34, "rt": 291, "response": "Alpha"}, "33": {"stimulus": 30, "trial": 33, "rt": 382, "response": "Beta"}, "55": {"stimulus": 155, "trial": 55, "rt": 637, "response": "Alpha"}, "74": {"stimulus": 812, "trial": 74, "rt": 349, "response": "Gamma"}, "32": {"stimulus": 1593, "trial": 32, "rt": 2600, "response": "Alpha"}, "57": {"stimulus": 1405, "trial": 57, "rt": 164, "response": "Beta"}, "50": {"stimulus": 1655, "trial": 50, "rt": 538, "response": "Beta"}}, "experiment": {"Paradigm": "TACL", "Stimuli": "Size-Color Squares", "Experiment": "Generating-Multiple-Categories"}, "submit": {"timeTotal": 349350, "age": "21", "comments": "I thought it was very interesting!", "sex": "Male"}}