{"info": {"finish": 1548183492764, "participant": 392, "exposed": true, "lab": false, "start": 1548183137766, "counterbalance": 5, "gentype": 1, "condition": "Row", "browser": {"platform": "Win32", "userAgent": "Mozilla/5.0 (Windows NT 6.1; Win64; x64) AppleWebKit/537.36 (KHTML, like Gecko) Chrome/71.0.3578.98 Safari/537.36"}}, "observation": {"11": {"stimulus": 493, "trial": 11, "rt": 2374}, "10": {"stimulus": 582, "trial": 10, "rt": 2383}, "1": {"stimulus": 612, "trial": 1, "rt": 3303}, "0": {"stimulus": 582, "trial": 0, "rt": 3628}, "3": {"stimulus": 421, "trial": 3, "rt": 2159}, "2": {"stimulus": 493, "trial": 2, "rt": 2486}, "5": {"stimulus": 493, "trial": 5, "rt": 2157}, "4": {"stimulus": 421, "trial": 4, "rt": 2479}, "7": {"stimulus": 612, "trial": 7, "rt": 1638}, "6": {"stimulus": 582, "trial": 6, "rt": 1911}, "9": {"stimulus": 612, "trial": 9, "rt": 2070}, "8": {"stimulus": 421, "trial": 8, "rt": 2854}}, "generation": {"1": {"category": "Beta", "trial": 1, "stimulus": 2450, "rt": 6390}, "0": {"category": "Beta", "trial": 0, "stimulus": 0, "rt": 25868}, "3": {"category": "Beta", "trial": 3, "stimulus": 2050, "rt": 6062}, "2": {"category": "Beta", "trial": 2, "stimulus": 1150, "rt": 6596}, "5": {"category": "Beta", "trial": 5, "stimulus": 250, "rt": 7212}, "4": {"category": "Beta", "trial": 4, "stimulus": 2300, "rt": 5318}, "7": {"category": "Beta", "trial": 7, "stimulus": 800, "rt": 6775}, "6": {"category": "Beta", "trial": 6, "stimulus": 300, "rt": 4820}}, "generalization": {"56": {"stimulus": 2062, "trial": 56, "rt": 1503, "response": "Alpha"}, "77": {"stimulus": 2437, "trial": 77, "rt": 1342, "response": "Alpha"}, "54": {"stimulus": 280, "trial": 54, "rt": 1183, "response": "Alpha"}, "42": {"stimulus": 1499, "trial": 42, "rt": 960, "response": "Beta"}, "48": {"stimulus": 1530, "trial": 48, "rt": 1083, "response": "Alpha"}, "43": {"stimulus": 1812, "trial": 43, "rt": 1222, "response": "Alpha"}, "60": {"stimulus": 155, "trial": 60, "rt": 1062, "response": "Alpha"}, "61": {"stimulus": 1280, "trial": 61, "rt": 950, "response": "Alpha"}, "62": {"stimulus": 718, "trial": 62, "rt": 852, "response": "Alpha"}, "63": {"stimulus": 562, "trial": 63, "rt": 1118, "response": "Alpha"}, "64": {"stimulus": 1249, "trial": 64, "rt": 1030, "response": "Beta"}, "49": {"stimulus": 968, "trial": 49, "rt": 1138, "response": "Alpha"}, "66": {"stimulus": 843, "trial": 66, "rt": 2151, "response": "Beta"}, "67": {"stimulus": 2218, "trial": 67, "rt": 1508, "response": "Alpha"}, "68": {"stimulus": 2499, "trial": 68, "rt": 1089, "response": "Beta"}, "69": {"stimulus": 1843, "trial": 69, "rt": 1015, "response": "Beta"}, "80": {"stimulus": 1093, "trial": 80, "rt": 1215, "response": "Alpha"}, "52": {"stimulus": 905, "trial": 52, "rt": 1102, "response": "Beta"}, "53": {"stimulus": 1124, "trial": 53, "rt": 950, "response": "Alpha"}, "24": {"stimulus": 2249, "trial": 24, "rt": 1070, "response": "Beta"}, "25": {"stimulus": 218, "trial": 25, "rt": 1358, "response": "Alpha"}, "26": {"stimulus": 343, "trial": 26, "rt": 1071, "response": "Alpha"}, "27": {"stimulus": 2093, "trial": 27, "rt": 1198, "response": "Beta"}, "20": {"stimulus": 655, "trial": 20, "rt": 1120, "response": "Alpha"}, "21": {"stimulus": 1405, "trial": 21, "rt": 1262, "response": "Alpha"}, "22": {"stimulus": 1062, "trial": 22, "rt": 1126, "response": "Alpha"}, "23": {"stimulus": 1718, "trial": 23, "rt": 1222, "response": "Alpha"}, "46": {"stimulus": 1905, "trial": 46, "rt": 1495, "response": "Beta"}, "47": {"stimulus": 30, "trial": 47, "rt": 1055, "response": "Alpha"}, "44": {"stimulus": 1874, "trial": 44, "rt": 1503, "response": "Alpha"}, "45": {"stimulus": 1343, "trial": 45, "rt": 3526, "response": "Alpha"}, "28": {"stimulus": 593, "trial": 28, "rt": 1262, "response": "Alpha"}, "29": {"stimulus": 1655, "trial": 29, "rt": 1655, "response": "Beta"}, "40": {"stimulus": 1030, "trial": 40, "rt": 1254, "response": "Alpha"}, "41": {"stimulus": 749, "trial": 41, "rt": 1750, "response": "Beta"}, "1": {"stimulus": 2343, "trial": 1, "rt": 3286, "response": "Alpha"}, "0": {"stimulus": 1749, "trial": 0, "rt": 6508, "response": "Alpha"}, "3": {"stimulus": 62, "trial": 3, "rt": 2464, "response": "Alpha"}, "2": {"stimulus": 2374, "trial": 2, "rt": 1191, "response": "Alpha"}, "5": {"stimulus": 1937, "trial": 5, "rt": 1238, "response": "Alpha"}, "4": {"stimulus": 2405, "trial": 4, "rt": 1551, "response": "Beta"}, "7": {"stimulus": 1968, "trial": 7, "rt": 2295, "response": "Beta"}, "6": {"stimulus": 468, "trial": 6, "rt": 2255, "response": "Alpha"}, "9": {"stimulus": 624, "trial": 9, "rt": 2147, "response": "Alpha"}, "8": {"stimulus": 2030, "trial": 8, "rt": 2574, "response": "Alpha"}, "78": {"stimulus": 2187, "trial": 78, "rt": 1086, "response": "Alpha"}, "51": {"stimulus": 1187, "trial": 51, "rt": 1503, "response": "Alpha"}, "39": {"stimulus": 1312, "trial": 39, "rt": 958, "response": "Alpha"}, "65": {"stimulus": 1562, "trial": 65, "rt": 982, "response": "Alpha"}, "76": {"stimulus": 1155, "trial": 76, "rt": 1806, "response": "Alpha"}, "75": {"stimulus": 1624, "trial": 75, "rt": 830, "response": "Alpha"}, "38": {"stimulus": 2280, "trial": 38, "rt": 2510, "response": "Alpha"}, "73": {"stimulus": 312, "trial": 73, "rt": 790, "response": "Alpha"}, "72": {"stimulus": 93, "trial": 72, "rt": 749, "response": "Alpha"}, "71": {"stimulus": 2124, "trial": 71, "rt": 783, "response": "Alpha"}, "70": {"stimulus": 1687, "trial": 70, "rt": 1151, "response": "Alpha"}, "59": {"stimulus": 124, "trial": 59, "rt": 1207, "response": "Alpha"}, "79": {"stimulus": 1374, "trial": 79, "rt": 1031, "response": "Alpha"}, "58": {"stimulus": 1999, "trial": 58, "rt": 934, "response": "Beta"}, "11": {"stimulus": 1468, "trial": 11, "rt": 855, "response": "Alpha"}, "10": {"stimulus": 874, "trial": 10, "rt": 896, "response": "Alpha"}, "13": {"stimulus": 187, "trial": 13, "rt": 1239, "response": "Alpha"}, "12": {"stimulus": 1780, "trial": 12, "rt": 1159, "response": "Alpha"}, "15": {"stimulus": 2468, "trial": 15, "rt": 1537, "response": "Beta"}, "14": {"stimulus": 499, "trial": 14, "rt": 1917, "response": "Beta"}, "17": {"stimulus": 2155, "trial": 17, "rt": 1142, "response": "Beta"}, "16": {"stimulus": 2312, "trial": 16, "rt": 1167, "response": "Beta"}, "19": {"stimulus": 405, "trial": 19, "rt": 1095, "response": "Alpha"}, "18": {"stimulus": 1218, "trial": 18, "rt": 1191, "response": "Alpha"}, "31": {"stimulus": 687, "trial": 31, "rt": 1221, "response": "Alpha"}, "30": {"stimulus": 812, "trial": 30, "rt": 1414, "response": "Alpha"}, "37": {"stimulus": 530, "trial": 37, "rt": 1071, "response": "Alpha"}, "36": {"stimulus": 0, "trial": 36, "rt": 1485, "response": "Beta"}, "35": {"stimulus": 1437, "trial": 35, "rt": 1183, "response": "Alpha"}, "34": {"stimulus": 249, "trial": 34, "rt": 1175, "response": "Beta"}, "33": {"stimulus": 1593, "trial": 33, "rt": 1351, "response": "Alpha"}, "55": {"stimulus": 437, "trial": 55, "rt": 1190, "response": "Alpha"}, "74": {"stimulus": 780, "trial": 74, "rt": 1038, "response": "Alpha"}, "32": {"stimulus": 937, "trial": 32, "rt": 1167, "response": "Alpha"}, "57": {"stimulus": 999, "trial": 57, "rt": 1046, "response": "Beta"}, "50": {"stimulus": 374, "trial": 50, "rt": 1038, "response": "Alpha"}}, "experiment": {"Paradigm": "TACL", "Stimuli": "Size-Color Squares", "Experiment": "Generating-Multiple-Categories"}, "submit": {"timeTotal": 355253, "age": "48", "comments": "I wish I knew what you were studying", "sex": "female"}}