{"info": {"finish": 1548187005071, "participant": 402, "exposed": true, "lab": false, "start": 1548186523794, "counterbalance": 5, "gentype": 2, "condition": "XOR", "browser": {"platform": "Win32", "userAgent": "Mozilla/5.0 (Windows NT 10.0; Win64; x64) AppleWebKit/537.36 (KHTML, like Gecko) Chrome/71.0.3578.98 Safari/537.36"}}, "observation": {"11": {"stimulus": 1890, "trial": 11, "rt": 2700}, "10": {"stimulus": 1479, "trial": 10, "rt": 3063}, "1": {"stimulus": 1890, "trial": 1, "rt": 2528}, "0": {"stimulus": 818, "trial": 0, "rt": 2885}, "3": {"stimulus": 403, "trial": 3, "rt": 2739}, "2": {"stimulus": 1479, "trial": 2, "rt": 2125}, "5": {"stimulus": 403, "trial": 5, "rt": 1766}, "4": {"stimulus": 818, "trial": 4, "rt": 1956}, "7": {"stimulus": 1479, "trial": 7, "rt": 1965}, "6": {"stimulus": 1890, "trial": 6, "rt": 2361}, "9": {"stimulus": 403, "trial": 9, "rt": 2214}, "8": {"stimulus": 818, "trial": 8, "rt": 1835}}, "generation": {"1": {"category": "Beta", "trial": 1, "stimulus": 2450, "rt": 6834}, "0": {"category": "Beta", "trial": 0, "stimulus": 0, "rt": 17296}, "3": {"category": "Beta", "trial": 3, "stimulus": 2499, "rt": 7898}, "2": {"category": "Beta", "trial": 2, "stimulus": 49, "rt": 5988}, "5": {"category": "Gamma", "trial": 5, "stimulus": 1150, "rt": 5251}, "4": {"category": "Gamma", "trial": 4, "stimulus": 1299, "rt": 19531}, "7": {"category": "Gamma", "trial": 7, "stimulus": 2478, "rt": 6237}, "6": {"category": "Gamma", "trial": 6, "stimulus": 26, "rt": 8204}}, "generalization": {"56": {"stimulus": 1687, "trial": 56, "rt": 1069, "response": "Beta"}, "77": {"stimulus": 1499, "trial": 77, "rt": 407, "response": "Beta"}, "54": {"stimulus": 1530, "trial": 54, "rt": 824, "response": "Beta"}, "42": {"stimulus": 343, "trial": 42, "rt": 1138, "response": "Alpha"}, "48": {"stimulus": 468, "trial": 48, "rt": 968, "response": "Gamma"}, "43": {"stimulus": 312, "trial": 43, "rt": 834, "response": "Alpha"}, "60": {"stimulus": 405, "trial": 60, "rt": 578, "response": "Alpha"}, "61": {"stimulus": 30, "trial": 61, "rt": 497, "response": "Beta"}, "62": {"stimulus": 2437, "trial": 62, "rt": 813, "response": "Beta"}, "63": {"stimulus": 530, "trial": 63, "rt": 750, "response": "Beta"}, "64": {"stimulus": 499, "trial": 64, "rt": 683, "response": "Alpha"}, "49": {"stimulus": 937, "trial": 49, "rt": 1076, "response": "Beta"}, "66": {"stimulus": 874, "trial": 66, "rt": 703, "response": "Gamma"}, "67": {"stimulus": 1218, "trial": 67, "rt": 648, "response": "Beta"}, "68": {"stimulus": 1562, "trial": 68, "rt": 1145, "response": "Alpha"}, "69": {"stimulus": 218, "trial": 69, "rt": 814, "response": "Beta"}, "80": {"stimulus": 374, "trial": 80, "rt": 457, "response": "Alpha"}, "52": {"stimulus": 1655, "trial": 52, "rt": 712, "response": "Beta"}, "53": {"stimulus": 2030, "trial": 53, "rt": 732, "response": "Beta"}, "24": {"stimulus": 1937, "trial": 24, "rt": 695, "response": "Beta"}, "25": {"stimulus": 2280, "trial": 25, "rt": 579, "response": "Beta"}, "26": {"stimulus": 999, "trial": 26, "rt": 1362, "response": "Alpha"}, "27": {"stimulus": 1187, "trial": 27, "rt": 445, "response": "Alpha"}, "20": {"stimulus": 1124, "trial": 20, "rt": 1132, "response": "Alpha"}, "21": {"stimulus": 1874, "trial": 21, "rt": 920, "response": "Alpha"}, "22": {"stimulus": 1718, "trial": 22, "rt": 1064, "response": "Beta"}, "23": {"stimulus": 1812, "trial": 23, "rt": 579, "response": "Beta"}, "46": {"stimulus": 1280, "trial": 46, "rt": 711, "response": "Beta"}, "47": {"stimulus": 1155, "trial": 47, "rt": 1242, "response": "Gamma"}, "44": {"stimulus": 624, "trial": 44, "rt": 1146, "response": "Beta"}, "45": {"stimulus": 1593, "trial": 45, "rt": 755, "response": "Beta"}, "28": {"stimulus": 1905, "trial": 28, "rt": 807, "response": "Gamma"}, "29": {"stimulus": 62, "trial": 29, "rt": 1679, "response": "Beta"}, "40": {"stimulus": 718, "trial": 40, "rt": 1083, "response": "Gamma"}, "41": {"stimulus": 2124, "trial": 41, "rt": 2540, "response": "Beta"}, "1": {"stimulus": 905, "trial": 1, "rt": 1286, "response": "Alpha"}, "0": {"stimulus": 280, "trial": 0, "rt": 1862, "response": "Beta"}, "3": {"stimulus": 812, "trial": 3, "rt": 1108, "response": "Beta"}, "2": {"stimulus": 687, "trial": 2, "rt": 1023, "response": "Beta"}, "5": {"stimulus": 2405, "trial": 5, "rt": 1177, "response": "Beta"}, "4": {"stimulus": 2218, "trial": 4, "rt": 1467, "response": "Gamma"}, "7": {"stimulus": 187, "trial": 7, "rt": 1325, "response": "Beta"}, "6": {"stimulus": 655, "trial": 6, "rt": 1139, "response": "Beta"}, "9": {"stimulus": 968, "trial": 9, "rt": 1057, "response": "Alpha"}, "8": {"stimulus": 1468, "trial": 8, "rt": 1039, "response": "Alpha"}, "78": {"stimulus": 780, "trial": 78, "rt": 666, "response": "Gamma"}, "51": {"stimulus": 749, "trial": 51, "rt": 1244, "response": "Alpha"}, "39": {"stimulus": 1843, "trial": 39, "rt": 647, "response": "Beta"}, "65": {"stimulus": 1780, "trial": 65, "rt": 807, "response": "Beta"}, "76": {"stimulus": 1437, "trial": 76, "rt": 439, "response": "Beta"}, "75": {"stimulus": 249, "trial": 75, "rt": 366, "response": "Beta"}, "38": {"stimulus": 2062, "trial": 38, "rt": 714, "response": "Beta"}, "73": {"stimulus": 0, "trial": 73, "rt": 424, "response": "Beta"}, "72": {"stimulus": 93, "trial": 72, "rt": 438, "response": "Beta"}, "71": {"stimulus": 2468, "trial": 71, "rt": 463, "response": "Beta"}, "70": {"stimulus": 2093, "trial": 70, "rt": 539, "response": "Beta"}, "59": {"stimulus": 562, "trial": 59, "rt": 632, "response": "Gamma"}, "79": {"stimulus": 1624, "trial": 79, "rt": 1246, "response": "Beta"}, "58": {"stimulus": 2374, "trial": 58, "rt": 903, "response": "Gamma"}, "11": {"stimulus": 2249, "trial": 11, "rt": 690, "response": "Beta"}, "10": {"stimulus": 2499, "trial": 10, "rt": 965, "response": "Beta"}, "13": {"stimulus": 124, "trial": 13, "rt": 1426, "response": "Alpha"}, "12": {"stimulus": 437, "trial": 12, "rt": 1348, "response": "Gamma"}, "15": {"stimulus": 1405, "trial": 15, "rt": 1177, "response": "Gamma"}, "14": {"stimulus": 1374, "trial": 14, "rt": 838, "response": "Beta"}, "17": {"stimulus": 1749, "trial": 17, "rt": 746, "response": "Alpha"}, "16": {"stimulus": 1968, "trial": 16, "rt": 767, "response": "Beta"}, "19": {"stimulus": 1312, "trial": 19, "rt": 502, "response": "Beta"}, "18": {"stimulus": 1030, "trial": 18, "rt": 735, "response": "Beta"}, "31": {"stimulus": 2312, "trial": 31, "rt": 900, "response": "Alpha"}, "30": {"stimulus": 843, "trial": 30, "rt": 608, "response": "Beta"}, "37": {"stimulus": 1249, "trial": 37, "rt": 715, "response": "Beta"}, "36": {"stimulus": 2155, "trial": 36, "rt": 636, "response": "Beta"}, "35": {"stimulus": 1343, "trial": 35, "rt": 618, "response": "Alpha"}, "34": {"stimulus": 155, "trial": 34, "rt": 1011, "response": "Alpha"}, "33": {"stimulus": 1062, "trial": 33, "rt": 1427, "response": "Alpha"}, "55": {"stimulus": 2187, "trial": 55, "rt": 866, "response": "Beta"}, "74": {"stimulus": 593, "trial": 74, "rt": 435, "response": "Beta"}, "32": {"stimulus": 2343, "trial": 32, "rt": 719, "response": "Beta"}, "57": {"stimulus": 1999, "trial": 57, "rt": 1719, "response": "Beta"}, "50": {"stimulus": 1093, "trial": 50, "rt": 615, "response": "Beta"}}, "experiment": {"Paradigm": "TACL", "Stimuli": "Size-Color Squares", "Experiment": "Generating-Multiple-Categories"}, "submit": {"timeTotal": 481653, "age": "50", "comments": "None, thank you.", "sex": "Male"}}