{"info": {"finish": 1548187615097, "participant": 403, "exposed": true, "lab": false, "start": 1548187235566, "counterbalance": 3, "gentype": 0, "condition": "XOR", "browser": {"platform": "Win32", "userAgent": "Mozilla/5.0 (Windows NT 10.0; Win64; x64) AppleWebKit/537.36 (KHTML, like Gecko) Chrome/71.0.3578.98 Safari/537.36"}}, "observation": {"11": {"stimulus": 403, "trial": 11, "rt": 1646}, "10": {"stimulus": 1890, "trial": 10, "rt": 1687}, "1": {"stimulus": 1479, "trial": 1, "rt": 3246}, "0": {"stimulus": 403, "trial": 0, "rt": 5338}, "3": {"stimulus": 1890, "trial": 3, "rt": 3095}, "2": {"stimulus": 818, "trial": 2, "rt": 2775}, "5": {"stimulus": 818, "trial": 5, "rt": 2248}, "4": {"stimulus": 403, "trial": 4, "rt": 2319}, "7": {"stimulus": 1890, "trial": 7, "rt": 1647}, "6": {"stimulus": 1479, "trial": 6, "rt": 1911}, "9": {"stimulus": 1479, "trial": 9, "rt": 2078}, "8": {"stimulus": 818, "trial": 8, "rt": 2605}}, "generation": {"1": {"category": "Not-Alpha", "trial": 1, "stimulus": 2499, "rt": 5893}, "0": {"category": "Not-Alpha", "trial": 0, "stimulus": 5, "rt": 14347}, "3": {"category": "Not-Alpha", "trial": 3, "stimulus": 27, "rt": 5844}, "2": {"category": "Not-Alpha", "trial": 2, "stimulus": 2148, "rt": 6195}, "5": {"category": "Not-Alpha", "trial": 5, "stimulus": 649, "rt": 4669}, "4": {"category": "Not-Alpha", "trial": 4, "stimulus": 148, "rt": 5750}, "7": {"category": "Not-Alpha", "trial": 7, "stimulus": 1862, "rt": 4542}, "6": {"category": "Not-Alpha", "trial": 6, "stimulus": 2450, "rt": 7125}}, "generalization": {"56": {"stimulus": 1905, "trial": 56, "rt": 1575, "response": "Beta"}, "77": {"stimulus": 1562, "trial": 77, "rt": 790, "response": "Alpha"}, "54": {"stimulus": 30, "trial": 54, "rt": 21948, "response": "Beta"}, "42": {"stimulus": 968, "trial": 42, "rt": 934, "response": "Alpha"}, "48": {"stimulus": 312, "trial": 48, "rt": 1887, "response": "Alpha"}, "43": {"stimulus": 687, "trial": 43, "rt": 1743, "response": "Alpha"}, "60": {"stimulus": 62, "trial": 60, "rt": 991, "response": "Beta"}, "61": {"stimulus": 874, "trial": 61, "rt": 940, "response": "Alpha"}, "62": {"stimulus": 1687, "trial": 62, "rt": 928, "response": "Alpha"}, "63": {"stimulus": 1343, "trial": 63, "rt": 1565, "response": "Alpha"}, "64": {"stimulus": 999, "trial": 64, "rt": 1286, "response": "Alpha"}, "49": {"stimulus": 2312, "trial": 49, "rt": 1350, "response": "Beta"}, "66": {"stimulus": 93, "trial": 66, "rt": 2046, "response": "Beta"}, "67": {"stimulus": 1968, "trial": 67, "rt": 1006, "response": "Beta"}, "68": {"stimulus": 2030, "trial": 68, "rt": 798, "response": "Beta"}, "69": {"stimulus": 593, "trial": 69, "rt": 982, "response": "Alpha"}, "80": {"stimulus": 280, "trial": 80, "rt": 1062, "response": "Beta"}, "52": {"stimulus": 655, "trial": 52, "rt": 1030, "response": "Alpha"}, "53": {"stimulus": 155, "trial": 53, "rt": 1693, "response": "Beta"}, "24": {"stimulus": 0, "trial": 24, "rt": 4381, "response": "Alpha"}, "25": {"stimulus": 1530, "trial": 25, "rt": 1335, "response": "Alpha"}, "26": {"stimulus": 374, "trial": 26, "rt": 1238, "response": "Alpha"}, "27": {"stimulus": 2499, "trial": 27, "rt": 1207, "response": "Alpha"}, "20": {"stimulus": 2374, "trial": 20, "rt": 1590, "response": "Beta"}, "21": {"stimulus": 1843, "trial": 21, "rt": 1167, "response": "Alpha"}, "22": {"stimulus": 1062, "trial": 22, "rt": 1094, "response": "Alpha"}, "23": {"stimulus": 937, "trial": 23, "rt": 1255, "response": "Alpha"}, "46": {"stimulus": 1812, "trial": 46, "rt": 741, "response": "Beta"}, "47": {"stimulus": 2062, "trial": 47, "rt": 719, "response": "Beta"}, "44": {"stimulus": 1124, "trial": 44, "rt": 783, "response": "Alpha"}, "45": {"stimulus": 1155, "trial": 45, "rt": 1558, "response": "Beta"}, "28": {"stimulus": 2155, "trial": 28, "rt": 1104, "response": "Alpha"}, "29": {"stimulus": 1749, "trial": 29, "rt": 1069, "response": "Beta"}, "40": {"stimulus": 2093, "trial": 40, "rt": 1350, "response": "Beta"}, "41": {"stimulus": 1468, "trial": 41, "rt": 1319, "response": "Alpha"}, "1": {"stimulus": 1593, "trial": 1, "rt": 1526, "response": "Alpha"}, "0": {"stimulus": 624, "trial": 0, "rt": 2390, "response": "Alpha"}, "3": {"stimulus": 499, "trial": 3, "rt": 1469, "response": "Beta"}, "2": {"stimulus": 2187, "trial": 2, "rt": 1343, "response": "Beta"}, "5": {"stimulus": 249, "trial": 5, "rt": 2064, "response": "Beta"}, "4": {"stimulus": 749, "trial": 4, "rt": 1751, "response": "Alpha"}, "7": {"stimulus": 1374, "trial": 7, "rt": 1742, "response": "Alpha"}, "6": {"stimulus": 1030, "trial": 6, "rt": 1436, "response": "Alpha"}, "9": {"stimulus": 2280, "trial": 9, "rt": 1061, "response": "Beta"}, "8": {"stimulus": 843, "trial": 8, "rt": 1997, "response": "Alpha"}, "78": {"stimulus": 2468, "trial": 78, "rt": 686, "response": "Alpha"}, "51": {"stimulus": 1218, "trial": 51, "rt": 1277, "response": "Alpha"}, "39": {"stimulus": 1093, "trial": 39, "rt": 1503, "response": "Alpha"}, "65": {"stimulus": 1187, "trial": 65, "rt": 2310, "response": "Alpha"}, "76": {"stimulus": 468, "trial": 76, "rt": 919, "response": "Alpha"}, "75": {"stimulus": 437, "trial": 75, "rt": 823, "response": "Alpha"}, "38": {"stimulus": 1437, "trial": 38, "rt": 1166, "response": "Alpha"}, "73": {"stimulus": 1499, "trial": 73, "rt": 1215, "response": "Alpha"}, "72": {"stimulus": 2405, "trial": 72, "rt": 917, "response": "Alpha"}, "71": {"stimulus": 1280, "trial": 71, "rt": 910, "response": "Alpha"}, "70": {"stimulus": 2249, "trial": 70, "rt": 878, "response": "Alpha"}, "59": {"stimulus": 1874, "trial": 59, "rt": 1454, "response": "Beta"}, "79": {"stimulus": 1405, "trial": 79, "rt": 910, "response": "Alpha"}, "58": {"stimulus": 780, "trial": 58, "rt": 1462, "response": "Alpha"}, "11": {"stimulus": 1999, "trial": 11, "rt": 1807, "response": "Alpha"}, "10": {"stimulus": 1937, "trial": 10, "rt": 1247, "response": "Beta"}, "13": {"stimulus": 124, "trial": 13, "rt": 1287, "response": "Alpha"}, "12": {"stimulus": 187, "trial": 12, "rt": 2069, "response": "Beta"}, "15": {"stimulus": 2437, "trial": 15, "rt": 1598, "response": "Beta"}, "14": {"stimulus": 218, "trial": 14, "rt": 1542, "response": "Alpha"}, "17": {"stimulus": 1624, "trial": 17, "rt": 1630, "response": "Beta"}, "16": {"stimulus": 562, "trial": 16, "rt": 1990, "response": "Alpha"}, "19": {"stimulus": 2218, "trial": 19, "rt": 1328, "response": "Beta"}, "18": {"stimulus": 1655, "trial": 18, "rt": 2199, "response": "Beta"}, "31": {"stimulus": 530, "trial": 31, "rt": 2151, "response": "Beta"}, "30": {"stimulus": 1780, "trial": 30, "rt": 1173, "response": "Beta"}, "37": {"stimulus": 1312, "trial": 37, "rt": 799, "response": "Alpha"}, "36": {"stimulus": 1249, "trial": 36, "rt": 1950, "response": "Alpha"}, "35": {"stimulus": 405, "trial": 35, "rt": 1222, "response": "Beta"}, "34": {"stimulus": 718, "trial": 34, "rt": 1250, "response": "Alpha"}, "33": {"stimulus": 1718, "trial": 33, "rt": 1047, "response": "Alpha"}, "55": {"stimulus": 905, "trial": 55, "rt": 1309, "response": "Alpha"}, "74": {"stimulus": 2343, "trial": 74, "rt": 1197, "response": "Beta"}, "32": {"stimulus": 2124, "trial": 32, "rt": 5134, "response": "Alpha"}, "57": {"stimulus": 812, "trial": 57, "rt": 1078, "response": "Alpha"}, "50": {"stimulus": 343, "trial": 50, "rt": 1252, "response": "Beta"}}, "experiment": {"Paradigm": "TACL", "Stimuli": "Size-Color Squares", "Experiment": "Generating-Multiple-Categories"}, "submit": {"timeTotal": 379866, "age": "52", "comments": "definitely different, interesting", "sex": "female"}}