{"info": {"finish": 1548191838554, "participant": 407, "exposed": true, "lab": false, "start": 1548191501831, "counterbalance": 4, "gentype": 0, "condition": "XOR", "browser": {"platform": "Win32", "userAgent": "Mozilla/5.0 (Windows NT 10.0; Win64; x64) AppleWebKit/537.36 (KHTML, like Gecko) Chrome/71.0.3578.98 Safari/537.36"}}, "observation": {"11": {"stimulus": 1479, "trial": 11, "rt": 1503}, "10": {"stimulus": 1890, "trial": 10, "rt": 1420}, "1": {"stimulus": 1479, "trial": 1, "rt": 1967}, "0": {"stimulus": 1890, "trial": 0, "rt": 2838}, "3": {"stimulus": 818, "trial": 3, "rt": 2427}, "2": {"stimulus": 403, "trial": 2, "rt": 1818}, "5": {"stimulus": 1479, "trial": 5, "rt": 1982}, "4": {"stimulus": 403, "trial": 4, "rt": 1897}, "7": {"stimulus": 1890, "trial": 7, "rt": 1623}, "6": {"stimulus": 818, "trial": 6, "rt": 1686}, "9": {"stimulus": 403, "trial": 9, "rt": 1631}, "8": {"stimulus": 818, "trial": 8, "rt": 1694}}, "generation": {"1": {"category": "Not-Alpha", "trial": 1, "stimulus": 2399, "rt": 10197}, "0": {"category": "Not-Alpha", "trial": 0, "stimulus": 2450, "rt": 21959}, "3": {"category": "Not-Alpha", "trial": 3, "stimulus": 0, "rt": 5293}, "2": {"category": "Not-Alpha", "trial": 2, "stimulus": 2452, "rt": 9480}, "5": {"category": "Not-Alpha", "trial": 5, "stimulus": 49, "rt": 4745}, "4": {"category": "Not-Alpha", "trial": 4, "stimulus": 2, "rt": 5825}, "7": {"category": "Not-Alpha", "trial": 7, "stimulus": 2448, "rt": 7503}, "6": {"category": "Not-Alpha", "trial": 6, "stimulus": 46, "rt": 8387}}, "generalization": {"56": {"stimulus": 968, "trial": 56, "rt": 528, "response": "Alpha"}, "77": {"stimulus": 93, "trial": 77, "rt": 638, "response": "Beta"}, "54": {"stimulus": 1030, "trial": 54, "rt": 929, "response": "Alpha"}, "42": {"stimulus": 1780, "trial": 42, "rt": 879, "response": "Alpha"}, "48": {"stimulus": 1093, "trial": 48, "rt": 460, "response": "Alpha"}, "43": {"stimulus": 2405, "trial": 43, "rt": 1038, "response": "Beta"}, "60": {"stimulus": 2062, "trial": 60, "rt": 1483, "response": "Beta"}, "61": {"stimulus": 1687, "trial": 61, "rt": 1139, "response": "Alpha"}, "62": {"stimulus": 187, "trial": 62, "rt": 490, "response": "Alpha"}, "63": {"stimulus": 2187, "trial": 63, "rt": 1405, "response": "Beta"}, "64": {"stimulus": 124, "trial": 64, "rt": 1247, "response": "Beta"}, "49": {"stimulus": 1999, "trial": 49, "rt": 429, "response": "Alpha"}, "66": {"stimulus": 1968, "trial": 66, "rt": 1491, "response": "Beta"}, "67": {"stimulus": 312, "trial": 67, "rt": 958, "response": "Alpha"}, "68": {"stimulus": 1312, "trial": 68, "rt": 577, "response": "Alpha"}, "69": {"stimulus": 2030, "trial": 69, "rt": 1687, "response": "Alpha"}, "80": {"stimulus": 2155, "trial": 80, "rt": 1108, "response": "Beta"}, "52": {"stimulus": 718, "trial": 52, "rt": 474, "response": "Alpha"}, "53": {"stimulus": 218, "trial": 53, "rt": 678, "response": "Alpha"}, "24": {"stimulus": 1374, "trial": 24, "rt": 835, "response": "Alpha"}, "25": {"stimulus": 2343, "trial": 25, "rt": 1232, "response": "Beta"}, "26": {"stimulus": 2249, "trial": 26, "rt": 779, "response": "Beta"}, "27": {"stimulus": 2468, "trial": 27, "rt": 765, "response": "Beta"}, "20": {"stimulus": 1343, "trial": 20, "rt": 999, "response": "Alpha"}, "21": {"stimulus": 843, "trial": 21, "rt": 474, "response": "Alpha"}, "22": {"stimulus": 374, "trial": 22, "rt": 568, "response": "Alpha"}, "23": {"stimulus": 468, "trial": 23, "rt": 608, "response": "Alpha"}, "46": {"stimulus": 2218, "trial": 46, "rt": 920, "response": "Beta"}, "47": {"stimulus": 1843, "trial": 47, "rt": 1286, "response": "Alpha"}, "44": {"stimulus": 2312, "trial": 44, "rt": 757, "response": "Beta"}, "45": {"stimulus": 437, "trial": 45, "rt": 1081, "response": "Alpha"}, "28": {"stimulus": 1874, "trial": 28, "rt": 3308, "response": "Beta"}, "29": {"stimulus": 1218, "trial": 29, "rt": 935, "response": "Alpha"}, "40": {"stimulus": 687, "trial": 40, "rt": 491, "response": "Alpha"}, "41": {"stimulus": 655, "trial": 41, "rt": 694, "response": "Alpha"}, "1": {"stimulus": 1155, "trial": 1, "rt": 1726, "response": "Alpha"}, "0": {"stimulus": 499, "trial": 0, "rt": 3495, "response": "Beta"}, "3": {"stimulus": 1905, "trial": 3, "rt": 2052, "response": "Alpha"}, "2": {"stimulus": 624, "trial": 2, "rt": 1170, "response": "Alpha"}, "5": {"stimulus": 249, "trial": 5, "rt": 2138, "response": "Alpha"}, "4": {"stimulus": 2437, "trial": 4, "rt": 1366, "response": "Beta"}, "7": {"stimulus": 749, "trial": 7, "rt": 1015, "response": "Alpha"}, "6": {"stimulus": 343, "trial": 6, "rt": 889, "response": "Alpha"}, "9": {"stimulus": 1562, "trial": 9, "rt": 1506, "response": "Alpha"}, "8": {"stimulus": 999, "trial": 8, "rt": 1225, "response": "Alpha"}, "78": {"stimulus": 1655, "trial": 78, "rt": 1179, "response": "Alpha"}, "51": {"stimulus": 1499, "trial": 51, "rt": 914, "response": "Alpha"}, "39": {"stimulus": 1530, "trial": 39, "rt": 538, "response": "Alpha"}, "65": {"stimulus": 937, "trial": 65, "rt": 868, "response": "Alpha"}, "76": {"stimulus": 0, "trial": 76, "rt": 1171, "response": "Beta"}, "75": {"stimulus": 1937, "trial": 75, "rt": 920, "response": "Alpha"}, "38": {"stimulus": 1812, "trial": 38, "rt": 709, "response": "Alpha"}, "73": {"stimulus": 2374, "trial": 73, "rt": 1029, "response": "Beta"}, "72": {"stimulus": 593, "trial": 72, "rt": 1019, "response": "Alpha"}, "71": {"stimulus": 2280, "trial": 71, "rt": 1444, "response": "Beta"}, "70": {"stimulus": 905, "trial": 70, "rt": 1433, "response": "Alpha"}, "59": {"stimulus": 405, "trial": 59, "rt": 1185, "response": "Beta"}, "79": {"stimulus": 1249, "trial": 79, "rt": 750, "response": "Alpha"}, "58": {"stimulus": 1405, "trial": 58, "rt": 958, "response": "Alpha"}, "11": {"stimulus": 1593, "trial": 11, "rt": 883, "response": "Alpha"}, "10": {"stimulus": 1468, "trial": 10, "rt": 942, "response": "Alpha"}, "13": {"stimulus": 1187, "trial": 13, "rt": 786, "response": "Alpha"}, "12": {"stimulus": 1062, "trial": 12, "rt": 1302, "response": "Alpha"}, "15": {"stimulus": 1280, "trial": 15, "rt": 683, "response": "Alpha"}, "14": {"stimulus": 780, "trial": 14, "rt": 632, "response": "Alpha"}, "17": {"stimulus": 1124, "trial": 17, "rt": 1193, "response": "Alpha"}, "16": {"stimulus": 2124, "trial": 16, "rt": 1266, "response": "Beta"}, "19": {"stimulus": 1624, "trial": 19, "rt": 1069, "response": "Beta"}, "18": {"stimulus": 812, "trial": 18, "rt": 670, "response": "Alpha"}, "31": {"stimulus": 280, "trial": 31, "rt": 887, "response": "Alpha"}, "30": {"stimulus": 1749, "trial": 30, "rt": 1193, "response": "Alpha"}, "37": {"stimulus": 1718, "trial": 37, "rt": 1124, "response": "Alpha"}, "36": {"stimulus": 2499, "trial": 36, "rt": 1270, "response": "Beta"}, "35": {"stimulus": 562, "trial": 35, "rt": 732, "response": "Alpha"}, "34": {"stimulus": 155, "trial": 34, "rt": 2489, "response": "Alpha"}, "33": {"stimulus": 1437, "trial": 33, "rt": 1625, "response": "Alpha"}, "55": {"stimulus": 874, "trial": 55, "rt": 516, "response": "Alpha"}, "74": {"stimulus": 62, "trial": 74, "rt": 1426, "response": "Beta"}, "32": {"stimulus": 30, "trial": 32, "rt": 1013, "response": "Beta"}, "57": {"stimulus": 530, "trial": 57, "rt": 609, "response": "Alpha"}, "50": {"stimulus": 2093, "trial": 50, "rt": 2012, "response": "Beta"}}, "experiment": {"Paradigm": "TACL", "Stimuli": "Size-Color Squares", "Experiment": "Generating-Multiple-Categories"}, "submit": {"timeTotal": 336853, "age": "59", "comments": "very interesting", "sex": "male"}}