{"info": {"finish": 1548196483981, "participant": 426, "exposed": true, "lab": false, "start": 1548195967829, "counterbalance": 5, "gentype": 2, "condition": "XOR", "browser": {"platform": "Win32", "userAgent": "Mozilla/5.0 (Windows NT 10.0; Win64; x64) AppleWebKit/537.36 (KHTML, like Gecko) Chrome/71.0.3578.98 Safari/537.36"}}, "observation": {"11": {"stimulus": 403, "trial": 11, "rt": 1496}, "10": {"stimulus": 1890, "trial": 10, "rt": 2351}, "1": {"stimulus": 1479, "trial": 1, "rt": 2962}, "0": {"stimulus": 1890, "trial": 0, "rt": 2294}, "3": {"stimulus": 818, "trial": 3, "rt": 2663}, "2": {"stimulus": 403, "trial": 2, "rt": 1961}, "5": {"stimulus": 1890, "trial": 5, "rt": 1572}, "4": {"stimulus": 1479, "trial": 4, "rt": 2137}, "7": {"stimulus": 403, "trial": 7, "rt": 2054}, "6": {"stimulus": 818, "trial": 6, "rt": 1869}, "9": {"stimulus": 818, "trial": 9, "rt": 2150}, "8": {"stimulus": 1479, "trial": 8, "rt": 1979}}, "generation": {"1": {"category": "Beta", "trial": 1, "stimulus": 49, "rt": 5451}, "0": {"category": "Beta", "trial": 0, "stimulus": 2450, "rt": 20440}, "3": {"category": "Beta", "trial": 3, "stimulus": 36, "rt": 7775}, "2": {"category": "Beta", "trial": 2, "stimulus": 2458, "rt": 12291}, "5": {"category": "Gamma", "trial": 5, "stimulus": 2475, "rt": 4498}, "4": {"category": "Gamma", "trial": 4, "stimulus": 24, "rt": 16740}, "7": {"category": "Gamma", "trial": 7, "stimulus": 1813, "rt": 7052}, "6": {"category": "Gamma", "trial": 6, "stimulus": 588, "rt": 11692}}, "generalization": {"56": {"stimulus": 2187, "trial": 56, "rt": 1733, "response": "Alpha"}, "77": {"stimulus": 2155, "trial": 77, "rt": 1962, "response": "Beta"}, "54": {"stimulus": 687, "trial": 54, "rt": 2382, "response": "Beta"}, "42": {"stimulus": 93, "trial": 42, "rt": 1485, "response": "Beta"}, "48": {"stimulus": 1530, "trial": 48, "rt": 5940, "response": "Alpha"}, "43": {"stimulus": 2249, "trial": 43, "rt": 1164, "response": "Alpha"}, "60": {"stimulus": 2343, "trial": 60, "rt": 1147, "response": "Alpha"}, "61": {"stimulus": 1780, "trial": 61, "rt": 1356, "response": "Alpha"}, "62": {"stimulus": 2280, "trial": 62, "rt": 1267, "response": "Alpha"}, "63": {"stimulus": 187, "trial": 63, "rt": 2903, "response": "Beta"}, "64": {"stimulus": 2062, "trial": 64, "rt": 1975, "response": "Beta"}, "49": {"stimulus": 624, "trial": 49, "rt": 3230, "response": "Gamma"}, "66": {"stimulus": 1093, "trial": 66, "rt": 2202, "response": "Gamma"}, "67": {"stimulus": 1155, "trial": 67, "rt": 3150, "response": "Gamma"}, "68": {"stimulus": 749, "trial": 68, "rt": 6220, "response": "Beta"}, "69": {"stimulus": 1374, "trial": 69, "rt": 6956, "response": "Alpha"}, "80": {"stimulus": 312, "trial": 80, "rt": 4834, "response": "Alpha"}, "52": {"stimulus": 1249, "trial": 52, "rt": 1623, "response": "Alpha"}, "53": {"stimulus": 2499, "trial": 53, "rt": 928, "response": "Alpha"}, "24": {"stimulus": 1405, "trial": 24, "rt": 1640, "response": "Beta"}, "25": {"stimulus": 499, "trial": 25, "rt": 2311, "response": "Beta"}, "26": {"stimulus": 937, "trial": 26, "rt": 4982, "response": "Beta"}, "27": {"stimulus": 405, "trial": 27, "rt": 1349, "response": "Alpha"}, "20": {"stimulus": 218, "trial": 20, "rt": 2429, "response": "Gamma"}, "21": {"stimulus": 2124, "trial": 21, "rt": 2585, "response": "Alpha"}, "22": {"stimulus": 655, "trial": 22, "rt": 2045, "response": "Alpha"}, "23": {"stimulus": 1562, "trial": 23, "rt": 10489, "response": "Beta"}, "46": {"stimulus": 562, "trial": 46, "rt": 1321, "response": "Gamma"}, "47": {"stimulus": 1062, "trial": 47, "rt": 3446, "response": "Gamma"}, "44": {"stimulus": 343, "trial": 44, "rt": 2685, "response": "Beta"}, "45": {"stimulus": 1812, "trial": 45, "rt": 3449, "response": "Beta"}, "28": {"stimulus": 1843, "trial": 28, "rt": 1002, "response": "Alpha"}, "29": {"stimulus": 30, "trial": 29, "rt": 5632, "response": "Gamma"}, "40": {"stimulus": 2218, "trial": 40, "rt": 1122, "response": "Beta"}, "41": {"stimulus": 1968, "trial": 41, "rt": 757, "response": "Beta"}, "1": {"stimulus": 843, "trial": 1, "rt": 6446, "response": "Gamma"}, "0": {"stimulus": 2437, "trial": 0, "rt": 3986, "response": "Alpha"}, "3": {"stimulus": 1218, "trial": 3, "rt": 2123, "response": "Beta"}, "2": {"stimulus": 2312, "trial": 2, "rt": 2909, "response": "Beta"}, "5": {"stimulus": 62, "trial": 5, "rt": 1687, "response": "Alpha"}, "4": {"stimulus": 1937, "trial": 4, "rt": 2152, "response": "Alpha"}, "7": {"stimulus": 2374, "trial": 7, "rt": 3594, "response": "Gamma"}, "6": {"stimulus": 437, "trial": 6, "rt": 5262, "response": "Beta"}, "9": {"stimulus": 968, "trial": 9, "rt": 1506, "response": "Alpha"}, "8": {"stimulus": 1280, "trial": 8, "rt": 3278, "response": "Gamma"}, "78": {"stimulus": 1468, "trial": 78, "rt": 1192, "response": "Beta"}, "51": {"stimulus": 1312, "trial": 51, "rt": 1778, "response": "Beta"}, "39": {"stimulus": 1343, "trial": 39, "rt": 3723, "response": "Gamma"}, "65": {"stimulus": 1874, "trial": 65, "rt": 6903, "response": "Alpha"}, "76": {"stimulus": 593, "trial": 76, "rt": 1482, "response": "Beta"}, "75": {"stimulus": 468, "trial": 75, "rt": 4770, "response": "Gamma"}, "38": {"stimulus": 374, "trial": 38, "rt": 7566, "response": "Gamma"}, "73": {"stimulus": 1718, "trial": 73, "rt": 1709, "response": "Alpha"}, "72": {"stimulus": 1124, "trial": 72, "rt": 1754, "response": "Alpha"}, "71": {"stimulus": 155, "trial": 71, "rt": 1152, "response": "Alpha"}, "70": {"stimulus": 280, "trial": 70, "rt": 1840, "response": "Beta"}, "59": {"stimulus": 905, "trial": 59, "rt": 3453, "response": "Alpha"}, "79": {"stimulus": 530, "trial": 79, "rt": 1993, "response": "Beta"}, "58": {"stimulus": 249, "trial": 58, "rt": 3119, "response": "Beta"}, "11": {"stimulus": 0, "trial": 11, "rt": 1514, "response": "Beta"}, "10": {"stimulus": 1687, "trial": 10, "rt": 893, "response": "Alpha"}, "13": {"stimulus": 2468, "trial": 13, "rt": 2518, "response": "Beta"}, "12": {"stimulus": 874, "trial": 12, "rt": 3109, "response": "Beta"}, "15": {"stimulus": 812, "trial": 15, "rt": 5291, "response": "Alpha"}, "14": {"stimulus": 1905, "trial": 14, "rt": 3487, "response": "Beta"}, "17": {"stimulus": 2030, "trial": 17, "rt": 1590, "response": "Alpha"}, "16": {"stimulus": 1624, "trial": 16, "rt": 9485, "response": "Gamma"}, "19": {"stimulus": 1030, "trial": 19, "rt": 2943, "response": "Beta"}, "18": {"stimulus": 1655, "trial": 18, "rt": 2247, "response": "Beta"}, "31": {"stimulus": 1593, "trial": 31, "rt": 2706, "response": "Alpha"}, "30": {"stimulus": 2405, "trial": 30, "rt": 1355, "response": "Beta"}, "37": {"stimulus": 1437, "trial": 37, "rt": 2308, "response": "Alpha"}, "36": {"stimulus": 780, "trial": 36, "rt": 3763, "response": "Gamma"}, "35": {"stimulus": 999, "trial": 35, "rt": 2177, "response": "Gamma"}, "34": {"stimulus": 1749, "trial": 34, "rt": 1032, "response": "Alpha"}, "33": {"stimulus": 1187, "trial": 33, "rt": 1340, "response": "Alpha"}, "55": {"stimulus": 718, "trial": 55, "rt": 2684, "response": "Alpha"}, "74": {"stimulus": 1999, "trial": 74, "rt": 793, "response": "Alpha"}, "32": {"stimulus": 2093, "trial": 32, "rt": 964, "response": "Alpha"}, "57": {"stimulus": 124, "trial": 57, "rt": 7258, "response": "Gamma"}, "50": {"stimulus": 1499, "trial": 50, "rt": 2669, "response": "Alpha"}}, "experiment": {"Paradigm": "TACL", "Stimuli": "Size-Color Squares", "Experiment": "Generating-Multiple-Categories"}, "submit": {"timeTotal": 516453, "age": "26", "comments": "Tough", "sex": "Male"}}