{"info": {"finish": 1548197892613, "participant": 427, "exposed": true, "lab": false, "start": 1548197619013, "counterbalance": 6, "gentype": 1, "condition": "Cluster", "browser": {"platform": "Win32", "userAgent": "Mozilla/5.0 (Windows NT 10.0; Win64; x64) AppleWebKit/537.36 (KHTML, like Gecko) Chrome/71.0.3578.98 Safari/537.36"}}, "observation": {"11": {"stimulus": 1093, "trial": 11, "rt": 1379}, "10": {"stimulus": 392, "trial": 10, "rt": 1410}, "1": {"stimulus": 1093, "trial": 1, "rt": 2107}, "0": {"stimulus": 1083, "trial": 0, "rt": 4216}, "3": {"stimulus": 583, "trial": 3, "rt": 1404}, "2": {"stimulus": 392, "trial": 2, "rt": 1475}, "5": {"stimulus": 392, "trial": 5, "rt": 1419}, "4": {"stimulus": 583, "trial": 4, "rt": 1410}, "7": {"stimulus": 1093, "trial": 7, "rt": 1370}, "6": {"stimulus": 1083, "trial": 6, "rt": 1343}, "9": {"stimulus": 1083, "trial": 9, "rt": 1389}, "8": {"stimulus": 583, "trial": 8, "rt": 1767}}, "generation": {"1": {"category": "Beta", "trial": 1, "stimulus": 2060, "rt": 4400}, "0": {"category": "Beta", "trial": 0, "stimulus": 2150, "rt": 11453}, "3": {"category": "Beta", "trial": 3, "stimulus": 2299, "rt": 4854}, "2": {"category": "Beta", "trial": 2, "stimulus": 2154, "rt": 6503}, "5": {"category": "Beta", "trial": 5, "stimulus": 2349, "rt": 5030}, "4": {"category": "Beta", "trial": 4, "stimulus": 2347, "rt": 4117}, "7": {"category": "Beta", "trial": 7, "stimulus": 2408, "rt": 4927}, "6": {"category": "Beta", "trial": 6, "stimulus": 2351, "rt": 7209}}, "generalization": {"56": {"stimulus": 624, "trial": 56, "rt": 537, "response": "Alpha"}, "77": {"stimulus": 1499, "trial": 77, "rt": 572, "response": "Beta"}, "54": {"stimulus": 937, "trial": 54, "rt": 539, "response": "Alpha"}, "42": {"stimulus": 405, "trial": 42, "rt": 664, "response": "Alpha"}, "48": {"stimulus": 343, "trial": 48, "rt": 784, "response": "Alpha"}, "43": {"stimulus": 2062, "trial": 43, "rt": 1671, "response": "Beta"}, "60": {"stimulus": 874, "trial": 60, "rt": 1515, "response": "Alpha"}, "61": {"stimulus": 2374, "trial": 61, "rt": 1489, "response": "Beta"}, "62": {"stimulus": 530, "trial": 62, "rt": 704, "response": "Alpha"}, "63": {"stimulus": 374, "trial": 63, "rt": 531, "response": "Alpha"}, "64": {"stimulus": 1780, "trial": 64, "rt": 714, "response": "Beta"}, "49": {"stimulus": 1187, "trial": 49, "rt": 1182, "response": "Alpha"}, "66": {"stimulus": 249, "trial": 66, "rt": 1164, "response": "Beta"}, "67": {"stimulus": 280, "trial": 67, "rt": 1152, "response": "Alpha"}, "68": {"stimulus": 93, "trial": 68, "rt": 687, "response": "Alpha"}, "69": {"stimulus": 1968, "trial": 69, "rt": 1134, "response": "Beta"}, "80": {"stimulus": 2124, "trial": 80, "rt": 1037, "response": "Beta"}, "52": {"stimulus": 2437, "trial": 52, "rt": 634, "response": "Beta"}, "53": {"stimulus": 687, "trial": 53, "rt": 833, "response": "Alpha"}, "24": {"stimulus": 218, "trial": 24, "rt": 722, "response": "Alpha"}, "25": {"stimulus": 562, "trial": 25, "rt": 698, "response": "Alpha"}, "26": {"stimulus": 2312, "trial": 26, "rt": 908, "response": "Beta"}, "27": {"stimulus": 2280, "trial": 27, "rt": 594, "response": "Beta"}, "20": {"stimulus": 1437, "trial": 20, "rt": 3242, "response": "Beta"}, "21": {"stimulus": 2499, "trial": 21, "rt": 839, "response": "Beta"}, "22": {"stimulus": 1937, "trial": 22, "rt": 688, "response": "Beta"}, "23": {"stimulus": 1405, "trial": 23, "rt": 1387, "response": "Beta"}, "46": {"stimulus": 1874, "trial": 46, "rt": 601, "response": "Beta"}, "47": {"stimulus": 1155, "trial": 47, "rt": 2307, "response": "Beta"}, "44": {"stimulus": 2155, "trial": 44, "rt": 753, "response": "Beta"}, "45": {"stimulus": 1562, "trial": 45, "rt": 761, "response": "Beta"}, "28": {"stimulus": 1687, "trial": 28, "rt": 1032, "response": "Beta"}, "29": {"stimulus": 1280, "trial": 29, "rt": 758, "response": "Beta"}, "40": {"stimulus": 718, "trial": 40, "rt": 737, "response": "Alpha"}, "41": {"stimulus": 2249, "trial": 41, "rt": 721, "response": "Beta"}, "1": {"stimulus": 187, "trial": 1, "rt": 1181, "response": "Alpha"}, "0": {"stimulus": 1999, "trial": 0, "rt": 2935, "response": "Beta"}, "3": {"stimulus": 999, "trial": 3, "rt": 752, "response": "Alpha"}, "2": {"stimulus": 1905, "trial": 2, "rt": 918, "response": "Beta"}, "5": {"stimulus": 843, "trial": 5, "rt": 1238, "response": "Alpha"}, "4": {"stimulus": 1093, "trial": 4, "rt": 1544, "response": "Alpha"}, "7": {"stimulus": 1062, "trial": 7, "rt": 934, "response": "Alpha"}, "6": {"stimulus": 2218, "trial": 6, "rt": 777, "response": "Beta"}, "9": {"stimulus": 468, "trial": 9, "rt": 747, "response": "Alpha"}, "8": {"stimulus": 749, "trial": 8, "rt": 657, "response": "Alpha"}, "78": {"stimulus": 1218, "trial": 78, "rt": 1245, "response": "Alpha"}, "51": {"stimulus": 2468, "trial": 51, "rt": 531, "response": "Beta"}, "39": {"stimulus": 2187, "trial": 39, "rt": 815, "response": "Beta"}, "65": {"stimulus": 0, "trial": 65, "rt": 649, "response": "Beta"}, "76": {"stimulus": 1843, "trial": 76, "rt": 776, "response": "Beta"}, "75": {"stimulus": 1749, "trial": 75, "rt": 721, "response": "Beta"}, "38": {"stimulus": 437, "trial": 38, "rt": 602, "response": "Alpha"}, "73": {"stimulus": 2030, "trial": 73, "rt": 957, "response": "Beta"}, "72": {"stimulus": 124, "trial": 72, "rt": 657, "response": "Alpha"}, "71": {"stimulus": 1343, "trial": 71, "rt": 1498, "response": "Alpha"}, "70": {"stimulus": 655, "trial": 70, "rt": 1831, "response": "Beta"}, "59": {"stimulus": 1593, "trial": 59, "rt": 657, "response": "Beta"}, "79": {"stimulus": 155, "trial": 79, "rt": 633, "response": "Alpha"}, "58": {"stimulus": 2343, "trial": 58, "rt": 642, "response": "Beta"}, "11": {"stimulus": 62, "trial": 11, "rt": 847, "response": "Alpha"}, "10": {"stimulus": 1812, "trial": 10, "rt": 878, "response": "Beta"}, "13": {"stimulus": 593, "trial": 13, "rt": 712, "response": "Alpha"}, "12": {"stimulus": 1030, "trial": 12, "rt": 2571, "response": "Alpha"}, "15": {"stimulus": 1124, "trial": 15, "rt": 774, "response": "Alpha"}, "14": {"stimulus": 780, "trial": 14, "rt": 562, "response": "Alpha"}, "17": {"stimulus": 1312, "trial": 17, "rt": 783, "response": "Beta"}, "16": {"stimulus": 1530, "trial": 16, "rt": 1013, "response": "Beta"}, "19": {"stimulus": 2093, "trial": 19, "rt": 1389, "response": "Beta"}, "18": {"stimulus": 905, "trial": 18, "rt": 1069, "response": "Beta"}, "31": {"stimulus": 1624, "trial": 31, "rt": 713, "response": "Beta"}, "30": {"stimulus": 1718, "trial": 30, "rt": 793, "response": "Beta"}, "37": {"stimulus": 30, "trial": 37, "rt": 801, "response": "Alpha"}, "36": {"stimulus": 1374, "trial": 36, "rt": 1171, "response": "Beta"}, "35": {"stimulus": 968, "trial": 35, "rt": 1744, "response": "Alpha"}, "34": {"stimulus": 812, "trial": 34, "rt": 1293, "response": "Alpha"}, "33": {"stimulus": 499, "trial": 33, "rt": 736, "response": "Alpha"}, "55": {"stimulus": 1468, "trial": 55, "rt": 571, "response": "Alpha"}, "74": {"stimulus": 1249, "trial": 74, "rt": 617, "response": "Beta"}, "32": {"stimulus": 312, "trial": 32, "rt": 864, "response": "Alpha"}, "57": {"stimulus": 1655, "trial": 57, "rt": 1231, "response": "Beta"}, "50": {"stimulus": 2405, "trial": 50, "rt": 975, "response": "Beta"}}, "experiment": {"Paradigm": "TACL", "Stimuli": "Size-Color Squares", "Experiment": "Generating-Multiple-Categories"}, "submit": {"timeTotal": 273865, "age": "36", "comments": "", "sex": "Male"}}