{"info": {"finish": 1548198077270, "participant": 428, "exposed": true, "lab": false, "start": 1548197696732, "counterbalance": 7, "gentype": 2, "condition": "Cluster", "browser": {"platform": "Win32", "userAgent": "Mozilla/5.0 (Windows NT 10.0; Win64; x64) AppleWebKit/537.36 (KHTML, like Gecko) Chrome/71.0.3578.98 Safari/537.36"}}, "observation": {"11": {"stimulus": 392, "trial": 11, "rt": 1708}, "10": {"stimulus": 583, "trial": 10, "rt": 1721}, "1": {"stimulus": 1093, "trial": 1, "rt": 2096}, "0": {"stimulus": 1083, "trial": 0, "rt": 7494}, "3": {"stimulus": 583, "trial": 3, "rt": 1978}, "2": {"stimulus": 392, "trial": 2, "rt": 1887}, "5": {"stimulus": 1083, "trial": 5, "rt": 1615}, "4": {"stimulus": 1093, "trial": 4, "rt": 1890}, "7": {"stimulus": 583, "trial": 7, "rt": 1856}, "6": {"stimulus": 392, "trial": 6, "rt": 2498}, "9": {"stimulus": 1093, "trial": 9, "rt": 1773}, "8": {"stimulus": 1083, "trial": 8, "rt": 1682}}, "generation": {"1": {"category": "Beta", "trial": 1, "stimulus": 2450, "rt": 5430}, "0": {"category": "Beta", "trial": 0, "stimulus": 2499, "rt": 11436}, "3": {"category": "Beta", "trial": 3, "stimulus": 2340, "rt": 4649}, "2": {"category": "Beta", "trial": 2, "stimulus": 2073, "rt": 4823}, "5": {"category": "Gamma", "trial": 5, "stimulus": 1200, "rt": 3261}, "4": {"category": "Gamma", "trial": 4, "stimulus": 1199, "rt": 10075}, "7": {"category": "Gamma", "trial": 7, "stimulus": 1216, "rt": 4137}, "6": {"category": "Gamma", "trial": 6, "stimulus": 1327, "rt": 3050}}, "generalization": {"56": {"stimulus": 1624, "trial": 56, "rt": 1181, "response": "Alpha"}, "77": {"stimulus": 1843, "trial": 77, "rt": 996, "response": "Beta"}, "54": {"stimulus": 0, "trial": 54, "rt": 3651, "response": "Gamma"}, "42": {"stimulus": 1905, "trial": 42, "rt": 1101, "response": "Alpha"}, "48": {"stimulus": 1968, "trial": 48, "rt": 1192, "response": "Beta"}, "43": {"stimulus": 2155, "trial": 43, "rt": 1776, "response": "Beta"}, "60": {"stimulus": 2187, "trial": 60, "rt": 1099, "response": "Beta"}, "61": {"stimulus": 1718, "trial": 61, "rt": 927, "response": "Alpha"}, "62": {"stimulus": 312, "trial": 62, "rt": 1023, "response": "Gamma"}, "63": {"stimulus": 1093, "trial": 63, "rt": 1114, "response": "Alpha"}, "64": {"stimulus": 499, "trial": 64, "rt": 919, "response": "Alpha"}, "49": {"stimulus": 1312, "trial": 49, "rt": 1445, "response": "Alpha"}, "66": {"stimulus": 2093, "trial": 66, "rt": 1187, "response": "Beta"}, "67": {"stimulus": 2030, "trial": 67, "rt": 936, "response": "Beta"}, "68": {"stimulus": 1124, "trial": 68, "rt": 1376, "response": "Alpha"}, "69": {"stimulus": 562, "trial": 69, "rt": 1248, "response": "Gamma"}, "80": {"stimulus": 280, "trial": 80, "rt": 1412, "response": "Gamma"}, "52": {"stimulus": 593, "trial": 52, "rt": 1094, "response": "Gamma"}, "53": {"stimulus": 1437, "trial": 53, "rt": 974, "response": "Alpha"}, "24": {"stimulus": 343, "trial": 24, "rt": 1203, "response": "Gamma"}, "25": {"stimulus": 2218, "trial": 25, "rt": 1129, "response": "Beta"}, "26": {"stimulus": 374, "trial": 26, "rt": 1455, "response": "Gamma"}, "27": {"stimulus": 968, "trial": 27, "rt": 865, "response": "Gamma"}, "20": {"stimulus": 1468, "trial": 20, "rt": 1226, "response": "Alpha"}, "21": {"stimulus": 2499, "trial": 21, "rt": 1214, "response": "Beta"}, "22": {"stimulus": 249, "trial": 22, "rt": 1518, "response": "Gamma"}, "23": {"stimulus": 1218, "trial": 23, "rt": 1203, "response": "Alpha"}, "46": {"stimulus": 1780, "trial": 46, "rt": 1715, "response": "Alpha"}, "47": {"stimulus": 749, "trial": 47, "rt": 1176, "response": "Gamma"}, "44": {"stimulus": 1280, "trial": 44, "rt": 2570, "response": "Alpha"}, "45": {"stimulus": 718, "trial": 45, "rt": 2025, "response": "Gamma"}, "28": {"stimulus": 1812, "trial": 28, "rt": 1698, "response": "Alpha"}, "29": {"stimulus": 624, "trial": 29, "rt": 1660, "response": "Gamma"}, "40": {"stimulus": 1530, "trial": 40, "rt": 1053, "response": "Alpha"}, "41": {"stimulus": 1030, "trial": 41, "rt": 1125, "response": "Alpha"}, "1": {"stimulus": 1687, "trial": 1, "rt": 1709, "response": "Alpha"}, "0": {"stimulus": 999, "trial": 0, "rt": 1738, "response": "Alpha"}, "3": {"stimulus": 937, "trial": 3, "rt": 2399, "response": "Alpha"}, "2": {"stimulus": 530, "trial": 2, "rt": 2585, "response": "Gamma"}, "5": {"stimulus": 1999, "trial": 5, "rt": 1369, "response": "Beta"}, "4": {"stimulus": 1187, "trial": 4, "rt": 2437, "response": "Alpha"}, "7": {"stimulus": 2468, "trial": 7, "rt": 956, "response": "Beta"}, "6": {"stimulus": 2124, "trial": 6, "rt": 1381, "response": "Beta"}, "9": {"stimulus": 1374, "trial": 9, "rt": 1022, "response": "Alpha"}, "8": {"stimulus": 2249, "trial": 8, "rt": 827, "response": "Beta"}, "78": {"stimulus": 2280, "trial": 78, "rt": 726, "response": "Beta"}, "51": {"stimulus": 30, "trial": 51, "rt": 1158, "response": "Gamma"}, "39": {"stimulus": 2343, "trial": 39, "rt": 998, "response": "Beta"}, "65": {"stimulus": 1062, "trial": 65, "rt": 757, "response": "Alpha"}, "76": {"stimulus": 1749, "trial": 76, "rt": 2058, "response": "Alpha"}, "75": {"stimulus": 155, "trial": 75, "rt": 885, "response": "Gamma"}, "38": {"stimulus": 1343, "trial": 38, "rt": 858, "response": "Alpha"}, "73": {"stimulus": 468, "trial": 73, "rt": 2069, "response": "Gamma"}, "72": {"stimulus": 2062, "trial": 72, "rt": 659, "response": "Beta"}, "71": {"stimulus": 2374, "trial": 71, "rt": 1088, "response": "Gamma"}, "70": {"stimulus": 905, "trial": 70, "rt": 997, "response": "Alpha"}, "59": {"stimulus": 218, "trial": 59, "rt": 1277, "response": "Gamma"}, "79": {"stimulus": 1155, "trial": 79, "rt": 1064, "response": "Alpha"}, "58": {"stimulus": 1405, "trial": 58, "rt": 1149, "response": "Alpha"}, "11": {"stimulus": 93, "trial": 11, "rt": 782, "response": "Gamma"}, "10": {"stimulus": 687, "trial": 10, "rt": 1604, "response": "Gamma"}, "13": {"stimulus": 437, "trial": 13, "rt": 1850, "response": "Alpha"}, "12": {"stimulus": 1937, "trial": 12, "rt": 2104, "response": "Beta"}, "15": {"stimulus": 405, "trial": 15, "rt": 1427, "response": "Gamma"}, "14": {"stimulus": 1655, "trial": 14, "rt": 1775, "response": "Alpha"}, "17": {"stimulus": 1499, "trial": 17, "rt": 1003, "response": "Alpha"}, "16": {"stimulus": 780, "trial": 16, "rt": 1556, "response": "Alpha"}, "19": {"stimulus": 2437, "trial": 19, "rt": 818, "response": "Beta"}, "18": {"stimulus": 2405, "trial": 18, "rt": 879, "response": "Beta"}, "31": {"stimulus": 2312, "trial": 31, "rt": 1417, "response": "Beta"}, "30": {"stimulus": 1562, "trial": 30, "rt": 1005, "response": "Alpha"}, "37": {"stimulus": 812, "trial": 37, "rt": 2439, "response": "Alpha"}, "36": {"stimulus": 124, "trial": 36, "rt": 613, "response": "Gamma"}, "35": {"stimulus": 874, "trial": 35, "rt": 598, "response": "Gamma"}, "34": {"stimulus": 655, "trial": 34, "rt": 1091, "response": "Gamma"}, "33": {"stimulus": 1593, "trial": 33, "rt": 638, "response": "Alpha"}, "55": {"stimulus": 843, "trial": 55, "rt": 1021, "response": "Alpha"}, "74": {"stimulus": 62, "trial": 74, "rt": 627, "response": "Gamma"}, "32": {"stimulus": 1874, "trial": 32, "rt": 961, "response": "Alpha"}, "57": {"stimulus": 187, "trial": 57, "rt": 1241, "response": "Gamma"}, "50": {"stimulus": 1249, "trial": 50, "rt": 748, "response": "Alpha"}}, "experiment": {"Paradigm": "TACL", "Stimuli": "Size-Color Squares", "Experiment": "Generating-Multiple-Categories"}, "submit": {"timeTotal": 380735, "age": "31", "comments": "", "sex": "male"}}