{"info": {"finish": 1548199489645, "participant": 429, "exposed": true, "lab": false, "start": 1548199179205, "counterbalance": 7, "gentype": 0, "condition": "Cluster", "browser": {"platform": "Win32", "userAgent": "Mozilla/5.0 (Windows NT 6.3; Win64; x64) AppleWebKit/537.36 (KHTML, like Gecko) Chrome/71.0.3578.98 Safari/537.36"}}, "observation": {"11": {"stimulus": 583, "trial": 11, "rt": 1741}, "10": {"stimulus": 392, "trial": 10, "rt": 1707}, "1": {"stimulus": 583, "trial": 1, "rt": 3081}, "0": {"stimulus": 1093, "trial": 0, "rt": 3607}, "3": {"stimulus": 1083, "trial": 3, "rt": 2247}, "2": {"stimulus": 392, "trial": 2, "rt": 2483}, "5": {"stimulus": 583, "trial": 5, "rt": 1860}, "4": {"stimulus": 1083, "trial": 4, "rt": 1954}, "7": {"stimulus": 1093, "trial": 7, "rt": 1898}, "6": {"stimulus": 392, "trial": 6, "rt": 2581}, "9": {"stimulus": 1083, "trial": 9, "rt": 1654}, "8": {"stimulus": 1093, "trial": 8, "rt": 1628}}, "generation": {"1": {"category": "Not-Alpha", "trial": 1, "stimulus": 2352, "rt": 6360}, "0": {"category": "Not-Alpha", "trial": 0, "stimulus": 1650, "rt": 13845}, "3": {"category": "Not-Alpha", "trial": 3, "stimulus": 1600, "rt": 5310}, "2": {"category": "Not-Alpha", "trial": 2, "stimulus": 150, "rt": 6574}, "5": {"category": "Not-Alpha", "trial": 5, "stimulus": 2450, "rt": 7842}, "4": {"category": "Not-Alpha", "trial": 4, "stimulus": 1201, "rt": 7688}, "7": {"category": "Not-Alpha", "trial": 7, "stimulus": 350, "rt": 8494}, "6": {"category": "Not-Alpha", "trial": 6, "stimulus": 1900, "rt": 6188}}, "generalization": {"56": {"stimulus": 2437, "trial": 56, "rt": 980, "response": "Alpha"}, "77": {"stimulus": 62, "trial": 77, "rt": 1457, "response": "Beta"}, "54": {"stimulus": 2312, "trial": 54, "rt": 875, "response": "Alpha"}, "42": {"stimulus": 1530, "trial": 42, "rt": 1559, "response": "Alpha"}, "48": {"stimulus": 999, "trial": 48, "rt": 598, "response": "Alpha"}, "43": {"stimulus": 1593, "trial": 43, "rt": 665, "response": "Alpha"}, "60": {"stimulus": 1343, "trial": 60, "rt": 571, "response": "Alpha"}, "61": {"stimulus": 749, "trial": 61, "rt": 567, "response": "Alpha"}, "62": {"stimulus": 624, "trial": 62, "rt": 842, "response": "Alpha"}, "63": {"stimulus": 499, "trial": 63, "rt": 586, "response": "Alpha"}, "64": {"stimulus": 2187, "trial": 64, "rt": 609, "response": "Alpha"}, "49": {"stimulus": 812, "trial": 49, "rt": 1067, "response": "Beta"}, "66": {"stimulus": 2280, "trial": 66, "rt": 1234, "response": "Alpha"}, "67": {"stimulus": 1187, "trial": 67, "rt": 646, "response": "Alpha"}, "68": {"stimulus": 1499, "trial": 68, "rt": 599, "response": "Alpha"}, "69": {"stimulus": 780, "trial": 69, "rt": 582, "response": "Alpha"}, "80": {"stimulus": 1812, "trial": 80, "rt": 1330, "response": "Beta"}, "52": {"stimulus": 2499, "trial": 52, "rt": 1217, "response": "Alpha"}, "53": {"stimulus": 874, "trial": 53, "rt": 830, "response": "Alpha"}, "24": {"stimulus": 1780, "trial": 24, "rt": 578, "response": "Alpha"}, "25": {"stimulus": 530, "trial": 25, "rt": 598, "response": "Alpha"}, "26": {"stimulus": 218, "trial": 26, "rt": 1010, "response": "Alpha"}, "27": {"stimulus": 2124, "trial": 27, "rt": 651, "response": "Alpha"}, "20": {"stimulus": 1218, "trial": 20, "rt": 1483, "response": "Alpha"}, "21": {"stimulus": 343, "trial": 21, "rt": 626, "response": "Alpha"}, "22": {"stimulus": 30, "trial": 22, "rt": 590, "response": "Alpha"}, "23": {"stimulus": 1624, "trial": 23, "rt": 586, "response": "Alpha"}, "46": {"stimulus": 718, "trial": 46, "rt": 1836, "response": "Alpha"}, "47": {"stimulus": 2093, "trial": 47, "rt": 698, "response": "Alpha"}, "44": {"stimulus": 1562, "trial": 44, "rt": 1113, "response": "Beta"}, "45": {"stimulus": 1280, "trial": 45, "rt": 898, "response": "Alpha"}, "28": {"stimulus": 2405, "trial": 28, "rt": 1651, "response": "Beta"}, "29": {"stimulus": 468, "trial": 29, "rt": 3155, "response": "Alpha"}, "40": {"stimulus": 374, "trial": 40, "rt": 1323, "response": "Alpha"}, "41": {"stimulus": 155, "trial": 41, "rt": 993, "response": "Beta"}, "1": {"stimulus": 905, "trial": 1, "rt": 1105, "response": "Beta"}, "0": {"stimulus": 1905, "trial": 0, "rt": 1671, "response": "Beta"}, "3": {"stimulus": 1874, "trial": 3, "rt": 821, "response": "Alpha"}, "2": {"stimulus": 437, "trial": 2, "rt": 1268, "response": "Alpha"}, "5": {"stimulus": 1124, "trial": 5, "rt": 820, "response": "Alpha"}, "4": {"stimulus": 968, "trial": 4, "rt": 996, "response": "Alpha"}, "7": {"stimulus": 280, "trial": 7, "rt": 1170, "response": "Alpha"}, "6": {"stimulus": 2155, "trial": 6, "rt": 1881, "response": "Alpha"}, "9": {"stimulus": 1468, "trial": 9, "rt": 770, "response": "Alpha"}, "8": {"stimulus": 2062, "trial": 8, "rt": 1290, "response": "Alpha"}, "78": {"stimulus": 1062, "trial": 78, "rt": 1017, "response": "Beta"}, "51": {"stimulus": 562, "trial": 51, "rt": 4954, "response": "Beta"}, "39": {"stimulus": 1655, "trial": 39, "rt": 1082, "response": "Beta"}, "65": {"stimulus": 1312, "trial": 65, "rt": 1707, "response": "Beta"}, "76": {"stimulus": 1093, "trial": 76, "rt": 1530, "response": "Alpha"}, "75": {"stimulus": 0, "trial": 75, "rt": 1817, "response": "Beta"}, "38": {"stimulus": 655, "trial": 38, "rt": 1178, "response": "Beta"}, "73": {"stimulus": 1437, "trial": 73, "rt": 1483, "response": "Alpha"}, "72": {"stimulus": 1155, "trial": 72, "rt": 689, "response": "Beta"}, "71": {"stimulus": 405, "trial": 71, "rt": 1290, "response": "Beta"}, "70": {"stimulus": 1749, "trial": 70, "rt": 610, "response": "Alpha"}, "59": {"stimulus": 1249, "trial": 59, "rt": 594, "response": "Alpha"}, "79": {"stimulus": 1937, "trial": 79, "rt": 1858, "response": "Alpha"}, "58": {"stimulus": 2374, "trial": 58, "rt": 823, "response": "Alpha"}, "11": {"stimulus": 124, "trial": 11, "rt": 1787, "response": "Alpha"}, "10": {"stimulus": 1718, "trial": 10, "rt": 1016, "response": "Alpha"}, "13": {"stimulus": 2030, "trial": 13, "rt": 593, "response": "Alpha"}, "12": {"stimulus": 687, "trial": 12, "rt": 674, "response": "Alpha"}, "15": {"stimulus": 1030, "trial": 15, "rt": 620, "response": "Alpha"}, "14": {"stimulus": 937, "trial": 14, "rt": 597, "response": "Alpha"}, "17": {"stimulus": 1374, "trial": 17, "rt": 967, "response": "Alpha"}, "16": {"stimulus": 2218, "trial": 16, "rt": 859, "response": "Alpha"}, "19": {"stimulus": 843, "trial": 19, "rt": 674, "response": "Alpha"}, "18": {"stimulus": 1999, "trial": 18, "rt": 849, "response": "Alpha"}, "31": {"stimulus": 593, "trial": 31, "rt": 730, "response": "Alpha"}, "30": {"stimulus": 187, "trial": 30, "rt": 834, "response": "Alpha"}, "37": {"stimulus": 249, "trial": 37, "rt": 594, "response": "Alpha"}, "36": {"stimulus": 93, "trial": 36, "rt": 606, "response": "Alpha"}, "35": {"stimulus": 1687, "trial": 35, "rt": 610, "response": "Alpha"}, "34": {"stimulus": 2343, "trial": 34, "rt": 737, "response": "Alpha"}, "33": {"stimulus": 2468, "trial": 33, "rt": 1054, "response": "Beta"}, "55": {"stimulus": 1405, "trial": 55, "rt": 1168, "response": "Beta"}, "74": {"stimulus": 1843, "trial": 74, "rt": 711, "response": "Alpha"}, "32": {"stimulus": 312, "trial": 32, "rt": 1288, "response": "Beta"}, "57": {"stimulus": 2249, "trial": 57, "rt": 682, "response": "Alpha"}, "50": {"stimulus": 1968, "trial": 50, "rt": 1931, "response": "Alpha"}}, "experiment": {"Paradigm": "TACL", "Stimuli": "Size-Color Squares", "Experiment": "Generating-Multiple-Categories"}, "submit": {"timeTotal": 310730, "age": "64", "comments": "no comments", "sex": "male"}}