{"info": {"finish": 1548203021871, "participant": 439, "exposed": true, "lab": false, "start": 1548202755135, "counterbalance": 7, "gentype": 0, "condition": "XOR", "browser": {"platform": "Win32", "userAgent": "Mozilla/5.0 (Windows NT 10.0; Win64; x64) AppleWebKit/537.36 (KHTML, like Gecko) Chrome/71.0.3578.98 Safari/537.36"}}, "observation": {"11": {"stimulus": 403, "trial": 11, "rt": 1420}, "10": {"stimulus": 1890, "trial": 10, "rt": 1569}, "1": {"stimulus": 818, "trial": 1, "rt": 1855}, "0": {"stimulus": 1890, "trial": 0, "rt": 3742}, "3": {"stimulus": 403, "trial": 3, "rt": 1459}, "2": {"stimulus": 1479, "trial": 2, "rt": 1677}, "5": {"stimulus": 1890, "trial": 5, "rt": 2765}, "4": {"stimulus": 403, "trial": 4, "rt": 1430}, "7": {"stimulus": 1479, "trial": 7, "rt": 4577}, "6": {"stimulus": 818, "trial": 6, "rt": 1874}, "9": {"stimulus": 818, "trial": 9, "rt": 2570}, "8": {"stimulus": 1479, "trial": 8, "rt": 4850}}, "generation": {"1": {"category": "Not-Alpha", "trial": 1, "stimulus": 49, "rt": 5265}, "0": {"category": "Not-Alpha", "trial": 0, "stimulus": 2499, "rt": 11306}, "3": {"category": "Not-Alpha", "trial": 3, "stimulus": 1799, "rt": 3364}, "2": {"category": "Not-Alpha", "trial": 2, "stimulus": 849, "rt": 2965}, "5": {"category": "Not-Alpha", "trial": 5, "stimulus": 449, "rt": 7581}, "4": {"category": "Not-Alpha", "trial": 4, "stimulus": 1397, "rt": 3743}, "7": {"category": "Not-Alpha", "trial": 7, "stimulus": 1699, "rt": 2688}, "6": {"category": "Not-Alpha", "trial": 6, "stimulus": 2249, "rt": 3518}}, "generalization": {"56": {"stimulus": 280, "trial": 56, "rt": 812, "response": "Beta"}, "77": {"stimulus": 749, "trial": 77, "rt": 1020, "response": "Beta"}, "54": {"stimulus": 0, "trial": 54, "rt": 431, "response": "Alpha"}, "42": {"stimulus": 2437, "trial": 42, "rt": 650, "response": "Beta"}, "48": {"stimulus": 468, "trial": 48, "rt": 491, "response": "Alpha"}, "43": {"stimulus": 1968, "trial": 43, "rt": 733, "response": "Alpha"}, "60": {"stimulus": 249, "trial": 60, "rt": 685, "response": "Beta"}, "61": {"stimulus": 655, "trial": 61, "rt": 544, "response": "Alpha"}, "62": {"stimulus": 562, "trial": 62, "rt": 430, "response": "Alpha"}, "63": {"stimulus": 499, "trial": 63, "rt": 983, "response": "Beta"}, "64": {"stimulus": 2249, "trial": 64, "rt": 1092, "response": "Beta"}, "49": {"stimulus": 2280, "trial": 49, "rt": 981, "response": "Beta"}, "66": {"stimulus": 1749, "trial": 66, "rt": 641, "response": "Beta"}, "67": {"stimulus": 1062, "trial": 67, "rt": 617, "response": "Alpha"}, "68": {"stimulus": 2218, "trial": 68, "rt": 460, "response": "Alpha"}, "69": {"stimulus": 780, "trial": 69, "rt": 581, "response": "Alpha"}, "80": {"stimulus": 1530, "trial": 80, "rt": 445, "response": "Alpha"}, "52": {"stimulus": 905, "trial": 52, "rt": 428, "response": "Alpha"}, "53": {"stimulus": 1280, "trial": 53, "rt": 505, "response": "Alpha"}, "24": {"stimulus": 30, "trial": 24, "rt": 777, "response": "Alpha"}, "25": {"stimulus": 2124, "trial": 25, "rt": 534, "response": "Alpha"}, "26": {"stimulus": 218, "trial": 26, "rt": 452, "response": "Alpha"}, "27": {"stimulus": 1843, "trial": 27, "rt": 655, "response": "Beta"}, "20": {"stimulus": 1499, "trial": 20, "rt": 603, "response": "Beta"}, "21": {"stimulus": 1405, "trial": 21, "rt": 502, "response": "Alpha"}, "22": {"stimulus": 2062, "trial": 22, "rt": 753, "response": "Alpha"}, "23": {"stimulus": 2343, "trial": 23, "rt": 746, "response": "Beta"}, "46": {"stimulus": 124, "trial": 46, "rt": 575, "response": "Alpha"}, "47": {"stimulus": 593, "trial": 47, "rt": 699, "response": "Beta"}, "44": {"stimulus": 2155, "trial": 44, "rt": 460, "response": "Alpha"}, "45": {"stimulus": 1249, "trial": 45, "rt": 642, "response": "Beta"}, "28": {"stimulus": 1218, "trial": 28, "rt": 538, "response": "Alpha"}, "29": {"stimulus": 1030, "trial": 29, "rt": 492, "response": "Alpha"}, "40": {"stimulus": 530, "trial": 40, "rt": 757, "response": "Alpha"}, "41": {"stimulus": 1124, "trial": 41, "rt": 480, "response": "Alpha"}, "1": {"stimulus": 718, "trial": 1, "rt": 2571, "response": "Beta"}, "0": {"stimulus": 155, "trial": 0, "rt": 981, "response": "Alpha"}, "3": {"stimulus": 874, "trial": 3, "rt": 2100, "response": "Beta"}, "2": {"stimulus": 405, "trial": 2, "rt": 555, "response": "Alpha"}, "5": {"stimulus": 1155, "trial": 5, "rt": 459, "response": "Alpha"}, "4": {"stimulus": 2187, "trial": 4, "rt": 1557, "response": "Beta"}, "7": {"stimulus": 1655, "trial": 7, "rt": 562, "response": "Alpha"}, "6": {"stimulus": 374, "trial": 6, "rt": 587, "response": "Alpha"}, "9": {"stimulus": 843, "trial": 9, "rt": 897, "response": "Beta"}, "8": {"stimulus": 1374, "trial": 8, "rt": 755, "response": "Alpha"}, "78": {"stimulus": 343, "trial": 78, "rt": 1169, "response": "Beta"}, "51": {"stimulus": 1624, "trial": 51, "rt": 504, "response": "Alpha"}, "39": {"stimulus": 1312, "trial": 39, "rt": 427, "response": "Alpha"}, "65": {"stimulus": 1093, "trial": 65, "rt": 651, "response": "Beta"}, "76": {"stimulus": 2499, "trial": 76, "rt": 1360, "response": "Beta"}, "75": {"stimulus": 2030, "trial": 75, "rt": 556, "response": "Alpha"}, "38": {"stimulus": 968, "trial": 38, "rt": 446, "response": "Alpha"}, "73": {"stimulus": 312, "trial": 73, "rt": 418, "response": "Alpha"}, "72": {"stimulus": 1562, "trial": 72, "rt": 439, "response": "Alpha"}, "71": {"stimulus": 812, "trial": 71, "rt": 507, "response": "Alpha"}, "70": {"stimulus": 1187, "trial": 70, "rt": 1640, "response": "Beta"}, "59": {"stimulus": 999, "trial": 59, "rt": 626, "response": "Beta"}, "79": {"stimulus": 2405, "trial": 79, "rt": 462, "response": "Alpha"}, "58": {"stimulus": 1687, "trial": 58, "rt": 707, "response": "Beta"}, "11": {"stimulus": 1718, "trial": 11, "rt": 478, "response": "Alpha"}, "10": {"stimulus": 937, "trial": 10, "rt": 812, "response": "Beta"}, "13": {"stimulus": 1468, "trial": 13, "rt": 652, "response": "Alpha"}, "12": {"stimulus": 1999, "trial": 12, "rt": 797, "response": "Beta"}, "15": {"stimulus": 1343, "trial": 15, "rt": 730, "response": "Beta"}, "14": {"stimulus": 2312, "trial": 14, "rt": 481, "response": "Alpha"}, "17": {"stimulus": 1780, "trial": 17, "rt": 1362, "response": "Alpha"}, "16": {"stimulus": 93, "trial": 16, "rt": 508, "response": "Beta"}, "19": {"stimulus": 1937, "trial": 19, "rt": 1018, "response": "Beta"}, "18": {"stimulus": 1874, "trial": 18, "rt": 925, "response": "Alpha"}, "31": {"stimulus": 1905, "trial": 31, "rt": 523, "response": "Alpha"}, "30": {"stimulus": 437, "trial": 30, "rt": 612, "response": "Alpha"}, "37": {"stimulus": 2468, "trial": 37, "rt": 468, "response": "Alpha"}, "36": {"stimulus": 187, "trial": 36, "rt": 933, "response": "Beta"}, "35": {"stimulus": 2093, "trial": 35, "rt": 1033, "response": "Beta"}, "34": {"stimulus": 2374, "trial": 34, "rt": 1170, "response": "Alpha"}, "33": {"stimulus": 1437, "trial": 33, "rt": 739, "response": "Beta"}, "55": {"stimulus": 687, "trial": 55, "rt": 753, "response": "Beta"}, "74": {"stimulus": 1593, "trial": 74, "rt": 907, "response": "Beta"}, "32": {"stimulus": 62, "trial": 32, "rt": 489, "response": "Alpha"}, "57": {"stimulus": 624, "trial": 57, "rt": 565, "response": "Alpha"}, "50": {"stimulus": 1812, "trial": 50, "rt": 447, "response": "Alpha"}}, "experiment": {"Paradigm": "TACL", "Stimuli": "Size-Color Squares", "Experiment": "Generating-Multiple-Categories"}, "submit": {"timeTotal": 267171, "age": "28", "comments": "", "sex": "female"}}