{"info": {"finish": 1548045626274, "participant": 95, "exposed": true, "lab": false, "start": 1548045082980, "counterbalance": 0, "gentype": 1, "condition": "XOR", "browser": {"platform": "Win32", "userAgent": "Mozilla/5.0 (Windows NT 6.2; Win64; x64) AppleWebKit/537.36 (KHTML, like Gecko) Chrome/69.0.3497.100 Safari/537.36"}}, "observation": {"11": {"stimulus": 1890, "trial": 11, "rt": 1407}, "10": {"stimulus": 403, "trial": 10, "rt": 1619}, "1": {"stimulus": 1890, "trial": 1, "rt": 2207}, "0": {"stimulus": 403, "trial": 0, "rt": 2062}, "3": {"stimulus": 818, "trial": 3, "rt": 1677}, "2": {"stimulus": 1479, "trial": 2, "rt": 1510}, "5": {"stimulus": 403, "trial": 5, "rt": 1608}, "4": {"stimulus": 818, "trial": 4, "rt": 2571}, "7": {"stimulus": 1890, "trial": 7, "rt": 2063}, "6": {"stimulus": 1479, "trial": 6, "rt": 2155}, "9": {"stimulus": 818, "trial": 9, "rt": 1322}, "8": {"stimulus": 1479, "trial": 8, "rt": 1456}}, "generation": {"1": {"category": "Beta", "trial": 1, "stimulus": 111, "rt": 6454}, "0": {"category": "Beta", "trial": 0, "stimulus": 1863, "rt": 10236}, "3": {"category": "Beta", "trial": 3, "stimulus": 1118, "rt": 2961}, "2": {"category": "Beta", "trial": 2, "stimulus": 912, "rt": 2677}, "5": {"category": "Beta", "trial": 5, "stimulus": 2462, "rt": 3323}, "4": {"category": "Beta", "trial": 4, "stimulus": 14, "rt": 4402}, "7": {"category": "Beta", "trial": 7, "stimulus": 1215, "rt": 3069}, "6": {"category": "Beta", "trial": 6, "stimulus": 1523, "rt": 2456}}, "generalization": {"56": {"stimulus": 0, "trial": 56, "rt": 885, "response": "Beta"}, "77": {"stimulus": 1562, "trial": 77, "rt": 1388, "response": "Beta"}, "54": {"stimulus": 530, "trial": 54, "rt": 1162, "response": "Beta"}, "42": {"stimulus": 2062, "trial": 42, "rt": 584, "response": "Beta"}, "48": {"stimulus": 749, "trial": 48, "rt": 1151, "response": "Alpha"}, "43": {"stimulus": 874, "trial": 43, "rt": 1388, "response": "Beta"}, "60": {"stimulus": 2187, "trial": 60, "rt": 3162, "response": "Beta"}, "61": {"stimulus": 812, "trial": 61, "rt": 1419, "response": "Beta"}, "62": {"stimulus": 2218, "trial": 62, "rt": 642, "response": "Beta"}, "63": {"stimulus": 2437, "trial": 63, "rt": 3917, "response": "Beta"}, "64": {"stimulus": 1187, "trial": 64, "rt": 380, "response": "Beta"}, "49": {"stimulus": 687, "trial": 49, "rt": 1355, "response": "Beta"}, "66": {"stimulus": 1405, "trial": 66, "rt": 478, "response": "Beta"}, "67": {"stimulus": 343, "trial": 67, "rt": 717, "response": "Beta"}, "68": {"stimulus": 312, "trial": 68, "rt": 455, "response": "Beta"}, "69": {"stimulus": 2374, "trial": 69, "rt": 511, "response": "Beta"}, "80": {"stimulus": 1437, "trial": 80, "rt": 921, "response": "Beta"}, "52": {"stimulus": 1687, "trial": 52, "rt": 899, "response": "Beta"}, "53": {"stimulus": 1280, "trial": 53, "rt": 531, "response": "Beta"}, "24": {"stimulus": 1030, "trial": 24, "rt": 2950, "response": "Beta"}, "25": {"stimulus": 62, "trial": 25, "rt": 1683, "response": "Beta"}, "26": {"stimulus": 718, "trial": 26, "rt": 507, "response": "Beta"}, "27": {"stimulus": 2468, "trial": 27, "rt": 671, "response": "Beta"}, "20": {"stimulus": 2499, "trial": 20, "rt": 4981, "response": "Beta"}, "21": {"stimulus": 1062, "trial": 21, "rt": 691, "response": "Beta"}, "22": {"stimulus": 999, "trial": 22, "rt": 1519, "response": "Alpha"}, "23": {"stimulus": 562, "trial": 23, "rt": 711, "response": "Beta"}, "46": {"stimulus": 405, "trial": 46, "rt": 1466, "response": "Beta"}, "47": {"stimulus": 1124, "trial": 47, "rt": 841, "response": "Beta"}, "44": {"stimulus": 1155, "trial": 44, "rt": 821, "response": "Beta"}, "45": {"stimulus": 1812, "trial": 45, "rt": 631, "response": "Beta"}, "28": {"stimulus": 2124, "trial": 28, "rt": 477, "response": "Beta"}, "29": {"stimulus": 843, "trial": 29, "rt": 952, "response": "Alpha"}, "40": {"stimulus": 1749, "trial": 40, "rt": 1358, "response": "Alpha"}, "41": {"stimulus": 374, "trial": 41, "rt": 1030, "response": "Beta"}, "1": {"stimulus": 2093, "trial": 1, "rt": 657, "response": "Alpha"}, "0": {"stimulus": 1374, "trial": 0, "rt": 2018, "response": "Alpha"}, "3": {"stimulus": 655, "trial": 3, "rt": 638, "response": "Beta"}, "2": {"stimulus": 1312, "trial": 2, "rt": 880, "response": "Beta"}, "5": {"stimulus": 93, "trial": 5, "rt": 886, "response": "Alpha"}, "4": {"stimulus": 499, "trial": 4, "rt": 765, "response": "Alpha"}, "7": {"stimulus": 2155, "trial": 7, "rt": 765, "response": "Beta"}, "6": {"stimulus": 437, "trial": 6, "rt": 653, "response": "Alpha"}, "9": {"stimulus": 1468, "trial": 9, "rt": 1127, "response": "Beta"}, "8": {"stimulus": 2030, "trial": 8, "rt": 831, "response": "Beta"}, "78": {"stimulus": 1218, "trial": 78, "rt": 630, "response": "Beta"}, "51": {"stimulus": 1499, "trial": 51, "rt": 619, "response": "Alpha"}, "39": {"stimulus": 1624, "trial": 39, "rt": 963, "response": "Beta"}, "65": {"stimulus": 1655, "trial": 65, "rt": 498, "response": "Beta"}, "76": {"stimulus": 1249, "trial": 76, "rt": 924, "response": "Alpha"}, "75": {"stimulus": 468, "trial": 75, "rt": 404, "response": "Beta"}, "38": {"stimulus": 1593, "trial": 38, "rt": 845, "response": "Beta"}, "73": {"stimulus": 937, "trial": 73, "rt": 944, "response": "Beta"}, "72": {"stimulus": 2280, "trial": 72, "rt": 985, "response": "Beta"}, "71": {"stimulus": 1905, "trial": 71, "rt": 554, "response": "Beta"}, "70": {"stimulus": 124, "trial": 70, "rt": 837, "response": "Beta"}, "59": {"stimulus": 1780, "trial": 59, "rt": 538, "response": "Beta"}, "79": {"stimulus": 1343, "trial": 79, "rt": 847, "response": "Alpha"}, "58": {"stimulus": 1874, "trial": 58, "rt": 368, "response": "Beta"}, "11": {"stimulus": 593, "trial": 11, "rt": 2898, "response": "Alpha"}, "10": {"stimulus": 30, "trial": 10, "rt": 5069, "response": "Beta"}, "13": {"stimulus": 155, "trial": 13, "rt": 958, "response": "Beta"}, "12": {"stimulus": 1843, "trial": 12, "rt": 1027, "response": "Alpha"}, "15": {"stimulus": 249, "trial": 15, "rt": 773, "response": "Beta"}, "14": {"stimulus": 2405, "trial": 14, "rt": 2766, "response": "Beta"}, "17": {"stimulus": 280, "trial": 17, "rt": 1197, "response": "Beta"}, "16": {"stimulus": 1718, "trial": 16, "rt": 844, "response": "Beta"}, "19": {"stimulus": 780, "trial": 19, "rt": 1111, "response": "Beta"}, "18": {"stimulus": 905, "trial": 18, "rt": 793, "response": "Beta"}, "31": {"stimulus": 218, "trial": 31, "rt": 1155, "response": "Beta"}, "30": {"stimulus": 1937, "trial": 30, "rt": 415, "response": "Alpha"}, "37": {"stimulus": 2312, "trial": 37, "rt": 728, "response": "Beta"}, "36": {"stimulus": 187, "trial": 36, "rt": 2250, "response": "Beta"}, "35": {"stimulus": 624, "trial": 35, "rt": 999, "response": "Beta"}, "34": {"stimulus": 2249, "trial": 34, "rt": 707, "response": "Alpha"}, "33": {"stimulus": 1093, "trial": 33, "rt": 756, "response": "Beta"}, "55": {"stimulus": 968, "trial": 55, "rt": 528, "response": "Beta"}, "74": {"stimulus": 2343, "trial": 74, "rt": 1385, "response": "Beta"}, "32": {"stimulus": 1968, "trial": 32, "rt": 1096, "response": "Beta"}, "57": {"stimulus": 1530, "trial": 57, "rt": 2026, "response": "Beta"}, "50": {"stimulus": 1999, "trial": 50, "rt": 8958, "response": "Alpha"}}, "experiment": {"Paradigm": "TACL", "Stimuli": "Size-Color Squares", "Experiment": "Generating-Multiple-Categories"}, "submit": {"timeTotal": 543837, "age": "28", "comments": "", "sex": "male"}}