{"info": {"finish": 1535367666895, "participant": 100, "exposed": true, "lab": false, "start": 1535367315074, "counterbalance": 3, "gentype": 0, "condition": "Middle", "browser": {"platform": "Win32", "userAgent": "Mozilla/5.0 (Windows NT 6.3; Win64; x64) AppleWebKit/537.36 (KHTML, like Gecko) Chrome/68.0.3440.106 Safari/537.36"}}, "observation": {"11": {"stimulus": 30, "trial": 11, "rt": 1597}, "10": {"stimulus": 50, "trial": 10, "rt": 1813}, "1": {"stimulus": 32, "trial": 1, "rt": 1169}, "0": {"stimulus": 30, "trial": 0, "rt": 2456}, "3": {"stimulus": 50, "trial": 3, "rt": 2290}, "2": {"stimulus": 48, "trial": 2, "rt": 2328}, "5": {"stimulus": 32, "trial": 5, "rt": 2048}, "4": {"stimulus": 50, "trial": 4, "rt": 1879}, "7": {"stimulus": 30, "trial": 7, "rt": 2888}, "6": {"stimulus": 48, "trial": 6, "rt": 1681}, "9": {"stimulus": 48, "trial": 9, "rt": 1547}, "8": {"stimulus": 32, "trial": 8, "rt": 2910}}, "generation": {"1": {"category": "Not-Alpha", "trial": 1, "stimulus": 23, "rt": 9518}, "0": {"category": "Not-Alpha", "trial": 0, "stimulus": 11, "rt": 9474}, "3": {"category": "Not-Alpha", "trial": 3, "stimulus": 70, "rt": 11486}, "2": {"category": "Not-Alpha", "trial": 2, "stimulus": 13, "rt": 10328}, "5": {"category": "Not-Alpha", "trial": 5, "stimulus": 60, "rt": 6215}, "4": {"category": "Not-Alpha", "trial": 4, "stimulus": 59, "rt": 6344}, "7": {"category": "Not-Alpha", "trial": 7, "stimulus": 77, "rt": 6181}, "6": {"category": "Not-Alpha", "trial": 6, "stimulus": 58, "rt": 15758}}, "generalization": {"56": {"stimulus": 24, "trial": 56, "rt": 988, "response": "Beta"}, "77": {"stimulus": 30, "trial": 77, "rt": 1831, "response": "Alpha"}, "54": {"stimulus": 56, "trial": 54, "rt": 617, "response": "Beta"}, "42": {"stimulus": 28, "trial": 42, "rt": 2687, "response": "Beta"}, "48": {"stimulus": 43, "trial": 48, "rt": 1290, "response": "Alpha"}, "43": {"stimulus": 36, "trial": 43, "rt": 162, "response": "Beta"}, "60": {"stimulus": 21, "trial": 60, "rt": 1629, "response": "Alpha"}, "61": {"stimulus": 55, "trial": 61, "rt": 424, "response": "Alpha"}, "62": {"stimulus": 63, "trial": 62, "rt": 1072, "response": "Alpha"}, "63": {"stimulus": 6, "trial": 63, "rt": 163, "response": "Beta"}, "64": {"stimulus": 60, "trial": 64, "rt": 954, "response": "Alpha"}, "49": {"stimulus": 65, "trial": 49, "rt": 1360, "response": "Beta"}, "66": {"stimulus": 73, "trial": 66, "rt": 183, "response": "Beta"}, "67": {"stimulus": 69, "trial": 67, "rt": 1271, "response": "Beta"}, "68": {"stimulus": 50, "trial": 68, "rt": 1102, "response": "Beta"}, "69": {"stimulus": 16, "trial": 69, "rt": 1427, "response": "Alpha"}, "80": {"stimulus": 48, "trial": 80, "rt": 312, "response": "Beta"}, "52": {"stimulus": 59, "trial": 52, "rt": 1321, "response": "Beta"}, "53": {"stimulus": 12, "trial": 53, "rt": 2933, "response": "Beta"}, "24": {"stimulus": 29, "trial": 24, "rt": 936, "response": "Alpha"}, "25": {"stimulus": 32, "trial": 25, "rt": 1320, "response": "Alpha"}, "26": {"stimulus": 46, "trial": 26, "rt": 1767, "response": "Beta"}, "27": {"stimulus": 10, "trial": 27, "rt": 811, "response": "Beta"}, "20": {"stimulus": 15, "trial": 20, "rt": 2420, "response": "Alpha"}, "21": {"stimulus": 1, "trial": 21, "rt": 1079, "response": "Alpha"}, "22": {"stimulus": 49, "trial": 22, "rt": 1439, "response": "Beta"}, "23": {"stimulus": 33, "trial": 23, "rt": 1317, "response": "Alpha"}, "46": {"stimulus": 68, "trial": 46, "rt": 1269, "response": "Beta"}, "47": {"stimulus": 9, "trial": 47, "rt": 3631, "response": "Alpha"}, "44": {"stimulus": 70, "trial": 44, "rt": 1376, "response": "Beta"}, "45": {"stimulus": 18, "trial": 45, "rt": 1467, "response": "Alpha"}, "28": {"stimulus": 66, "trial": 28, "rt": 2586, "response": "Beta"}, "29": {"stimulus": 11, "trial": 29, "rt": 1283, "response": "Alpha"}, "40": {"stimulus": 76, "trial": 40, "rt": 1229, "response": "Beta"}, "41": {"stimulus": 54, "trial": 41, "rt": 940, "response": "Beta"}, "1": {"stimulus": 27, "trial": 1, "rt": 926, "response": "Alpha"}, "0": {"stimulus": 26, "trial": 0, "rt": 2359, "response": "Alpha"}, "3": {"stimulus": 45, "trial": 3, "rt": 1541, "response": "Beta"}, "2": {"stimulus": 78, "trial": 2, "rt": 1369, "response": "Beta"}, "5": {"stimulus": 77, "trial": 5, "rt": 4251, "response": "Beta"}, "4": {"stimulus": 51, "trial": 4, "rt": 1459, "response": "Beta"}, "7": {"stimulus": 2, "trial": 7, "rt": 1208, "response": "Alpha"}, "6": {"stimulus": 0, "trial": 6, "rt": 1768, "response": "Alpha"}, "9": {"stimulus": 52, "trial": 9, "rt": 1141, "response": "Beta"}, "8": {"stimulus": 57, "trial": 8, "rt": 1561, "response": "Beta"}, "78": {"stimulus": 35, "trial": 78, "rt": 1737, "response": "Alpha"}, "51": {"stimulus": 58, "trial": 51, "rt": 1866, "response": "Beta"}, "39": {"stimulus": 72, "trial": 39, "rt": 1308, "response": "Beta"}, "65": {"stimulus": 40, "trial": 65, "rt": 177, "response": "Beta"}, "76": {"stimulus": 17, "trial": 76, "rt": 1378, "response": "Beta"}, "75": {"stimulus": 4, "trial": 75, "rt": 1698, "response": "Alpha"}, "38": {"stimulus": 3, "trial": 38, "rt": 1107, "response": "Alpha"}, "73": {"stimulus": 25, "trial": 73, "rt": 1779, "response": "Alpha"}, "72": {"stimulus": 41, "trial": 72, "rt": 995, "response": "Beta"}, "71": {"stimulus": 61, "trial": 71, "rt": 701, "response": "Beta"}, "70": {"stimulus": 79, "trial": 70, "rt": 300, "response": "Beta"}, "59": {"stimulus": 5, "trial": 59, "rt": 838, "response": "Beta"}, "79": {"stimulus": 34, "trial": 79, "rt": 1357, "response": "Beta"}, "58": {"stimulus": 20, "trial": 58, "rt": 1055, "response": "Alpha"}, "11": {"stimulus": 80, "trial": 11, "rt": 868, "response": "Beta"}, "10": {"stimulus": 67, "trial": 10, "rt": 969, "response": "Beta"}, "13": {"stimulus": 19, "trial": 13, "rt": 1534, "response": "Alpha"}, "12": {"stimulus": 71, "trial": 12, "rt": 970, "response": "Beta"}, "15": {"stimulus": 47, "trial": 15, "rt": 1660, "response": "Beta"}, "14": {"stimulus": 42, "trial": 14, "rt": 980, "response": "Alpha"}, "17": {"stimulus": 7, "trial": 17, "rt": 1148, "response": "Alpha"}, "16": {"stimulus": 23, "trial": 16, "rt": 5885, "response": "Alpha"}, "19": {"stimulus": 31, "trial": 19, "rt": 1008, "response": "Beta"}, "18": {"stimulus": 74, "trial": 18, "rt": 1602, "response": "Beta"}, "31": {"stimulus": 75, "trial": 31, "rt": 1180, "response": "Beta"}, "30": {"stimulus": 37, "trial": 30, "rt": 1605, "response": "Beta"}, "37": {"stimulus": 8, "trial": 37, "rt": 979, "response": "Alpha"}, "36": {"stimulus": 38, "trial": 36, "rt": 1560, "response": "Alpha"}, "35": {"stimulus": 64, "trial": 35, "rt": 1778, "response": "Beta"}, "34": {"stimulus": 14, "trial": 34, "rt": 1697, "response": "Alpha"}, "33": {"stimulus": 53, "trial": 33, "rt": 1231, "response": "Beta"}, "55": {"stimulus": 44, "trial": 55, "rt": 1101, "response": "Beta"}, "74": {"stimulus": 62, "trial": 74, "rt": 941, "response": "Beta"}, "32": {"stimulus": 39, "trial": 32, "rt": 1906, "response": "Beta"}, "57": {"stimulus": 22, "trial": 57, "rt": 872, "response": "Beta"}, "50": {"stimulus": 13, "trial": 50, "rt": 960, "response": "Beta"}}, "experiment": {"Paradigm": "TACL", "Stimuli": "Size-Color Squares", "Experiment": "Generating-Multiple-Categories"}, "submit": {"timeTotal": 351999, "age": "58", "comments": "interesting", "sex": "male"}}