{"info": {"finish": 1535370071429, "participant": 101, "exposed": true, "lab": false, "start": 1535367569376, "counterbalance": 6, "gentype": 0, "condition": "Bottom", "browser": {"platform": "Win32", "userAgent": "Mozilla/5.0 (Windows NT 10.0; Win64; x64) AppleWebKit/537.36 (KHTML, like Gecko) Chrome/68.0.3440.106 Safari/537.36"}}, "observation": {"11": {"stimulus": 32, "trial": 11, "rt": 6546}, "10": {"stimulus": 14, "trial": 10, "rt": 1564}, "1": {"stimulus": 12, "trial": 1, "rt": 2382}, "0": {"stimulus": 32, "trial": 0, "rt": 3764}, "3": {"stimulus": 30, "trial": 3, "rt": 2583}, "2": {"stimulus": 14, "trial": 2, "rt": 2406}, "5": {"stimulus": 32, "trial": 5, "rt": 9152}, "4": {"stimulus": 14, "trial": 4, "rt": 2097}, "7": {"stimulus": 30, "trial": 7, "rt": 1626}, "6": {"stimulus": 12, "trial": 6, "rt": 2472}, "9": {"stimulus": 30, "trial": 9, "rt": 2204}, "8": {"stimulus": 12, "trial": 8, "rt": 1681}}, "generation": {"1": {"category": "Not-Alpha", "trial": 1, "stimulus": 8, "rt": 6379}, "0": {"category": "Not-Alpha", "trial": 0, "stimulus": 72, "rt": 18569}, "3": {"category": "Not-Alpha", "trial": 3, "stimulus": 37, "rt": 8846}, "2": {"category": "Not-Alpha", "trial": 2, "stimulus": 53, "rt": 5596}, "5": {"category": "Not-Alpha", "trial": 5, "stimulus": 2, "rt": 8487}, "4": {"category": "Not-Alpha", "trial": 4, "stimulus": 71, "rt": 7741}, "7": {"category": "Not-Alpha", "trial": 7, "stimulus": 62, "rt": 5020}, "6": {"category": "Not-Alpha", "trial": 6, "stimulus": 63, "rt": 6078}}, "generalization": {"56": {"stimulus": 19, "trial": 56, "rt": 1255, "response": "Beta"}, "77": {"stimulus": 37, "trial": 77, "rt": 1245, "response": "Beta"}, "54": {"stimulus": 16, "trial": 54, "rt": 1567, "response": "Beta"}, "42": {"stimulus": 23, "trial": 42, "rt": 1051, "response": "Alpha"}, "48": {"stimulus": 24, "trial": 48, "rt": 1535, "response": "Alpha"}, "43": {"stimulus": 32, "trial": 43, "rt": 731, "response": "Alpha"}, "60": {"stimulus": 35, "trial": 60, "rt": 1893, "response": "Beta"}, "61": {"stimulus": 56, "trial": 61, "rt": 1398, "response": "Beta"}, "62": {"stimulus": 43, "trial": 62, "rt": 956, "response": "Alpha"}, "63": {"stimulus": 39, "trial": 63, "rt": 821, "response": "Alpha"}, "64": {"stimulus": 22, "trial": 64, "rt": 1010, "response": "Alpha"}, "49": {"stimulus": 25, "trial": 49, "rt": 1176, "response": "Alpha"}, "66": {"stimulus": 77, "trial": 66, "rt": 1612, "response": "Beta"}, "67": {"stimulus": 75, "trial": 67, "rt": 2701, "response": "Alpha"}, "68": {"stimulus": 3, "trial": 68, "rt": 950, "response": "Alpha"}, "69": {"stimulus": 57, "trial": 69, "rt": 924, "response": "Alpha"}, "80": {"stimulus": 4, "trial": 80, "rt": 784, "response": "Alpha"}, "52": {"stimulus": 48, "trial": 52, "rt": 2974, "response": "Beta"}, "53": {"stimulus": 5, "trial": 53, "rt": 1389, "response": "Alpha"}, "24": {"stimulus": 12, "trial": 24, "rt": 2035, "response": "Alpha"}, "25": {"stimulus": 10, "trial": 25, "rt": 663, "response": "Beta"}, "26": {"stimulus": 54, "trial": 26, "rt": 574, "response": "Beta"}, "27": {"stimulus": 60, "trial": 27, "rt": 1130, "response": "Alpha"}, "20": {"stimulus": 50, "trial": 20, "rt": 854, "response": "Alpha"}, "21": {"stimulus": 33, "trial": 21, "rt": 908, "response": "Alpha"}, "22": {"stimulus": 76, "trial": 22, "rt": 1044, "response": "Alpha"}, "23": {"stimulus": 8, "trial": 23, "rt": 925, "response": "Beta"}, "46": {"stimulus": 52, "trial": 46, "rt": 4125, "response": "Beta"}, "47": {"stimulus": 28, "trial": 47, "rt": 12300, "response": "Beta"}, "44": {"stimulus": 55, "trial": 44, "rt": 1014, "response": "Beta"}, "45": {"stimulus": 40, "trial": 45, "rt": 2535, "response": "Alpha"}, "28": {"stimulus": 78, "trial": 28, "rt": 1605, "response": "Beta"}, "29": {"stimulus": 31, "trial": 29, "rt": 1615, "response": "Alpha"}, "40": {"stimulus": 26, "trial": 40, "rt": 595, "response": "Beta"}, "41": {"stimulus": 64, "trial": 41, "rt": 882, "response": "Beta"}, "1": {"stimulus": 51, "trial": 1, "rt": 1670, "response": "Alpha"}, "0": {"stimulus": 67, "trial": 0, "rt": 3164, "response": "Alpha"}, "3": {"stimulus": 6, "trial": 3, "rt": 1586, "response": "Alpha"}, "2": {"stimulus": 74, "trial": 2, "rt": 1423, "response": "Beta"}, "5": {"stimulus": 38, "trial": 5, "rt": 1087, "response": "Beta"}, "4": {"stimulus": 18, "trial": 4, "rt": 1252, "response": "Beta"}, "7": {"stimulus": 70, "trial": 7, "rt": 1076, "response": "Beta"}, "6": {"stimulus": 7, "trial": 6, "rt": 2641, "response": "Beta"}, "9": {"stimulus": 29, "trial": 9, "rt": 884, "response": "Beta"}, "8": {"stimulus": 21, "trial": 8, "rt": 3147, "response": "Alpha"}, "78": {"stimulus": 73, "trial": 78, "rt": 1175, "response": "Beta"}, "51": {"stimulus": 79, "trial": 51, "rt": 1144, "response": "Beta"}, "39": {"stimulus": 71, "trial": 39, "rt": 805, "response": "Beta"}, "65": {"stimulus": 63, "trial": 65, "rt": 1159, "response": "Beta"}, "76": {"stimulus": 11, "trial": 76, "rt": 1125, "response": "Beta"}, "75": {"stimulus": 45, "trial": 75, "rt": 718, "response": "Beta"}, "38": {"stimulus": 59, "trial": 38, "rt": 669, "response": "Alpha"}, "73": {"stimulus": 65, "trial": 73, "rt": 1280, "response": "Beta"}, "72": {"stimulus": 49, "trial": 72, "rt": 1142, "response": "Alpha"}, "71": {"stimulus": 80, "trial": 71, "rt": 1024, "response": "Beta"}, "70": {"stimulus": 17, "trial": 70, "rt": 860, "response": "Beta"}, "59": {"stimulus": 27, "trial": 59, "rt": 959, "response": "Beta"}, "79": {"stimulus": 0, "trial": 79, "rt": 813, "response": "Beta"}, "58": {"stimulus": 47, "trial": 58, "rt": 1286, "response": "Beta"}, "11": {"stimulus": 20, "trial": 11, "rt": 1399, "response": "Beta"}, "10": {"stimulus": 68, "trial": 10, "rt": 1013, "response": "Alpha"}, "13": {"stimulus": 69, "trial": 13, "rt": 2553, "response": "Beta"}, "12": {"stimulus": 9, "trial": 12, "rt": 841, "response": "Beta"}, "15": {"stimulus": 44, "trial": 15, "rt": 1165, "response": "Beta"}, "14": {"stimulus": 58, "trial": 14, "rt": 806, "response": "Alpha"}, "17": {"stimulus": 2, "trial": 17, "rt": 1262, "response": "Beta"}, "16": {"stimulus": 62, "trial": 16, "rt": 1151, "response": "Beta"}, "19": {"stimulus": 36, "trial": 19, "rt": 958, "response": "Beta"}, "18": {"stimulus": 13, "trial": 18, "rt": 870, "response": "Alpha"}, "31": {"stimulus": 53, "trial": 31, "rt": 1037, "response": "Beta"}, "30": {"stimulus": 14, "trial": 30, "rt": 1287, "response": "Alpha"}, "37": {"stimulus": 42, "trial": 37, "rt": 847, "response": "Alpha"}, "36": {"stimulus": 34, "trial": 36, "rt": 1219, "response": "Alpha"}, "35": {"stimulus": 66, "trial": 35, "rt": 1662, "response": "Beta"}, "34": {"stimulus": 30, "trial": 34, "rt": 990, "response": "Alpha"}, "33": {"stimulus": 72, "trial": 33, "rt": 906, "response": "Beta"}, "55": {"stimulus": 61, "trial": 55, "rt": 1286, "response": "Beta"}, "74": {"stimulus": 1, "trial": 74, "rt": 1071, "response": "Beta"}, "32": {"stimulus": 41, "trial": 32, "rt": 961, "response": "Alpha"}, "57": {"stimulus": 46, "trial": 57, "rt": 943, "response": "Beta"}, "50": {"stimulus": 15, "trial": 50, "rt": 977, "response": "Alpha"}}, "experiment": {"Paradigm": "TACL", "Stimuli": "Size-Color Squares", "Experiment": "Generating-Multiple-Categories"}, "submit": {"timeTotal": 2502322, "age": "53", "comments": "interesting", "sex": "male"}}