{"info": {"finish": 1535371649662, "participant": 103, "exposed": true, "lab": false, "start": 1535370775145, "counterbalance": 4, "gentype": 2, "condition": "Bottom", "browser": {"platform": "Win32", "userAgent": "Mozilla/5.0 (Windows NT 10.0; Win64; x64) AppleWebKit/537.36 (KHTML, like Gecko) Chrome/68.0.3440.106 Safari/537.36"}}, "observation": {"11": {"stimulus": 30, "trial": 11, "rt": 293924}, "10": {"stimulus": 12, "trial": 10, "rt": 2620}, "1": {"stimulus": 30, "trial": 1, "rt": 2813}, "0": {"stimulus": 12, "trial": 0, "rt": 3482}, "3": {"stimulus": 32, "trial": 3, "rt": 2093}, "2": {"stimulus": 14, "trial": 2, "rt": 2141}, "5": {"stimulus": 32, "trial": 5, "rt": 1416}, "4": {"stimulus": 12, "trial": 4, "rt": 1684}, "7": {"stimulus": 30, "trial": 7, "rt": 1583}, "6": {"stimulus": 14, "trial": 6, "rt": 2776}, "9": {"stimulus": 32, "trial": 9, "rt": 2893}, "8": {"stimulus": 14, "trial": 8, "rt": 1511}}, "generation": {"1": {"category": "Beta", "trial": 1, "stimulus": 59, "rt": 10454}, "0": {"category": "Beta", "trial": 0, "stimulus": 79, "rt": 9917}, "3": {"category": "Beta", "trial": 3, "stimulus": 68, "rt": 15209}, "2": {"category": "Beta", "trial": 2, "stimulus": 60, "rt": 15751}, "5": {"category": "Gamma", "trial": 5, "stimulus": 69, "rt": 3866}, "4": {"category": "Gamma", "trial": 4, "stimulus": 78, "rt": 6124}, "7": {"category": "Gamma", "trial": 7, "stimulus": 79, "rt": 19006}, "6": {"category": "Gamma", "trial": 6, "stimulus": 70, "rt": 5413}}, "generalization": {"56": {"stimulus": 46, "trial": 56, "rt": 633, "response": "Beta"}, "77": {"stimulus": 78, "trial": 77, "rt": 1255, "response": "Alpha"}, "54": {"stimulus": 52, "trial": 54, "rt": 1092, "response": "Gamma"}, "42": {"stimulus": 5, "trial": 42, "rt": 834, "response": "Alpha"}, "48": {"stimulus": 58, "trial": 48, "rt": 973, "response": "Alpha"}, "43": {"stimulus": 47, "trial": 43, "rt": 777, "response": "Beta"}, "60": {"stimulus": 12, "trial": 60, "rt": 1645, "response": "Alpha"}, "61": {"stimulus": 77, "trial": 61, "rt": 809, "response": "Alpha"}, "62": {"stimulus": 42, "trial": 62, "rt": 1182, "response": "Alpha"}, "63": {"stimulus": 4, "trial": 63, "rt": 661, "response": "Alpha"}, "64": {"stimulus": 31, "trial": 64, "rt": 772, "response": "Alpha"}, "49": {"stimulus": 57, "trial": 49, "rt": 919, "response": "Alpha"}, "66": {"stimulus": 17, "trial": 66, "rt": 959, "response": "Gamma"}, "67": {"stimulus": 40, "trial": 67, "rt": 995, "response": "Alpha"}, "68": {"stimulus": 6, "trial": 68, "rt": 969, "response": "Alpha"}, "69": {"stimulus": 36, "trial": 69, "rt": 1007, "response": "Beta"}, "80": {"stimulus": 72, "trial": 80, "rt": 775, "response": "Beta"}, "52": {"stimulus": 10, "trial": 52, "rt": 626, "response": "Beta"}, "53": {"stimulus": 26, "trial": 53, "rt": 990, "response": "Gamma"}, "24": {"stimulus": 32, "trial": 24, "rt": 1098, "response": "Alpha"}, "25": {"stimulus": 65, "trial": 25, "rt": 1441, "response": "Beta"}, "26": {"stimulus": 23, "trial": 26, "rt": 1311, "response": "Alpha"}, "27": {"stimulus": 33, "trial": 27, "rt": 834, "response": "Alpha"}, "20": {"stimulus": 53, "trial": 20, "rt": 911, "response": "Gamma"}, "21": {"stimulus": 24, "trial": 21, "rt": 4727, "response": "Alpha"}, "22": {"stimulus": 56, "trial": 22, "rt": 721, "response": "Beta"}, "23": {"stimulus": 1, "trial": 23, "rt": 17885, "response": "Beta"}, "46": {"stimulus": 68, "trial": 46, "rt": 808, "response": "Alpha"}, "47": {"stimulus": 80, "trial": 47, "rt": 990, "response": "Gamma"}, "44": {"stimulus": 8, "trial": 44, "rt": 1359, "response": "Gamma"}, "45": {"stimulus": 64, "trial": 45, "rt": 648, "response": "Beta"}, "28": {"stimulus": 75, "trial": 28, "rt": 7214, "response": "Alpha"}, "29": {"stimulus": 43, "trial": 29, "rt": 4441, "response": "Gamma"}, "40": {"stimulus": 21, "trial": 40, "rt": 1054, "response": "Alpha"}, "41": {"stimulus": 50, "trial": 41, "rt": 1666, "response": "Alpha"}, "1": {"stimulus": 55, "trial": 1, "rt": 4118, "response": "Alpha"}, "0": {"stimulus": 27, "trial": 0, "rt": 5043, "response": "Beta"}, "3": {"stimulus": 74, "trial": 3, "rt": 3318, "response": "Alpha"}, "2": {"stimulus": 62, "trial": 2, "rt": 2944, "response": "Gamma"}, "5": {"stimulus": 67, "trial": 5, "rt": 1200, "response": "Alpha"}, "4": {"stimulus": 66, "trial": 4, "rt": 1279, "response": "Beta"}, "7": {"stimulus": 48, "trial": 7, "rt": 2866, "response": "Beta"}, "6": {"stimulus": 16, "trial": 6, "rt": 4979, "response": "Gamma"}, "9": {"stimulus": 7, "trial": 9, "rt": 1764, "response": "Gamma"}, "8": {"stimulus": 13, "trial": 8, "rt": 1067, "response": "Alpha"}, "78": {"stimulus": 29, "trial": 78, "rt": 728, "response": "Beta"}, "51": {"stimulus": 61, "trial": 51, "rt": 1350, "response": "Alpha"}, "39": {"stimulus": 60, "trial": 39, "rt": 877, "response": "Alpha"}, "65": {"stimulus": 38, "trial": 65, "rt": 746, "response": "Beta"}, "76": {"stimulus": 18, "trial": 76, "rt": 759, "response": "Beta"}, "75": {"stimulus": 3, "trial": 75, "rt": 964, "response": "Alpha"}, "38": {"stimulus": 54, "trial": 38, "rt": 3544, "response": "Beta"}, "73": {"stimulus": 0, "trial": 73, "rt": 705, "response": "Beta"}, "72": {"stimulus": 19, "trial": 72, "rt": 589, "response": "Beta"}, "71": {"stimulus": 11, "trial": 71, "rt": 864, "response": "Alpha"}, "70": {"stimulus": 30, "trial": 70, "rt": 1195, "response": "Alpha"}, "59": {"stimulus": 34, "trial": 59, "rt": 1246, "response": "Gamma"}, "79": {"stimulus": 59, "trial": 79, "rt": 1036, "response": "Alpha"}, "58": {"stimulus": 20, "trial": 58, "rt": 831, "response": "Beta"}, "11": {"stimulus": 37, "trial": 11, "rt": 845, "response": "Beta"}, "10": {"stimulus": 35, "trial": 10, "rt": 826, "response": "Gamma"}, "13": {"stimulus": 76, "trial": 13, "rt": 980, "response": "Alpha"}, "12": {"stimulus": 69, "trial": 12, "rt": 1006, "response": "Alpha"}, "15": {"stimulus": 63, "trial": 15, "rt": 670, "response": "Beta"}, "14": {"stimulus": 73, "trial": 14, "rt": 606, "response": "Beta"}, "17": {"stimulus": 14, "trial": 17, "rt": 2580, "response": "Alpha"}, "16": {"stimulus": 9, "trial": 16, "rt": 719, "response": "Beta"}, "19": {"stimulus": 2, "trial": 19, "rt": 863, "response": "Beta"}, "18": {"stimulus": 41, "trial": 18, "rt": 1288, "response": "Alpha"}, "31": {"stimulus": 44, "trial": 31, "rt": 1074, "response": "Gamma"}, "30": {"stimulus": 39, "trial": 30, "rt": 2565, "response": "Alpha"}, "37": {"stimulus": 22, "trial": 37, "rt": 2327, "response": "Alpha"}, "36": {"stimulus": 79, "trial": 36, "rt": 741, "response": "Alpha"}, "35": {"stimulus": 15, "trial": 35, "rt": 1179, "response": "Alpha"}, "34": {"stimulus": 45, "trial": 34, "rt": 714, "response": "Beta"}, "33": {"stimulus": 70, "trial": 33, "rt": 1376, "response": "Alpha"}, "55": {"stimulus": 25, "trial": 55, "rt": 1326, "response": "Gamma"}, "74": {"stimulus": 49, "trial": 74, "rt": 968, "response": "Alpha"}, "32": {"stimulus": 28, "trial": 32, "rt": 7113, "response": "Beta"}, "57": {"stimulus": 71, "trial": 57, "rt": 940, "response": "Gamma"}, "50": {"stimulus": 51, "trial": 50, "rt": 937, "response": "Alpha"}}, "experiment": {"Paradigm": "TACL", "Stimuli": "Size-Color Squares", "Experiment": "Generating-Multiple-Categories"}, "submit": {"timeTotal": 876320, "age": "28", "comments": "NICE", "sex": "male"}}