{"info": {"finish": 1535371145035, "participant": 104, "exposed": true, "lab": false, "start": 1535370779780, "counterbalance": 4, "gentype": 1, "condition": "Bottom", "browser": {"platform": "Win32", "userAgent": "Mozilla/5.0 (Windows NT 6.3) AppleWebKit/537.36 (KHTML, like Gecko) Chrome/68.0.3440.106 Safari/537.36"}}, "observation": {"11": {"stimulus": 30, "trial": 11, "rt": 1463}, "10": {"stimulus": 14, "trial": 10, "rt": 1660}, "1": {"stimulus": 12, "trial": 1, "rt": 2639}, "0": {"stimulus": 14, "trial": 0, "rt": 13812}, "3": {"stimulus": 30, "trial": 3, "rt": 1862}, "2": {"stimulus": 32, "trial": 2, "rt": 2012}, "5": {"stimulus": 14, "trial": 5, "rt": 1837}, "4": {"stimulus": 12, "trial": 4, "rt": 3589}, "7": {"stimulus": 32, "trial": 7, "rt": 1510}, "6": {"stimulus": 30, "trial": 6, "rt": 1702}, "9": {"stimulus": 32, "trial": 9, "rt": 1543}, "8": {"stimulus": 12, "trial": 8, "rt": 11247}}, "generation": {"1": {"category": "Beta", "trial": 1, "stimulus": 18, "rt": 7160}, "0": {"category": "Beta", "trial": 0, "stimulus": 72, "rt": 18865}, "3": {"category": "Beta", "trial": 3, "stimulus": 9, "rt": 4857}, "2": {"category": "Beta", "trial": 2, "stimulus": 36, "rt": 4272}, "5": {"category": "Beta", "trial": 5, "stimulus": 45, "rt": 2619}, "4": {"category": "Beta", "trial": 4, "stimulus": 0, "rt": 7016}, "7": {"category": "Beta", "trial": 7, "stimulus": 63, "rt": 8668}, "6": {"category": "Beta", "trial": 6, "stimulus": 54, "rt": 4708}}, "generalization": {"56": {"stimulus": 76, "trial": 56, "rt": 1156, "response": "Alpha"}, "77": {"stimulus": 41, "trial": 77, "rt": 543, "response": "Alpha"}, "54": {"stimulus": 15, "trial": 54, "rt": 632, "response": "Alpha"}, "42": {"stimulus": 36, "trial": 42, "rt": 1351, "response": "Beta"}, "48": {"stimulus": 2, "trial": 48, "rt": 830, "response": "Alpha"}, "43": {"stimulus": 40, "trial": 43, "rt": 1333, "response": "Alpha"}, "60": {"stimulus": 73, "trial": 60, "rt": 886, "response": "Beta"}, "61": {"stimulus": 50, "trial": 61, "rt": 975, "response": "Alpha"}, "62": {"stimulus": 69, "trial": 62, "rt": 13082, "response": "Alpha"}, "63": {"stimulus": 9, "trial": 63, "rt": 1300, "response": "Beta"}, "64": {"stimulus": 44, "trial": 64, "rt": 2398, "response": "Alpha"}, "49": {"stimulus": 55, "trial": 49, "rt": 1128, "response": "Beta"}, "66": {"stimulus": 4, "trial": 66, "rt": 553, "response": "Alpha"}, "67": {"stimulus": 43, "trial": 67, "rt": 433, "response": "Alpha"}, "68": {"stimulus": 63, "trial": 68, "rt": 1011, "response": "Beta"}, "69": {"stimulus": 58, "trial": 69, "rt": 812, "response": "Alpha"}, "80": {"stimulus": 7, "trial": 80, "rt": 639, "response": "Alpha"}, "52": {"stimulus": 68, "trial": 52, "rt": 736, "response": "Alpha"}, "53": {"stimulus": 79, "trial": 53, "rt": 801, "response": "Alpha"}, "24": {"stimulus": 17, "trial": 24, "rt": 930, "response": "Alpha"}, "25": {"stimulus": 14, "trial": 25, "rt": 790, "response": "Alpha"}, "26": {"stimulus": 23, "trial": 26, "rt": 908, "response": "Alpha"}, "27": {"stimulus": 1, "trial": 27, "rt": 1015, "response": "Beta"}, "20": {"stimulus": 11, "trial": 20, "rt": 1000, "response": "Alpha"}, "21": {"stimulus": 75, "trial": 21, "rt": 1694, "response": "Alpha"}, "22": {"stimulus": 19, "trial": 22, "rt": 951, "response": "Beta"}, "23": {"stimulus": 6, "trial": 23, "rt": 1719, "response": "Alpha"}, "46": {"stimulus": 31, "trial": 46, "rt": 1266, "response": "Alpha"}, "47": {"stimulus": 49, "trial": 47, "rt": 721, "response": "Alpha"}, "44": {"stimulus": 28, "trial": 44, "rt": 1569, "response": "Beta"}, "45": {"stimulus": 16, "trial": 45, "rt": 790, "response": "Alpha"}, "28": {"stimulus": 80, "trial": 28, "rt": 830, "response": "Alpha"}, "29": {"stimulus": 53, "trial": 29, "rt": 749, "response": "Alpha"}, "40": {"stimulus": 59, "trial": 40, "rt": 631, "response": "Alpha"}, "41": {"stimulus": 64, "trial": 41, "rt": 990, "response": "Beta"}, "1": {"stimulus": 48, "trial": 1, "rt": 1071, "response": "Alpha"}, "0": {"stimulus": 60, "trial": 0, "rt": 2695, "response": "Alpha"}, "3": {"stimulus": 24, "trial": 3, "rt": 860, "response": "Alpha"}, "2": {"stimulus": 45, "trial": 2, "rt": 1051, "response": "Beta"}, "5": {"stimulus": 72, "trial": 5, "rt": 836, "response": "Beta"}, "4": {"stimulus": 34, "trial": 4, "rt": 1114, "response": "Alpha"}, "7": {"stimulus": 29, "trial": 7, "rt": 795, "response": "Alpha"}, "6": {"stimulus": 3, "trial": 6, "rt": 3431, "response": "Alpha"}, "9": {"stimulus": 67, "trial": 9, "rt": 867, "response": "Alpha"}, "8": {"stimulus": 25, "trial": 8, "rt": 831, "response": "Alpha"}, "78": {"stimulus": 57, "trial": 78, "rt": 635, "response": "Alpha"}, "51": {"stimulus": 20, "trial": 51, "rt": 773, "response": "Alpha"}, "39": {"stimulus": 26, "trial": 39, "rt": 608, "response": "Alpha"}, "65": {"stimulus": 22, "trial": 65, "rt": 739, "response": "Alpha"}, "76": {"stimulus": 42, "trial": 76, "rt": 505, "response": "Alpha"}, "75": {"stimulus": 52, "trial": 75, "rt": 709, "response": "Alpha"}, "38": {"stimulus": 66, "trial": 38, "rt": 767, "response": "Alpha"}, "73": {"stimulus": 70, "trial": 73, "rt": 523, "response": "Alpha"}, "72": {"stimulus": 77, "trial": 72, "rt": 537, "response": "Alpha"}, "71": {"stimulus": 8, "trial": 71, "rt": 510, "response": "Alpha"}, "70": {"stimulus": 30, "trial": 70, "rt": 615, "response": "Alpha"}, "59": {"stimulus": 27, "trial": 59, "rt": 2642, "response": "Beta"}, "79": {"stimulus": 0, "trial": 79, "rt": 1089, "response": "Beta"}, "58": {"stimulus": 12, "trial": 58, "rt": 2409, "response": "Alpha"}, "11": {"stimulus": 65, "trial": 11, "rt": 1137, "response": "Alpha"}, "10": {"stimulus": 46, "trial": 10, "rt": 1222, "response": "Beta"}, "13": {"stimulus": 38, "trial": 13, "rt": 1088, "response": "Alpha"}, "12": {"stimulus": 47, "trial": 12, "rt": 1131, "response": "Alpha"}, "15": {"stimulus": 62, "trial": 15, "rt": 631, "response": "Alpha"}, "14": {"stimulus": 32, "trial": 14, "rt": 722, "response": "Alpha"}, "17": {"stimulus": 61, "trial": 17, "rt": 992, "response": "Alpha"}, "16": {"stimulus": 54, "trial": 16, "rt": 1028, "response": "Beta"}, "19": {"stimulus": 74, "trial": 19, "rt": 1342, "response": "Alpha"}, "18": {"stimulus": 71, "trial": 18, "rt": 719, "response": "Alpha"}, "31": {"stimulus": 21, "trial": 31, "rt": 876, "response": "Alpha"}, "30": {"stimulus": 35, "trial": 30, "rt": 784, "response": "Alpha"}, "37": {"stimulus": 10, "trial": 37, "rt": 964, "response": "Beta"}, "36": {"stimulus": 33, "trial": 36, "rt": 533, "response": "Alpha"}, "35": {"stimulus": 13, "trial": 35, "rt": 672, "response": "Alpha"}, "34": {"stimulus": 51, "trial": 34, "rt": 711, "response": "Alpha"}, "33": {"stimulus": 39, "trial": 33, "rt": 734, "response": "Alpha"}, "55": {"stimulus": 18, "trial": 55, "rt": 1170, "response": "Beta"}, "74": {"stimulus": 56, "trial": 74, "rt": 1370, "response": "Alpha"}, "32": {"stimulus": 5, "trial": 32, "rt": 773, "response": "Alpha"}, "57": {"stimulus": 37, "trial": 57, "rt": 1102, "response": "Beta"}, "50": {"stimulus": 78, "trial": 50, "rt": 1014, "response": "Alpha"}}, "experiment": {"Paradigm": "TACL", "Stimuli": "Size-Color Squares", "Experiment": "Generating-Multiple-Categories"}, "submit": {"timeTotal": 367234, "age": "28", "comments": "MIND GAME .. RELAXING TOO", "sex": "MALE"}}