{"info": {"finish": 1535372530275, "participant": 112, "exposed": true, "lab": false, "start": 1535371545745, "counterbalance": 6, "gentype": 1, "condition": "Bottom", "browser": {"platform": "Win32", "userAgent": "Mozilla/5.0 (Windows NT 6.1; Win64; x64) AppleWebKit/537.36 (KHTML, like Gecko) Chrome/68.0.3440.106 Safari/537.36"}}, "observation": {"11": {"stimulus": 12, "trial": 11, "rt": 1881}, "10": {"stimulus": 30, "trial": 10, "rt": 1570}, "1": {"stimulus": 32, "trial": 1, "rt": 3450}, "0": {"stimulus": 12, "trial": 0, "rt": 3994}, "3": {"stimulus": 14, "trial": 3, "rt": 3244}, "2": {"stimulus": 30, "trial": 2, "rt": 2721}, "5": {"stimulus": 14, "trial": 5, "rt": 2248}, "4": {"stimulus": 30, "trial": 4, "rt": 2949}, "7": {"stimulus": 12, "trial": 7, "rt": 2197}, "6": {"stimulus": 32, "trial": 6, "rt": 4684}, "9": {"stimulus": 32, "trial": 9, "rt": 1627}, "8": {"stimulus": 14, "trial": 8, "rt": 2052}}, "generation": {"1": {"category": "Beta", "trial": 1, "stimulus": 79, "rt": 34160}, "0": {"category": "Beta", "trial": 0, "stimulus": 80, "rt": 27819}, "3": {"category": "Beta", "trial": 3, "stimulus": 72, "rt": 9056}, "2": {"category": "Beta", "trial": 2, "stimulus": 70, "rt": 27445}, "5": {"category": "Beta", "trial": 5, "stimulus": 62, "rt": 19207}, "4": {"category": "Beta", "trial": 4, "stimulus": 0, "rt": 7184}, "7": {"category": "Beta", "trial": 7, "stimulus": 9, "rt": 12213}, "6": {"category": "Beta", "trial": 6, "stimulus": 45, "rt": 5710}}, "generalization": {"56": {"stimulus": 11, "trial": 56, "rt": 1529, "response": "Beta"}, "77": {"stimulus": 17, "trial": 77, "rt": 1441, "response": "Beta"}, "54": {"stimulus": 28, "trial": 54, "rt": 827, "response": "Beta"}, "42": {"stimulus": 54, "trial": 42, "rt": 935, "response": "Beta"}, "48": {"stimulus": 69, "trial": 48, "rt": 1125, "response": "Beta"}, "43": {"stimulus": 53, "trial": 43, "rt": 1024, "response": "Beta"}, "60": {"stimulus": 62, "trial": 60, "rt": 3898, "response": "Beta"}, "61": {"stimulus": 31, "trial": 61, "rt": 2090, "response": "Alpha"}, "62": {"stimulus": 75, "trial": 62, "rt": 657, "response": "Beta"}, "63": {"stimulus": 77, "trial": 63, "rt": 1696, "response": "Beta"}, "64": {"stimulus": 12, "trial": 64, "rt": 790, "response": "Beta"}, "49": {"stimulus": 30, "trial": 49, "rt": 991, "response": "Beta"}, "66": {"stimulus": 48, "trial": 66, "rt": 601, "response": "Beta"}, "67": {"stimulus": 14, "trial": 67, "rt": 1532, "response": "Beta"}, "68": {"stimulus": 23, "trial": 68, "rt": 1054, "response": "Beta"}, "69": {"stimulus": 37, "trial": 69, "rt": 821, "response": "Beta"}, "80": {"stimulus": 32, "trial": 80, "rt": 2260, "response": "Alpha"}, "52": {"stimulus": 36, "trial": 52, "rt": 839, "response": "Beta"}, "53": {"stimulus": 44, "trial": 53, "rt": 2920, "response": "Beta"}, "24": {"stimulus": 70, "trial": 24, "rt": 1204, "response": "Beta"}, "25": {"stimulus": 58, "trial": 25, "rt": 7010, "response": "Alpha"}, "26": {"stimulus": 1, "trial": 26, "rt": 1391, "response": "Beta"}, "27": {"stimulus": 9, "trial": 27, "rt": 1537, "response": "Beta"}, "20": {"stimulus": 51, "trial": 20, "rt": 5662, "response": "Alpha"}, "21": {"stimulus": 79, "trial": 21, "rt": 1400, "response": "Beta"}, "22": {"stimulus": 78, "trial": 22, "rt": 1149, "response": "Beta"}, "23": {"stimulus": 50, "trial": 23, "rt": 3936, "response": "Alpha"}, "46": {"stimulus": 19, "trial": 46, "rt": 665, "response": "Beta"}, "47": {"stimulus": 67, "trial": 47, "rt": 3372, "response": "Beta"}, "44": {"stimulus": 73, "trial": 44, "rt": 1320, "response": "Beta"}, "45": {"stimulus": 0, "trial": 45, "rt": 3413, "response": "Beta"}, "28": {"stimulus": 43, "trial": 28, "rt": 1600, "response": "Beta"}, "29": {"stimulus": 76, "trial": 29, "rt": 2057, "response": "Beta"}, "40": {"stimulus": 13, "trial": 40, "rt": 4094, "response": "Beta"}, "41": {"stimulus": 74, "trial": 41, "rt": 1029, "response": "Beta"}, "1": {"stimulus": 35, "trial": 1, "rt": 2019, "response": "Beta"}, "0": {"stimulus": 61, "trial": 0, "rt": 3586, "response": "Beta"}, "3": {"stimulus": 21, "trial": 3, "rt": 1514, "response": "Alpha"}, "2": {"stimulus": 29, "trial": 2, "rt": 6506, "response": "Alpha"}, "5": {"stimulus": 20, "trial": 5, "rt": 2047, "response": "Alpha"}, "4": {"stimulus": 68, "trial": 4, "rt": 1434, "response": "Beta"}, "7": {"stimulus": 39, "trial": 7, "rt": 1155, "response": "Alpha"}, "6": {"stimulus": 40, "trial": 6, "rt": 3253, "response": "Alpha"}, "9": {"stimulus": 71, "trial": 9, "rt": 1104, "response": "Beta"}, "8": {"stimulus": 24, "trial": 8, "rt": 1928, "response": "Beta"}, "78": {"stimulus": 66, "trial": 78, "rt": 925, "response": "Beta"}, "51": {"stimulus": 6, "trial": 51, "rt": 3239, "response": "Beta"}, "39": {"stimulus": 57, "trial": 39, "rt": 1455, "response": "Beta"}, "65": {"stimulus": 34, "trial": 65, "rt": 2220, "response": "Alpha"}, "76": {"stimulus": 42, "trial": 76, "rt": 3047, "response": "Alpha"}, "75": {"stimulus": 22, "trial": 75, "rt": 34398, "response": "Alpha"}, "38": {"stimulus": 7, "trial": 38, "rt": 62888, "response": "Alpha"}, "73": {"stimulus": 26, "trial": 73, "rt": 1684, "response": "Beta"}, "72": {"stimulus": 10, "trial": 72, "rt": 604, "response": "Beta"}, "71": {"stimulus": 2, "trial": 71, "rt": 756, "response": "Beta"}, "70": {"stimulus": 27, "trial": 70, "rt": 6466, "response": "Beta"}, "59": {"stimulus": 3, "trial": 59, "rt": 1266, "response": "Beta"}, "79": {"stimulus": 47, "trial": 79, "rt": 855, "response": "Beta"}, "58": {"stimulus": 72, "trial": 58, "rt": 916, "response": "Beta"}, "11": {"stimulus": 16, "trial": 11, "rt": 1331, "response": "Beta"}, "10": {"stimulus": 52, "trial": 10, "rt": 1417, "response": "Beta"}, "13": {"stimulus": 80, "trial": 13, "rt": 1631, "response": "Beta"}, "12": {"stimulus": 65, "trial": 12, "rt": 4681, "response": "Beta"}, "15": {"stimulus": 41, "trial": 15, "rt": 1632, "response": "Beta"}, "14": {"stimulus": 56, "trial": 14, "rt": 5167, "response": "Alpha"}, "17": {"stimulus": 15, "trial": 17, "rt": 3374, "response": "Beta"}, "16": {"stimulus": 4, "trial": 16, "rt": 2850, "response": "Beta"}, "19": {"stimulus": 45, "trial": 19, "rt": 1801, "response": "Beta"}, "18": {"stimulus": 33, "trial": 18, "rt": 2481, "response": "Beta"}, "31": {"stimulus": 8, "trial": 31, "rt": 872, "response": "Beta"}, "30": {"stimulus": 60, "trial": 30, "rt": 949, "response": "Beta"}, "37": {"stimulus": 59, "trial": 37, "rt": 128597, "response": "Alpha"}, "36": {"stimulus": 55, "trial": 36, "rt": 3743, "response": "Beta"}, "35": {"stimulus": 25, "trial": 35, "rt": 3301, "response": "Beta"}, "34": {"stimulus": 38, "trial": 34, "rt": 2749, "response": "Beta"}, "33": {"stimulus": 49, "trial": 33, "rt": 2537, "response": "Alpha"}, "55": {"stimulus": 64, "trial": 55, "rt": 818, "response": "Beta"}, "74": {"stimulus": 18, "trial": 74, "rt": 1432, "response": "Beta"}, "32": {"stimulus": 46, "trial": 32, "rt": 820, "response": "Beta"}, "57": {"stimulus": 63, "trial": 57, "rt": 846, "response": "Beta"}, "50": {"stimulus": 5, "trial": 50, "rt": 1200, "response": "Beta"}}, "experiment": {"Paradigm": "TACL", "Stimuli": "Size-Color Squares", "Experiment": "Generating-Multiple-Categories"}, "submit": {"timeTotal": 985446, "age": "30", "comments": "quite interesting", "sex": "male"}}