{"info": {"finish": 1535372575322, "participant": 114, "exposed": true, "lab": false, "start": 1535371633395, "counterbalance": 6, "gentype": 2, "condition": "Middle", "browser": {"platform": "Win32", "userAgent": "Mozilla/5.0 (Windows NT 6.3) AppleWebKit/537.36 (KHTML, like Gecko) Chrome/68.0.3440.106 Safari/537.36"}}, "observation": {"11": {"stimulus": 32, "trial": 11, "rt": 15821}, "10": {"stimulus": 30, "trial": 10, "rt": 13555}, "1": {"stimulus": 30, "trial": 1, "rt": 2723}, "0": {"stimulus": 32, "trial": 0, "rt": 3592}, "3": {"stimulus": 48, "trial": 3, "rt": 2741}, "2": {"stimulus": 50, "trial": 2, "rt": 16748}, "5": {"stimulus": 50, "trial": 5, "rt": 10720}, "4": {"stimulus": 30, "trial": 4, "rt": 7928}, "7": {"stimulus": 48, "trial": 7, "rt": 6198}, "6": {"stimulus": 32, "trial": 6, "rt": 6151}, "9": {"stimulus": 50, "trial": 9, "rt": 2936}, "8": {"stimulus": 48, "trial": 8, "rt": 31899}}, "generation": {"1": {"category": "Beta", "trial": 1, "stimulus": 14, "rt": 8060}, "0": {"category": "Beta", "trial": 0, "stimulus": 15, "rt": 13309}, "3": {"category": "Beta", "trial": 3, "stimulus": 12, "rt": 22907}, "2": {"category": "Beta", "trial": 2, "stimulus": 13, "rt": 13308}, "5": {"category": "Gamma", "trial": 5, "stimulus": 14, "rt": 31245}, "4": {"category": "Gamma", "trial": 4, "stimulus": 15, "rt": 4908}, "7": {"category": "Gamma", "trial": 7, "stimulus": 17, "rt": 17721}, "6": {"category": "Gamma", "trial": 6, "stimulus": 13, "rt": 4743}}, "generalization": {"56": {"stimulus": 50, "trial": 56, "rt": 2062, "response": "Beta"}, "77": {"stimulus": 36, "trial": 77, "rt": 846, "response": "Gamma"}, "54": {"stimulus": 9, "trial": 54, "rt": 1054, "response": "Gamma"}, "42": {"stimulus": 58, "trial": 42, "rt": 1132, "response": "Beta"}, "48": {"stimulus": 0, "trial": 48, "rt": 1772, "response": "Gamma"}, "43": {"stimulus": 55, "trial": 43, "rt": 904, "response": "Gamma"}, "60": {"stimulus": 4, "trial": 60, "rt": 1167, "response": "Beta"}, "61": {"stimulus": 73, "trial": 61, "rt": 1431, "response": "Gamma"}, "62": {"stimulus": 54, "trial": 62, "rt": 1147, "response": "Gamma"}, "63": {"stimulus": 61, "trial": 63, "rt": 1319, "response": "Alpha"}, "64": {"stimulus": 67, "trial": 64, "rt": 2955, "response": "Beta"}, "49": {"stimulus": 37, "trial": 49, "rt": 774, "response": "Gamma"}, "66": {"stimulus": 27, "trial": 66, "rt": 4252, "response": "Gamma"}, "67": {"stimulus": 45, "trial": 67, "rt": 959, "response": "Gamma"}, "68": {"stimulus": 28, "trial": 68, "rt": 642, "response": "Gamma"}, "69": {"stimulus": 72, "trial": 69, "rt": 599, "response": "Gamma"}, "80": {"stimulus": 46, "trial": 80, "rt": 1158, "response": "Gamma"}, "52": {"stimulus": 62, "trial": 52, "rt": 937, "response": "Alpha"}, "53": {"stimulus": 70, "trial": 53, "rt": 3804, "response": "Alpha"}, "24": {"stimulus": 35, "trial": 24, "rt": 1053, "response": "Alpha"}, "25": {"stimulus": 38, "trial": 25, "rt": 758, "response": "Gamma"}, "26": {"stimulus": 30, "trial": 26, "rt": 1151, "response": "Gamma"}, "27": {"stimulus": 77, "trial": 27, "rt": 1699, "response": "Beta"}, "20": {"stimulus": 16, "trial": 20, "rt": 1077, "response": "Beta"}, "21": {"stimulus": 39, "trial": 21, "rt": 932, "response": "Gamma"}, "22": {"stimulus": 52, "trial": 22, "rt": 1471, "response": "Beta"}, "23": {"stimulus": 8, "trial": 23, "rt": 1132, "response": "Alpha"}, "46": {"stimulus": 12, "trial": 46, "rt": 1263, "response": "Gamma"}, "47": {"stimulus": 48, "trial": 47, "rt": 954, "response": "Gamma"}, "44": {"stimulus": 75, "trial": 44, "rt": 1758, "response": "Gamma"}, "45": {"stimulus": 41, "trial": 45, "rt": 1780, "response": "Beta"}, "28": {"stimulus": 10, "trial": 28, "rt": 2128, "response": "Gamma"}, "29": {"stimulus": 24, "trial": 29, "rt": 40507, "response": "Beta"}, "40": {"stimulus": 42, "trial": 40, "rt": 1160, "response": "Beta"}, "41": {"stimulus": 40, "trial": 41, "rt": 935, "response": "Beta"}, "1": {"stimulus": 56, "trial": 1, "rt": 6546, "response": "Gamma"}, "0": {"stimulus": 66, "trial": 0, "rt": 140828, "response": "Gamma"}, "3": {"stimulus": 29, "trial": 3, "rt": 1312, "response": "Gamma"}, "2": {"stimulus": 33, "trial": 2, "rt": 7782, "response": "Beta"}, "5": {"stimulus": 64, "trial": 5, "rt": 1092, "response": "Gamma"}, "4": {"stimulus": 18, "trial": 4, "rt": 3893, "response": "Gamma"}, "7": {"stimulus": 80, "trial": 7, "rt": 1164, "response": "Alpha"}, "6": {"stimulus": 15, "trial": 6, "rt": 26616, "response": "Beta"}, "9": {"stimulus": 60, "trial": 9, "rt": 977, "response": "Beta"}, "8": {"stimulus": 74, "trial": 8, "rt": 1365, "response": "Gamma"}, "78": {"stimulus": 63, "trial": 78, "rt": 968, "response": "Gamma"}, "51": {"stimulus": 71, "trial": 51, "rt": 982, "response": "Alpha"}, "39": {"stimulus": 5, "trial": 39, "rt": 1191, "response": "Beta"}, "65": {"stimulus": 2, "trial": 65, "rt": 6663, "response": "Gamma"}, "76": {"stimulus": 43, "trial": 76, "rt": 961, "response": "Alpha"}, "75": {"stimulus": 25, "trial": 75, "rt": 916, "response": "Alpha"}, "38": {"stimulus": 21, "trial": 38, "rt": 11056, "response": "Gamma"}, "73": {"stimulus": 69, "trial": 73, "rt": 1309, "response": "Alpha"}, "72": {"stimulus": 31, "trial": 72, "rt": 684, "response": "Beta"}, "71": {"stimulus": 14, "trial": 71, "rt": 1413, "response": "Alpha"}, "70": {"stimulus": 6, "trial": 70, "rt": 1377, "response": "Alpha"}, "59": {"stimulus": 51, "trial": 59, "rt": 1142, "response": "Beta"}, "79": {"stimulus": 32, "trial": 79, "rt": 1238, "response": "Beta"}, "58": {"stimulus": 78, "trial": 58, "rt": 1120, "response": "Beta"}, "11": {"stimulus": 7, "trial": 11, "rt": 1350, "response": "Beta"}, "10": {"stimulus": 49, "trial": 10, "rt": 1667, "response": "Beta"}, "13": {"stimulus": 19, "trial": 13, "rt": 1101, "response": "Gamma"}, "12": {"stimulus": 65, "trial": 12, "rt": 802, "response": "Gamma"}, "15": {"stimulus": 20, "trial": 15, "rt": 852, "response": "Gamma"}, "14": {"stimulus": 34, "trial": 14, "rt": 1309, "response": "Beta"}, "17": {"stimulus": 22, "trial": 17, "rt": 1371, "response": "Beta"}, "16": {"stimulus": 79, "trial": 16, "rt": 1804, "response": "Alpha"}, "19": {"stimulus": 59, "trial": 19, "rt": 925, "response": "Beta"}, "18": {"stimulus": 44, "trial": 18, "rt": 1229, "response": "Alpha"}, "31": {"stimulus": 3, "trial": 31, "rt": 1192, "response": "Gamma"}, "30": {"stimulus": 53, "trial": 30, "rt": 47268, "response": "Beta"}, "37": {"stimulus": 11, "trial": 37, "rt": 22535, "response": "Gamma"}, "36": {"stimulus": 57, "trial": 36, "rt": 6317, "response": "Gamma"}, "35": {"stimulus": 26, "trial": 35, "rt": 1735, "response": "Alpha"}, "34": {"stimulus": 23, "trial": 34, "rt": 1759, "response": "Beta"}, "33": {"stimulus": 47, "trial": 33, "rt": 50805, "response": "Gamma"}, "55": {"stimulus": 17, "trial": 55, "rt": 5005, "response": "Alpha"}, "74": {"stimulus": 76, "trial": 74, "rt": 961, "response": "Beta"}, "32": {"stimulus": 1, "trial": 32, "rt": 1174, "response": "Gamma"}, "57": {"stimulus": 13, "trial": 57, "rt": 1767, "response": "Beta"}, "50": {"stimulus": 68, "trial": 50, "rt": 1939, "response": "Beta"}}, "experiment": {"Paradigm": "TACL", "Stimuli": "Size-Color Squares", "Experiment": "Generating-Multiple-Categories"}, "submit": {"timeTotal": 943657, "age": "28", "comments": "nice", "sex": "male"}}