{"info": {"finish": 1535375909590, "participant": 115, "exposed": true, "lab": false, "start": 1535375611204, "counterbalance": 0, "gentype": 1, "condition": "Middle", "browser": {"platform": "Win32", "userAgent": "Mozilla/5.0 (Windows NT 10.0; Win64; x64) AppleWebKit/537.36 (KHTML, like Gecko) Chrome/68.0.3440.106 Safari/537.36"}}, "observation": {"11": {"stimulus": 48, "trial": 11, "rt": 7474}, "10": {"stimulus": 50, "trial": 10, "rt": 2564}, "1": {"stimulus": 30, "trial": 1, "rt": 2125}, "0": {"stimulus": 48, "trial": 0, "rt": 2520}, "3": {"stimulus": 32, "trial": 3, "rt": 2118}, "2": {"stimulus": 50, "trial": 2, "rt": 2159}, "5": {"stimulus": 32, "trial": 5, "rt": 2072}, "4": {"stimulus": 48, "trial": 4, "rt": 2009}, "7": {"stimulus": 50, "trial": 7, "rt": 2019}, "6": {"stimulus": 30, "trial": 6, "rt": 1770}, "9": {"stimulus": 30, "trial": 9, "rt": 2717}, "8": {"stimulus": 32, "trial": 8, "rt": 1904}}, "generation": {"1": {"category": "Beta", "trial": 1, "stimulus": 0, "rt": 8018}, "0": {"category": "Beta", "trial": 0, "stimulus": 8, "rt": 12089}, "3": {"category": "Beta", "trial": 3, "stimulus": 3, "rt": 4189}, "2": {"category": "Beta", "trial": 2, "stimulus": 2, "rt": 3406}, "5": {"category": "Beta", "trial": 5, "stimulus": 7, "rt": 6771}, "4": {"category": "Beta", "trial": 4, "stimulus": 6, "rt": 3461}, "7": {"category": "Beta", "trial": 7, "stimulus": 1, "rt": 5543}, "6": {"category": "Beta", "trial": 6, "stimulus": 4, "rt": 6977}}, "generalization": {"56": {"stimulus": 75, "trial": 56, "rt": 1063, "response": "Beta"}, "77": {"stimulus": 49, "trial": 77, "rt": 493, "response": "Alpha"}, "54": {"stimulus": 41, "trial": 54, "rt": 825, "response": "Alpha"}, "42": {"stimulus": 19, "trial": 42, "rt": 574, "response": "Alpha"}, "48": {"stimulus": 16, "trial": 48, "rt": 437, "response": "Beta"}, "43": {"stimulus": 77, "trial": 43, "rt": 864, "response": "Alpha"}, "60": {"stimulus": 7, "trial": 60, "rt": 1059, "response": "Beta"}, "61": {"stimulus": 31, "trial": 61, "rt": 1522, "response": "Alpha"}, "62": {"stimulus": 66, "trial": 62, "rt": 927, "response": "Alpha"}, "63": {"stimulus": 71, "trial": 63, "rt": 1185, "response": "Alpha"}, "64": {"stimulus": 10, "trial": 64, "rt": 5751, "response": "Beta"}, "49": {"stimulus": 42, "trial": 49, "rt": 939, "response": "Alpha"}, "66": {"stimulus": 2, "trial": 66, "rt": 703, "response": "Beta"}, "67": {"stimulus": 12, "trial": 67, "rt": 572, "response": "Beta"}, "68": {"stimulus": 64, "trial": 68, "rt": 916, "response": "Alpha"}, "69": {"stimulus": 74, "trial": 69, "rt": 470, "response": "Alpha"}, "80": {"stimulus": 13, "trial": 80, "rt": 1025, "response": "Beta"}, "52": {"stimulus": 22, "trial": 52, "rt": 884, "response": "Beta"}, "53": {"stimulus": 15, "trial": 53, "rt": 547, "response": "Beta"}, "24": {"stimulus": 72, "trial": 24, "rt": 550, "response": "Alpha"}, "25": {"stimulus": 36, "trial": 25, "rt": 452, "response": "Alpha"}, "26": {"stimulus": 33, "trial": 26, "rt": 697, "response": "Alpha"}, "27": {"stimulus": 6, "trial": 27, "rt": 586, "response": "Beta"}, "20": {"stimulus": 58, "trial": 20, "rt": 585, "response": "Alpha"}, "21": {"stimulus": 70, "trial": 21, "rt": 519, "response": "Alpha"}, "22": {"stimulus": 37, "trial": 22, "rt": 1053, "response": "Alpha"}, "23": {"stimulus": 55, "trial": 23, "rt": 476, "response": "Alpha"}, "46": {"stimulus": 63, "trial": 46, "rt": 513, "response": "Alpha"}, "47": {"stimulus": 4, "trial": 47, "rt": 827, "response": "Beta"}, "44": {"stimulus": 62, "trial": 44, "rt": 600, "response": "Alpha"}, "45": {"stimulus": 67, "trial": 45, "rt": 523, "response": "Alpha"}, "28": {"stimulus": 40, "trial": 28, "rt": 426, "response": "Beta"}, "29": {"stimulus": 44, "trial": 29, "rt": 675, "response": "Alpha"}, "40": {"stimulus": 34, "trial": 40, "rt": 612, "response": "Alpha"}, "41": {"stimulus": 45, "trial": 41, "rt": 530, "response": "Alpha"}, "1": {"stimulus": 35, "trial": 1, "rt": 1571, "response": "Beta"}, "0": {"stimulus": 73, "trial": 0, "rt": 2136, "response": "Alpha"}, "3": {"stimulus": 57, "trial": 3, "rt": 1032, "response": "Alpha"}, "2": {"stimulus": 20, "trial": 2, "rt": 2017, "response": "Beta"}, "5": {"stimulus": 24, "trial": 5, "rt": 817, "response": "Beta"}, "4": {"stimulus": 50, "trial": 4, "rt": 609, "response": "Alpha"}, "7": {"stimulus": 21, "trial": 7, "rt": 863, "response": "Beta"}, "6": {"stimulus": 79, "trial": 6, "rt": 842, "response": "Alpha"}, "9": {"stimulus": 26, "trial": 9, "rt": 538, "response": "Beta"}, "8": {"stimulus": 9, "trial": 8, "rt": 581, "response": "Beta"}, "78": {"stimulus": 0, "trial": 78, "rt": 743, "response": "Beta"}, "51": {"stimulus": 17, "trial": 51, "rt": 786, "response": "Beta"}, "39": {"stimulus": 59, "trial": 39, "rt": 553, "response": "Alpha"}, "65": {"stimulus": 30, "trial": 65, "rt": 688, "response": "Beta"}, "76": {"stimulus": 68, "trial": 76, "rt": 526, "response": "Alpha"}, "75": {"stimulus": 80, "trial": 75, "rt": 628, "response": "Alpha"}, "38": {"stimulus": 46, "trial": 38, "rt": 774, "response": "Alpha"}, "73": {"stimulus": 56, "trial": 73, "rt": 512, "response": "Alpha"}, "72": {"stimulus": 61, "trial": 72, "rt": 483, "response": "Alpha"}, "71": {"stimulus": 53, "trial": 71, "rt": 545, "response": "Alpha"}, "70": {"stimulus": 69, "trial": 70, "rt": 507, "response": "Alpha"}, "59": {"stimulus": 25, "trial": 59, "rt": 566, "response": "Alpha"}, "79": {"stimulus": 76, "trial": 79, "rt": 734, "response": "Alpha"}, "58": {"stimulus": 78, "trial": 58, "rt": 445, "response": "Alpha"}, "11": {"stimulus": 65, "trial": 11, "rt": 891, "response": "Alpha"}, "10": {"stimulus": 60, "trial": 10, "rt": 909, "response": "Alpha"}, "13": {"stimulus": 54, "trial": 13, "rt": 1046, "response": "Alpha"}, "12": {"stimulus": 32, "trial": 12, "rt": 1368, "response": "Beta"}, "15": {"stimulus": 23, "trial": 15, "rt": 442, "response": "Beta"}, "14": {"stimulus": 28, "trial": 14, "rt": 804, "response": "Beta"}, "17": {"stimulus": 5, "trial": 17, "rt": 513, "response": "Beta"}, "16": {"stimulus": 14, "trial": 16, "rt": 536, "response": "Beta"}, "19": {"stimulus": 47, "trial": 19, "rt": 741, "response": "Alpha"}, "18": {"stimulus": 43, "trial": 18, "rt": 922, "response": "Alpha"}, "31": {"stimulus": 29, "trial": 31, "rt": 1140, "response": "Alpha"}, "30": {"stimulus": 8, "trial": 30, "rt": 1058, "response": "Beta"}, "37": {"stimulus": 18, "trial": 37, "rt": 1234, "response": "Beta"}, "36": {"stimulus": 27, "trial": 36, "rt": 819, "response": "Alpha"}, "35": {"stimulus": 11, "trial": 35, "rt": 454, "response": "Beta"}, "34": {"stimulus": 1, "trial": 34, "rt": 1119, "response": "Beta"}, "33": {"stimulus": 52, "trial": 33, "rt": 577, "response": "Alpha"}, "55": {"stimulus": 39, "trial": 55, "rt": 536, "response": "Alpha"}, "74": {"stimulus": 48, "trial": 74, "rt": 441, "response": "Alpha"}, "32": {"stimulus": 38, "trial": 32, "rt": 719, "response": "Alpha"}, "57": {"stimulus": 51, "trial": 57, "rt": 430, "response": "Alpha"}, "50": {"stimulus": 3, "trial": 50, "rt": 595, "response": "Beta"}}, "experiment": {"Paradigm": "TACL", "Stimuli": "Size-Color Squares", "Experiment": "Generating-Multiple-Categories"}, "submit": {"timeTotal": 298652, "age": "34", "comments": "", "sex": "male"}}