{"info": {"finish": 1535372957429, "participant": 116, "exposed": true, "lab": false, "start": 1535372362575, "counterbalance": 7, "gentype": 2, "condition": "Middle", "browser": {"platform": "MacIntel", "userAgent": "Mozilla/5.0 (Macintosh; Intel Mac OS X 10_13_6) AppleWebKit/537.36 (KHTML, like Gecko) Chrome/69.0.3497.57 Safari/537.36"}}, "observation": {"11": {"stimulus": 30, "trial": 11, "rt": 2940}, "10": {"stimulus": 32, "trial": 10, "rt": 2770}, "1": {"stimulus": 32, "trial": 1, "rt": 3369}, "0": {"stimulus": 48, "trial": 0, "rt": 6246}, "3": {"stimulus": 30, "trial": 3, "rt": 4564}, "2": {"stimulus": 50, "trial": 2, "rt": 2509}, "5": {"stimulus": 48, "trial": 5, "rt": 6317}, "4": {"stimulus": 32, "trial": 4, "rt": 8002}, "7": {"stimulus": 50, "trial": 7, "rt": 1752}, "6": {"stimulus": 30, "trial": 6, "rt": 1722}, "9": {"stimulus": 48, "trial": 9, "rt": 6675}, "8": {"stimulus": 50, "trial": 8, "rt": 6893}}, "generation": {"1": {"category": "Beta", "trial": 1, "stimulus": 20, "rt": 8499}, "0": {"category": "Beta", "trial": 0, "stimulus": 21, "rt": 20149}, "3": {"category": "Beta", "trial": 3, "stimulus": 19, "rt": 11834}, "2": {"category": "Beta", "trial": 2, "stimulus": 23, "rt": 9183}, "5": {"category": "Gamma", "trial": 5, "stimulus": 20, "rt": 47875}, "4": {"category": "Gamma", "trial": 4, "stimulus": 18, "rt": 32263}, "7": {"category": "Gamma", "trial": 7, "stimulus": 22, "rt": 16784}, "6": {"category": "Gamma", "trial": 6, "stimulus": 40, "rt": 13161}}, "generalization": {"56": {"stimulus": 23, "trial": 56, "rt": 701, "response": "Alpha"}, "77": {"stimulus": 27, "trial": 77, "rt": 2293, "response": "Alpha"}, "54": {"stimulus": 13, "trial": 54, "rt": 1316, "response": "Alpha"}, "42": {"stimulus": 78, "trial": 42, "rt": 1448, "response": "Beta"}, "48": {"stimulus": 8, "trial": 48, "rt": 907, "response": "Gamma"}, "43": {"stimulus": 76, "trial": 43, "rt": 1351, "response": "Beta"}, "60": {"stimulus": 6, "trial": 60, "rt": 1342, "response": "Alpha"}, "61": {"stimulus": 63, "trial": 61, "rt": 1647, "response": "Beta"}, "62": {"stimulus": 29, "trial": 62, "rt": 1953, "response": "Alpha"}, "63": {"stimulus": 15, "trial": 63, "rt": 10072, "response": "Alpha"}, "64": {"stimulus": 14, "trial": 64, "rt": 3403, "response": "Alpha"}, "49": {"stimulus": 70, "trial": 49, "rt": 1254, "response": "Beta"}, "66": {"stimulus": 33, "trial": 66, "rt": 2015, "response": "Alpha"}, "67": {"stimulus": 66, "trial": 67, "rt": 2718, "response": "Beta"}, "68": {"stimulus": 3, "trial": 68, "rt": 1713, "response": "Alpha"}, "69": {"stimulus": 48, "trial": 69, "rt": 3126, "response": "Beta"}, "80": {"stimulus": 24, "trial": 80, "rt": 1239, "response": "Alpha"}, "52": {"stimulus": 44, "trial": 52, "rt": 2160, "response": "Gamma"}, "53": {"stimulus": 50, "trial": 53, "rt": 2109, "response": "Alpha"}, "24": {"stimulus": 0, "trial": 24, "rt": 2735, "response": "Gamma"}, "25": {"stimulus": 74, "trial": 25, "rt": 1091, "response": "Beta"}, "26": {"stimulus": 45, "trial": 26, "rt": 978, "response": "Beta"}, "27": {"stimulus": 58, "trial": 27, "rt": 988, "response": "Beta"}, "20": {"stimulus": 41, "trial": 20, "rt": 2614, "response": "Beta"}, "21": {"stimulus": 68, "trial": 21, "rt": 1050, "response": "Beta"}, "22": {"stimulus": 19, "trial": 22, "rt": 1982, "response": "Alpha"}, "23": {"stimulus": 52, "trial": 23, "rt": 1550, "response": "Beta"}, "46": {"stimulus": 37, "trial": 46, "rt": 25604, "response": "Alpha"}, "47": {"stimulus": 51, "trial": 47, "rt": 4028, "response": "Gamma"}, "44": {"stimulus": 62, "trial": 44, "rt": 1265, "response": "Beta"}, "45": {"stimulus": 22, "trial": 45, "rt": 1427, "response": "Alpha"}, "28": {"stimulus": 79, "trial": 28, "rt": 1004, "response": "Beta"}, "29": {"stimulus": 73, "trial": 29, "rt": 698, "response": "Beta"}, "40": {"stimulus": 28, "trial": 40, "rt": 2518, "response": "Alpha"}, "41": {"stimulus": 69, "trial": 41, "rt": 3044, "response": "Beta"}, "1": {"stimulus": 9, "trial": 1, "rt": 1481, "response": "Alpha"}, "0": {"stimulus": 25, "trial": 0, "rt": 6333, "response": "Gamma"}, "3": {"stimulus": 16, "trial": 3, "rt": 1472, "response": "Gamma"}, "2": {"stimulus": 11, "trial": 2, "rt": 938, "response": "Alpha"}, "5": {"stimulus": 46, "trial": 5, "rt": 3199, "response": "Alpha"}, "4": {"stimulus": 77, "trial": 4, "rt": 1739, "response": "Beta"}, "7": {"stimulus": 36, "trial": 7, "rt": 1688, "response": "Beta"}, "6": {"stimulus": 30, "trial": 6, "rt": 969, "response": "Alpha"}, "9": {"stimulus": 5, "trial": 9, "rt": 2614, "response": "Alpha"}, "8": {"stimulus": 10, "trial": 8, "rt": 1926, "response": "Alpha"}, "78": {"stimulus": 12, "trial": 78, "rt": 1079, "response": "Alpha"}, "51": {"stimulus": 49, "trial": 51, "rt": 1065, "response": "Alpha"}, "39": {"stimulus": 18, "trial": 39, "rt": 3871, "response": "Beta"}, "65": {"stimulus": 53, "trial": 65, "rt": 2661, "response": "Beta"}, "76": {"stimulus": 64, "trial": 76, "rt": 9507, "response": "Beta"}, "75": {"stimulus": 26, "trial": 75, "rt": 1697, "response": "Gamma"}, "38": {"stimulus": 1, "trial": 38, "rt": 4836, "response": "Gamma"}, "73": {"stimulus": 67, "trial": 73, "rt": 1680, "response": "Beta"}, "72": {"stimulus": 31, "trial": 72, "rt": 1369, "response": "Alpha"}, "71": {"stimulus": 80, "trial": 71, "rt": 1001, "response": "Beta"}, "70": {"stimulus": 75, "trial": 70, "rt": 758, "response": "Beta"}, "59": {"stimulus": 42, "trial": 59, "rt": 6966, "response": "Gamma"}, "79": {"stimulus": 55, "trial": 79, "rt": 1489, "response": "Beta"}, "58": {"stimulus": 32, "trial": 58, "rt": 831, "response": "Alpha"}, "11": {"stimulus": 61, "trial": 11, "rt": 1991, "response": "Beta"}, "10": {"stimulus": 21, "trial": 10, "rt": 1251, "response": "Alpha"}, "13": {"stimulus": 38, "trial": 13, "rt": 1060, "response": "Alpha"}, "12": {"stimulus": 20, "trial": 12, "rt": 1446, "response": "Alpha"}, "15": {"stimulus": 71, "trial": 15, "rt": 2617, "response": "Beta"}, "14": {"stimulus": 17, "trial": 14, "rt": 1623, "response": "Gamma"}, "17": {"stimulus": 65, "trial": 17, "rt": 2724, "response": "Beta"}, "16": {"stimulus": 34, "trial": 16, "rt": 2741, "response": "Gamma"}, "19": {"stimulus": 7, "trial": 19, "rt": 1813, "response": "Gamma"}, "18": {"stimulus": 56, "trial": 18, "rt": 9333, "response": "Beta"}, "31": {"stimulus": 35, "trial": 31, "rt": 1383, "response": "Gamma"}, "30": {"stimulus": 57, "trial": 30, "rt": 692, "response": "Beta"}, "37": {"stimulus": 40, "trial": 37, "rt": 21294, "response": "Alpha"}, "36": {"stimulus": 60, "trial": 36, "rt": 1982, "response": "Beta"}, "35": {"stimulus": 47, "trial": 35, "rt": 2207, "response": "Beta"}, "34": {"stimulus": 43, "trial": 34, "rt": 1309, "response": "Gamma"}, "33": {"stimulus": 54, "trial": 33, "rt": 660, "response": "Beta"}, "55": {"stimulus": 4, "trial": 55, "rt": 879, "response": "Alpha"}, "74": {"stimulus": 59, "trial": 74, "rt": 3763, "response": "Beta"}, "32": {"stimulus": 72, "trial": 32, "rt": 1305, "response": "Beta"}, "57": {"stimulus": 2, "trial": 57, "rt": 735, "response": "Alpha"}, "50": {"stimulus": 39, "trial": 50, "rt": 1559, "response": "Alpha"}}, "experiment": {"Paradigm": "TACL", "Stimuli": "Size-Color Squares", "Experiment": "Generating-Multiple-Categories"}, "submit": {"timeTotal": 597180, "age": "26", "comments": "Thank you", "sex": "female"}}