{"info": {"finish": 1535373551298, "participant": 117, "exposed": true, "lab": false, "start": 1535373077684, "counterbalance": 0, "gentype": 1, "condition": "Middle", "browser": {"platform": "Win32", "userAgent": "Mozilla/5.0 (Windows NT 10.0; Win64; x64) AppleWebKit/537.36 (KHTML, like Gecko) Chrome/68.0.3440.106 Safari/537.36"}}, "observation": {"11": {"stimulus": 48, "trial": 11, "rt": 2060}, "10": {"stimulus": 32, "trial": 10, "rt": 8552}, "1": {"stimulus": 30, "trial": 1, "rt": 2694}, "0": {"stimulus": 32, "trial": 0, "rt": 3587}, "3": {"stimulus": 50, "trial": 3, "rt": 2760}, "2": {"stimulus": 48, "trial": 2, "rt": 2443}, "5": {"stimulus": 50, "trial": 5, "rt": 5450}, "4": {"stimulus": 32, "trial": 4, "rt": 2060}, "7": {"stimulus": 48, "trial": 7, "rt": 2028}, "6": {"stimulus": 30, "trial": 6, "rt": 2644}, "9": {"stimulus": 50, "trial": 9, "rt": 2768}, "8": {"stimulus": 30, "trial": 8, "rt": 1937}}, "generation": {"1": {"category": "Beta", "trial": 1, "stimulus": 76, "rt": 8289}, "0": {"category": "Beta", "trial": 0, "stimulus": 79, "rt": 24385}, "3": {"category": "Beta", "trial": 3, "stimulus": 78, "rt": 7398}, "2": {"category": "Beta", "trial": 2, "stimulus": 75, "rt": 17719}, "5": {"category": "Beta", "trial": 5, "stimulus": 68, "rt": 21035}, "4": {"category": "Beta", "trial": 4, "stimulus": 77, "rt": 13086}, "7": {"category": "Beta", "trial": 7, "stimulus": 70, "rt": 13688}, "6": {"category": "Beta", "trial": 6, "stimulus": 69, "rt": 13943}}, "generalization": {"56": {"stimulus": 49, "trial": 56, "rt": 1501, "response": "Alpha"}, "77": {"stimulus": 6, "trial": 77, "rt": 570, "response": "Alpha"}, "54": {"stimulus": 19, "trial": 54, "rt": 702, "response": "Alpha"}, "42": {"stimulus": 79, "trial": 42, "rt": 1225, "response": "Beta"}, "48": {"stimulus": 20, "trial": 48, "rt": 1245, "response": "Alpha"}, "43": {"stimulus": 76, "trial": 43, "rt": 595, "response": "Beta"}, "60": {"stimulus": 14, "trial": 60, "rt": 1660, "response": "Alpha"}, "61": {"stimulus": 64, "trial": 61, "rt": 1201, "response": "Beta"}, "62": {"stimulus": 38, "trial": 62, "rt": 782, "response": "Alpha"}, "63": {"stimulus": 67, "trial": 63, "rt": 1293, "response": "Beta"}, "64": {"stimulus": 27, "trial": 64, "rt": 1362, "response": "Alpha"}, "49": {"stimulus": 58, "trial": 49, "rt": 1452, "response": "Beta"}, "66": {"stimulus": 54, "trial": 66, "rt": 1833, "response": "Beta"}, "67": {"stimulus": 60, "trial": 67, "rt": 1386, "response": "Beta"}, "68": {"stimulus": 63, "trial": 68, "rt": 802, "response": "Beta"}, "69": {"stimulus": 33, "trial": 69, "rt": 1269, "response": "Alpha"}, "80": {"stimulus": 47, "trial": 80, "rt": 1024, "response": "Alpha"}, "52": {"stimulus": 62, "trial": 52, "rt": 725, "response": "Beta"}, "53": {"stimulus": 9, "trial": 53, "rt": 1105, "response": "Alpha"}, "24": {"stimulus": 22, "trial": 24, "rt": 518, "response": "Alpha"}, "25": {"stimulus": 45, "trial": 25, "rt": 2654, "response": "Beta"}, "26": {"stimulus": 30, "trial": 26, "rt": 664, "response": "Alpha"}, "27": {"stimulus": 32, "trial": 27, "rt": 817, "response": "Alpha"}, "20": {"stimulus": 51, "trial": 20, "rt": 823, "response": "Alpha"}, "21": {"stimulus": 3, "trial": 21, "rt": 679, "response": "Alpha"}, "22": {"stimulus": 5, "trial": 22, "rt": 590, "response": "Alpha"}, "23": {"stimulus": 8, "trial": 23, "rt": 808, "response": "Alpha"}, "46": {"stimulus": 2, "trial": 46, "rt": 600, "response": "Alpha"}, "47": {"stimulus": 72, "trial": 47, "rt": 2072, "response": "Beta"}, "44": {"stimulus": 66, "trial": 44, "rt": 558, "response": "Beta"}, "45": {"stimulus": 0, "trial": 45, "rt": 1375, "response": "Alpha"}, "28": {"stimulus": 40, "trial": 28, "rt": 720, "response": "Alpha"}, "29": {"stimulus": 16, "trial": 29, "rt": 746, "response": "Alpha"}, "40": {"stimulus": 39, "trial": 40, "rt": 797, "response": "Alpha"}, "41": {"stimulus": 59, "trial": 41, "rt": 2008, "response": "Beta"}, "1": {"stimulus": 77, "trial": 1, "rt": 1515, "response": "Beta"}, "0": {"stimulus": 15, "trial": 0, "rt": 4052, "response": "Alpha"}, "3": {"stimulus": 1, "trial": 3, "rt": 1427, "response": "Alpha"}, "2": {"stimulus": 74, "trial": 2, "rt": 2514, "response": "Beta"}, "5": {"stimulus": 53, "trial": 5, "rt": 1127, "response": "Alpha"}, "4": {"stimulus": 21, "trial": 4, "rt": 880, "response": "Alpha"}, "7": {"stimulus": 13, "trial": 7, "rt": 954, "response": "Alpha"}, "6": {"stimulus": 55, "trial": 6, "rt": 1108, "response": "Alpha"}, "9": {"stimulus": 35, "trial": 9, "rt": 826, "response": "Alpha"}, "8": {"stimulus": 34, "trial": 8, "rt": 966, "response": "Alpha"}, "78": {"stimulus": 41, "trial": 78, "rt": 632, "response": "Alpha"}, "51": {"stimulus": 61, "trial": 51, "rt": 1099, "response": "Beta"}, "39": {"stimulus": 23, "trial": 39, "rt": 576, "response": "Alpha"}, "65": {"stimulus": 48, "trial": 65, "rt": 1143, "response": "Alpha"}, "76": {"stimulus": 52, "trial": 76, "rt": 1019, "response": "Alpha"}, "75": {"stimulus": 4, "trial": 75, "rt": 619, "response": "Alpha"}, "38": {"stimulus": 12, "trial": 38, "rt": 1191, "response": "Alpha"}, "73": {"stimulus": 56, "trial": 73, "rt": 1420, "response": "Alpha"}, "72": {"stimulus": 69, "trial": 72, "rt": 1397, "response": "Beta"}, "71": {"stimulus": 46, "trial": 71, "rt": 710, "response": "Alpha"}, "70": {"stimulus": 28, "trial": 70, "rt": 1954, "response": "Alpha"}, "59": {"stimulus": 73, "trial": 59, "rt": 1282, "response": "Beta"}, "79": {"stimulus": 43, "trial": 79, "rt": 605, "response": "Alpha"}, "58": {"stimulus": 10, "trial": 58, "rt": 1026, "response": "Alpha"}, "11": {"stimulus": 18, "trial": 11, "rt": 1019, "response": "Alpha"}, "10": {"stimulus": 17, "trial": 10, "rt": 1049, "response": "Alpha"}, "13": {"stimulus": 78, "trial": 13, "rt": 1816, "response": "Beta"}, "12": {"stimulus": 44, "trial": 12, "rt": 814, "response": "Alpha"}, "15": {"stimulus": 26, "trial": 15, "rt": 743, "response": "Alpha"}, "14": {"stimulus": 29, "trial": 14, "rt": 819, "response": "Alpha"}, "17": {"stimulus": 50, "trial": 17, "rt": 896, "response": "Alpha"}, "16": {"stimulus": 11, "trial": 16, "rt": 613, "response": "Alpha"}, "19": {"stimulus": 7, "trial": 19, "rt": 561, "response": "Alpha"}, "18": {"stimulus": 36, "trial": 18, "rt": 621, "response": "Alpha"}, "31": {"stimulus": 37, "trial": 31, "rt": 1853, "response": "Alpha"}, "30": {"stimulus": 65, "trial": 30, "rt": 1518, "response": "Beta"}, "37": {"stimulus": 75, "trial": 37, "rt": 766, "response": "Beta"}, "36": {"stimulus": 80, "trial": 36, "rt": 1321, "response": "Beta"}, "35": {"stimulus": 31, "trial": 35, "rt": 736, "response": "Alpha"}, "34": {"stimulus": 42, "trial": 34, "rt": 865, "response": "Alpha"}, "33": {"stimulus": 25, "trial": 33, "rt": 1105, "response": "Alpha"}, "55": {"stimulus": 57, "trial": 55, "rt": 3573, "response": "Beta"}, "74": {"stimulus": 24, "trial": 74, "rt": 755, "response": "Alpha"}, "32": {"stimulus": 70, "trial": 32, "rt": 1332, "response": "Beta"}, "57": {"stimulus": 68, "trial": 57, "rt": 1207, "response": "Beta"}, "50": {"stimulus": 71, "trial": 50, "rt": 1166, "response": "Beta"}}, "experiment": {"Paradigm": "TACL", "Stimuli": "Size-Color Squares", "Experiment": "Generating-Multiple-Categories"}, "submit": {"timeTotal": 473882, "age": "53", "comments": "", "sex": "male"}}