{"info": {"finish": 1535374679363, "participant": 119, "exposed": true, "lab": false, "start": 1535374318461, "counterbalance": 2, "gentype": 0, "condition": "Middle", "browser": {"platform": "Win32", "userAgent": "Mozilla/5.0 (Windows NT 6.1) AppleWebKit/537.36 (KHTML, like Gecko) Chrome/68.0.3440.106 Safari/537.36"}}, "observation": {"11": {"stimulus": 30, "trial": 11, "rt": 1834}, "10": {"stimulus": 48, "trial": 10, "rt": 1813}, "1": {"stimulus": 50, "trial": 1, "rt": 2685}, "0": {"stimulus": 48, "trial": 0, "rt": 5801}, "3": {"stimulus": 30, "trial": 3, "rt": 2093}, "2": {"stimulus": 32, "trial": 2, "rt": 2501}, "5": {"stimulus": 50, "trial": 5, "rt": 2712}, "4": {"stimulus": 32, "trial": 4, "rt": 2367}, "7": {"stimulus": 30, "trial": 7, "rt": 1808}, "6": {"stimulus": 48, "trial": 6, "rt": 1507}, "9": {"stimulus": 50, "trial": 9, "rt": 1624}, "8": {"stimulus": 32, "trial": 8, "rt": 1801}}, "generation": {"1": {"category": "Not-Alpha", "trial": 1, "stimulus": 80, "rt": 9674}, "0": {"category": "Not-Alpha", "trial": 0, "stimulus": 75, "rt": 30907}, "3": {"category": "Not-Alpha", "trial": 3, "stimulus": 0, "rt": 8133}, "2": {"category": "Not-Alpha", "trial": 2, "stimulus": 8, "rt": 7310}, "5": {"category": "Not-Alpha", "trial": 5, "stimulus": 72, "rt": 9839}, "4": {"category": "Not-Alpha", "trial": 4, "stimulus": 6, "rt": 4946}, "7": {"category": "Not-Alpha", "trial": 7, "stimulus": 12, "rt": 12202}, "6": {"category": "Not-Alpha", "trial": 6, "stimulus": 7, "rt": 10098}}, "generalization": {"56": {"stimulus": 53, "trial": 56, "rt": 1182, "response": "Alpha"}, "77": {"stimulus": 73, "trial": 77, "rt": 1144, "response": "Alpha"}, "54": {"stimulus": 70, "trial": 54, "rt": 1526, "response": "Beta"}, "42": {"stimulus": 79, "trial": 42, "rt": 660, "response": "Alpha"}, "48": {"stimulus": 33, "trial": 48, "rt": 1181, "response": "Alpha"}, "43": {"stimulus": 21, "trial": 43, "rt": 877, "response": "Alpha"}, "60": {"stimulus": 75, "trial": 60, "rt": 1099, "response": "Beta"}, "61": {"stimulus": 32, "trial": 61, "rt": 1095, "response": "Alpha"}, "62": {"stimulus": 52, "trial": 62, "rt": 1330, "response": "Alpha"}, "63": {"stimulus": 80, "trial": 63, "rt": 2444, "response": "Beta"}, "64": {"stimulus": 55, "trial": 64, "rt": 1844, "response": "Alpha"}, "49": {"stimulus": 62, "trial": 49, "rt": 1624, "response": "Alpha"}, "66": {"stimulus": 50, "trial": 66, "rt": 1048, "response": "Alpha"}, "67": {"stimulus": 1, "trial": 67, "rt": 843, "response": "Beta"}, "68": {"stimulus": 15, "trial": 68, "rt": 921, "response": "Beta"}, "69": {"stimulus": 68, "trial": 69, "rt": 1026, "response": "Alpha"}, "80": {"stimulus": 71, "trial": 80, "rt": 1233, "response": "Alpha"}, "52": {"stimulus": 31, "trial": 52, "rt": 762, "response": "Alpha"}, "53": {"stimulus": 27, "trial": 53, "rt": 821, "response": "Alpha"}, "24": {"stimulus": 59, "trial": 24, "rt": 857, "response": "Alpha"}, "25": {"stimulus": 19, "trial": 25, "rt": 1117, "response": "Beta"}, "26": {"stimulus": 63, "trial": 26, "rt": 1350, "response": "Alpha"}, "27": {"stimulus": 64, "trial": 27, "rt": 937, "response": "Alpha"}, "20": {"stimulus": 49, "trial": 20, "rt": 1417, "response": "Alpha"}, "21": {"stimulus": 46, "trial": 21, "rt": 845, "response": "Alpha"}, "22": {"stimulus": 43, "trial": 22, "rt": 857, "response": "Alpha"}, "23": {"stimulus": 72, "trial": 23, "rt": 788, "response": "Alpha"}, "46": {"stimulus": 41, "trial": 46, "rt": 1256, "response": "Alpha"}, "47": {"stimulus": 17, "trial": 47, "rt": 988, "response": "Beta"}, "44": {"stimulus": 3, "trial": 44, "rt": 988, "response": "Beta"}, "45": {"stimulus": 24, "trial": 45, "rt": 2690, "response": "Beta"}, "28": {"stimulus": 47, "trial": 28, "rt": 972, "response": "Alpha"}, "29": {"stimulus": 67, "trial": 29, "rt": 665, "response": "Alpha"}, "40": {"stimulus": 57, "trial": 40, "rt": 553, "response": "Alpha"}, "41": {"stimulus": 0, "trial": 41, "rt": 1113, "response": "Beta"}, "1": {"stimulus": 7, "trial": 1, "rt": 1630, "response": "Beta"}, "0": {"stimulus": 29, "trial": 0, "rt": 3248, "response": "Alpha"}, "3": {"stimulus": 34, "trial": 3, "rt": 1211, "response": "Alpha"}, "2": {"stimulus": 36, "trial": 2, "rt": 1278, "response": "Alpha"}, "5": {"stimulus": 69, "trial": 5, "rt": 1771, "response": "Beta"}, "4": {"stimulus": 12, "trial": 4, "rt": 1526, "response": "Beta"}, "7": {"stimulus": 30, "trial": 7, "rt": 1093, "response": "Alpha"}, "6": {"stimulus": 51, "trial": 6, "rt": 1414, "response": "Alpha"}, "9": {"stimulus": 66, "trial": 9, "rt": 1344, "response": "Beta"}, "8": {"stimulus": 18, "trial": 8, "rt": 1237, "response": "Alpha"}, "78": {"stimulus": 40, "trial": 78, "rt": 1236, "response": "Alpha"}, "51": {"stimulus": 44, "trial": 51, "rt": 843, "response": "Alpha"}, "39": {"stimulus": 77, "trial": 39, "rt": 912, "response": "Alpha"}, "65": {"stimulus": 10, "trial": 65, "rt": 1187, "response": "Beta"}, "76": {"stimulus": 26, "trial": 76, "rt": 2053, "response": "Beta"}, "75": {"stimulus": 78, "trial": 75, "rt": 1277, "response": "Beta"}, "38": {"stimulus": 28, "trial": 38, "rt": 874, "response": "Beta"}, "73": {"stimulus": 65, "trial": 73, "rt": 935, "response": "Alpha"}, "72": {"stimulus": 13, "trial": 72, "rt": 1393, "response": "Beta"}, "71": {"stimulus": 61, "trial": 71, "rt": 820, "response": "Alpha"}, "70": {"stimulus": 74, "trial": 70, "rt": 1110, "response": "Beta"}, "59": {"stimulus": 4, "trial": 59, "rt": 1247, "response": "Beta"}, "79": {"stimulus": 14, "trial": 79, "rt": 1653, "response": "Beta"}, "58": {"stimulus": 48, "trial": 58, "rt": 557, "response": "Alpha"}, "11": {"stimulus": 9, "trial": 11, "rt": 1528, "response": "Beta"}, "10": {"stimulus": 76, "trial": 10, "rt": 1234, "response": "Beta"}, "13": {"stimulus": 2, "trial": 13, "rt": 1652, "response": "Beta"}, "12": {"stimulus": 56, "trial": 12, "rt": 1225, "response": "Alpha"}, "15": {"stimulus": 60, "trial": 15, "rt": 898, "response": "Beta"}, "14": {"stimulus": 38, "trial": 14, "rt": 1315, "response": "Alpha"}, "17": {"stimulus": 58, "trial": 17, "rt": 794, "response": "Alpha"}, "16": {"stimulus": 37, "trial": 16, "rt": 1209, "response": "Alpha"}, "19": {"stimulus": 22, "trial": 19, "rt": 893, "response": "Beta"}, "18": {"stimulus": 16, "trial": 18, "rt": 971, "response": "Beta"}, "31": {"stimulus": 39, "trial": 31, "rt": 1540, "response": "Alpha"}, "30": {"stimulus": 11, "trial": 30, "rt": 1035, "response": "Beta"}, "37": {"stimulus": 23, "trial": 37, "rt": 971, "response": "Beta"}, "36": {"stimulus": 25, "trial": 36, "rt": 1037, "response": "Beta"}, "35": {"stimulus": 5, "trial": 35, "rt": 987, "response": "Beta"}, "34": {"stimulus": 20, "trial": 34, "rt": 1874, "response": "Beta"}, "33": {"stimulus": 54, "trial": 33, "rt": 579, "response": "Alpha"}, "55": {"stimulus": 42, "trial": 55, "rt": 1360, "response": "Alpha"}, "74": {"stimulus": 6, "trial": 74, "rt": 1363, "response": "Beta"}, "32": {"stimulus": 8, "trial": 32, "rt": 1282, "response": "Beta"}, "57": {"stimulus": 45, "trial": 57, "rt": 998, "response": "Alpha"}, "50": {"stimulus": 35, "trial": 50, "rt": 1406, "response": "Alpha"}}, "experiment": {"Paradigm": "TACL", "Stimuli": "Size-Color Squares", "Experiment": "Generating-Multiple-Categories"}, "submit": {"timeTotal": 361158, "age": "36", "comments": "thanks", "sex": "male"}}