{"info": {"finish": 1534979699502, "participant": 12, "exposed": true, "lab": true, "start": 1534979525876, "counterbalance": 7, "gentype": 1, "condition": "Bottom", "browser": {"platform": "MacIntel", "userAgent": "Mozilla/5.0 (Macintosh; Intel Mac OS X 10.13; rv:61.0) Gecko/20100101 Firefox/61.0"}}, "observation": {"11": {"stimulus": 30, "trial": 11, "rt": 1934}, "10": {"stimulus": 32, "trial": 10, "rt": 1362}, "1": {"stimulus": 30, "trial": 1, "rt": 1153}, "0": {"stimulus": 14, "trial": 0, "rt": 1715}, "3": {"stimulus": 32, "trial": 3, "rt": 1413}, "2": {"stimulus": 12, "trial": 2, "rt": 1414}, "5": {"stimulus": 12, "trial": 5, "rt": 1331}, "4": {"stimulus": 30, "trial": 4, "rt": 1365}, "7": {"stimulus": 14, "trial": 7, "rt": 1372}, "6": {"stimulus": 32, "trial": 6, "rt": 1654}, "9": {"stimulus": 12, "trial": 9, "rt": 1403}, "8": {"stimulus": 14, "trial": 8, "rt": 1511}}, "generation": {"1": {"category": "Beta", "trial": 1, "stimulus": 1, "rt": 4045}, "0": {"category": "Beta", "trial": 0, "stimulus": 65, "rt": 5068}, "3": {"category": "Beta", "trial": 3, "stimulus": 10, "rt": 2295}, "2": {"category": "Beta", "trial": 2, "stimulus": 69, "rt": 1896}, "5": {"category": "Beta", "trial": 5, "stimulus": 15, "rt": 4213}, "4": {"category": "Beta", "trial": 4, "stimulus": 60, "rt": 2861}, "7": {"category": "Beta", "trial": 7, "stimulus": 50, "rt": 2210}, "6": {"category": "Beta", "trial": 6, "stimulus": 6, "rt": 4271}}, "generalization": {"56": {"stimulus": 38, "trial": 56, "rt": 144, "response": "Beta"}, "77": {"stimulus": 56, "trial": 77, "rt": 234, "response": "Beta"}, "54": {"stimulus": 71, "trial": 54, "rt": 303, "response": "Beta"}, "42": {"stimulus": 28, "trial": 42, "rt": 199, "response": "Beta"}, "48": {"stimulus": 44, "trial": 48, "rt": 232, "response": "Beta"}, "43": {"stimulus": 1, "trial": 43, "rt": 233, "response": "Beta"}, "60": {"stimulus": 76, "trial": 60, "rt": 358, "response": "Beta"}, "61": {"stimulus": 73, "trial": 61, "rt": 224, "response": "Beta"}, "62": {"stimulus": 25, "trial": 62, "rt": 248, "response": "Beta"}, "63": {"stimulus": 5, "trial": 63, "rt": 233, "response": "Beta"}, "64": {"stimulus": 70, "trial": 64, "rt": 232, "response": "Beta"}, "49": {"stimulus": 17, "trial": 49, "rt": 313, "response": "Beta"}, "66": {"stimulus": 67, "trial": 66, "rt": 185, "response": "Beta"}, "67": {"stimulus": 54, "trial": 67, "rt": 209, "response": "Beta"}, "68": {"stimulus": 72, "trial": 68, "rt": 183, "response": "Beta"}, "69": {"stimulus": 39, "trial": 69, "rt": 265, "response": "Beta"}, "80": {"stimulus": 10, "trial": 80, "rt": 344, "response": "Beta"}, "52": {"stimulus": 27, "trial": 52, "rt": 281, "response": "Beta"}, "53": {"stimulus": 37, "trial": 53, "rt": 578, "response": "Beta"}, "24": {"stimulus": 23, "trial": 24, "rt": 308, "response": "Beta"}, "25": {"stimulus": 61, "trial": 25, "rt": 254, "response": "Beta"}, "26": {"stimulus": 74, "trial": 26, "rt": 240, "response": "Beta"}, "27": {"stimulus": 65, "trial": 27, "rt": 305, "response": "Beta"}, "20": {"stimulus": 78, "trial": 20, "rt": 267, "response": "Beta"}, "21": {"stimulus": 19, "trial": 21, "rt": 341, "response": "Beta"}, "22": {"stimulus": 63, "trial": 22, "rt": 379, "response": "Beta"}, "23": {"stimulus": 49, "trial": 23, "rt": 383, "response": "Beta"}, "46": {"stimulus": 75, "trial": 46, "rt": 238, "response": "Beta"}, "47": {"stimulus": 22, "trial": 47, "rt": 241, "response": "Beta"}, "44": {"stimulus": 35, "trial": 44, "rt": 352, "response": "Beta"}, "45": {"stimulus": 42, "trial": 45, "rt": 273, "response": "Beta"}, "28": {"stimulus": 29, "trial": 28, "rt": 246, "response": "Beta"}, "29": {"stimulus": 15, "trial": 29, "rt": 262, "response": "Beta"}, "40": {"stimulus": 12, "trial": 40, "rt": 262, "response": "Beta"}, "41": {"stimulus": 43, "trial": 41, "rt": 248, "response": "Beta"}, "1": {"stimulus": 46, "trial": 1, "rt": 343, "response": "Beta"}, "0": {"stimulus": 79, "trial": 0, "rt": 1075, "response": "Beta"}, "3": {"stimulus": 9, "trial": 3, "rt": 329, "response": "Beta"}, "2": {"stimulus": 14, "trial": 2, "rt": 311, "response": "Beta"}, "5": {"stimulus": 62, "trial": 5, "rt": 402, "response": "Beta"}, "4": {"stimulus": 26, "trial": 4, "rt": 286, "response": "Beta"}, "7": {"stimulus": 18, "trial": 7, "rt": 253, "response": "Beta"}, "6": {"stimulus": 50, "trial": 6, "rt": 263, "response": "Beta"}, "9": {"stimulus": 80, "trial": 9, "rt": 208, "response": "Beta"}, "8": {"stimulus": 31, "trial": 8, "rt": 282, "response": "Beta"}, "78": {"stimulus": 53, "trial": 78, "rt": 239, "response": "Beta"}, "51": {"stimulus": 40, "trial": 51, "rt": 387, "response": "Beta"}, "39": {"stimulus": 60, "trial": 39, "rt": 218, "response": "Beta"}, "65": {"stimulus": 68, "trial": 65, "rt": 201, "response": "Beta"}, "76": {"stimulus": 0, "trial": 76, "rt": 415, "response": "Beta"}, "75": {"stimulus": 11, "trial": 75, "rt": 279, "response": "Beta"}, "38": {"stimulus": 64, "trial": 38, "rt": 338, "response": "Beta"}, "73": {"stimulus": 48, "trial": 73, "rt": 198, "response": "Beta"}, "72": {"stimulus": 41, "trial": 72, "rt": 177, "response": "Beta"}, "71": {"stimulus": 77, "trial": 71, "rt": 161, "response": "Beta"}, "70": {"stimulus": 20, "trial": 70, "rt": 275, "response": "Beta"}, "59": {"stimulus": 36, "trial": 59, "rt": 158, "response": "Beta"}, "79": {"stimulus": 13, "trial": 79, "rt": 310, "response": "Beta"}, "58": {"stimulus": 24, "trial": 58, "rt": 264, "response": "Beta"}, "11": {"stimulus": 45, "trial": 11, "rt": 319, "response": "Beta"}, "10": {"stimulus": 2, "trial": 10, "rt": 247, "response": "Beta"}, "13": {"stimulus": 55, "trial": 13, "rt": 227, "response": "Beta"}, "12": {"stimulus": 58, "trial": 12, "rt": 234, "response": "Beta"}, "15": {"stimulus": 69, "trial": 15, "rt": 252, "response": "Beta"}, "14": {"stimulus": 21, "trial": 14, "rt": 267, "response": "Beta"}, "17": {"stimulus": 7, "trial": 17, "rt": 320, "response": "Beta"}, "16": {"stimulus": 51, "trial": 16, "rt": 205, "response": "Beta"}, "19": {"stimulus": 47, "trial": 19, "rt": 276, "response": "Beta"}, "18": {"stimulus": 3, "trial": 18, "rt": 218, "response": "Beta"}, "31": {"stimulus": 33, "trial": 31, "rt": 280, "response": "Beta"}, "30": {"stimulus": 52, "trial": 30, "rt": 248, "response": "Beta"}, "37": {"stimulus": 8, "trial": 37, "rt": 354, "response": "Beta"}, "36": {"stimulus": 4, "trial": 36, "rt": 353, "response": "Beta"}, "35": {"stimulus": 34, "trial": 35, "rt": 243, "response": "Beta"}, "34": {"stimulus": 6, "trial": 34, "rt": 286, "response": "Beta"}, "33": {"stimulus": 30, "trial": 33, "rt": 306, "response": "Beta"}, "55": {"stimulus": 57, "trial": 55, "rt": 250, "response": "Beta"}, "74": {"stimulus": 32, "trial": 74, "rt": 542, "response": "Beta"}, "32": {"stimulus": 16, "trial": 32, "rt": 367, "response": "Beta"}, "57": {"stimulus": 59, "trial": 57, "rt": 250, "response": "Beta"}, "50": {"stimulus": 66, "trial": 50, "rt": 378, "response": "Beta"}}, "experiment": {"Paradigm": "TACL", "Stimuli": "Size-Color Squares", "Experiment": "Generating-Multiple-Categories"}, "submit": {"timeTotal": 173734, "age": "23", "comments": "23", "sex": "123"}}