{"info": {"finish": 1535375374552, "participant": 120, "exposed": true, "lab": false, "start": 1535375023276, "counterbalance": 3, "gentype": 2, "condition": "Middle", "browser": {"platform": "Win32", "userAgent": "Mozilla/5.0 (Windows NT 10.0; Win64; x64) AppleWebKit/537.36 (KHTML, like Gecko) Chrome/68.0.3440.106 Safari/537.36"}}, "observation": {"11": {"stimulus": 32, "trial": 11, "rt": 1526}, "10": {"stimulus": 50, "trial": 10, "rt": 1406}, "1": {"stimulus": 48, "trial": 1, "rt": 3673}, "0": {"stimulus": 32, "trial": 0, "rt": 2882}, "3": {"stimulus": 50, "trial": 3, "rt": 1698}, "2": {"stimulus": 30, "trial": 2, "rt": 2069}, "5": {"stimulus": 50, "trial": 5, "rt": 1770}, "4": {"stimulus": 32, "trial": 4, "rt": 1708}, "7": {"stimulus": 30, "trial": 7, "rt": 1551}, "6": {"stimulus": 48, "trial": 6, "rt": 1556}, "9": {"stimulus": 30, "trial": 9, "rt": 1488}, "8": {"stimulus": 48, "trial": 8, "rt": 1531}}, "generation": {"1": {"category": "Beta", "trial": 1, "stimulus": 80, "rt": 11791}, "0": {"category": "Beta", "trial": 0, "stimulus": 78, "rt": 24186}, "3": {"category": "Beta", "trial": 3, "stimulus": 77, "rt": 10335}, "2": {"category": "Beta", "trial": 2, "stimulus": 79, "rt": 5511}, "5": {"category": "Gamma", "trial": 5, "stimulus": 1, "rt": 6142}, "4": {"category": "Gamma", "trial": 4, "stimulus": 0, "rt": 8253}, "7": {"category": "Gamma", "trial": 7, "stimulus": 3, "rt": 8848}, "6": {"category": "Gamma", "trial": 6, "stimulus": 2, "rt": 6706}}, "generalization": {"56": {"stimulus": 31, "trial": 56, "rt": 544, "response": "Alpha"}, "77": {"stimulus": 62, "trial": 77, "rt": 1487, "response": "Gamma"}, "54": {"stimulus": 41, "trial": 54, "rt": 775, "response": "Alpha"}, "42": {"stimulus": 10, "trial": 42, "rt": 743, "response": "Alpha"}, "48": {"stimulus": 28, "trial": 48, "rt": 843, "response": "Alpha"}, "43": {"stimulus": 36, "trial": 43, "rt": 526, "response": "Alpha"}, "60": {"stimulus": 40, "trial": 60, "rt": 573, "response": "Alpha"}, "61": {"stimulus": 77, "trial": 61, "rt": 603, "response": "Alpha"}, "62": {"stimulus": 5, "trial": 62, "rt": 805, "response": "Alpha"}, "63": {"stimulus": 19, "trial": 63, "rt": 692, "response": "Alpha"}, "64": {"stimulus": 70, "trial": 64, "rt": 1216, "response": "Beta"}, "49": {"stimulus": 61, "trial": 49, "rt": 3061, "response": "Beta"}, "66": {"stimulus": 63, "trial": 66, "rt": 908, "response": "Alpha"}, "67": {"stimulus": 9, "trial": 67, "rt": 994, "response": "Alpha"}, "68": {"stimulus": 66, "trial": 68, "rt": 1003, "response": "Alpha"}, "69": {"stimulus": 56, "trial": 69, "rt": 562, "response": "Alpha"}, "80": {"stimulus": 32, "trial": 80, "rt": 1035, "response": "Beta"}, "52": {"stimulus": 78, "trial": 52, "rt": 974, "response": "Alpha"}, "53": {"stimulus": 4, "trial": 53, "rt": 854, "response": "Alpha"}, "24": {"stimulus": 6, "trial": 24, "rt": 1818, "response": "Alpha"}, "25": {"stimulus": 67, "trial": 25, "rt": 754, "response": "Alpha"}, "26": {"stimulus": 72, "trial": 26, "rt": 685, "response": "Alpha"}, "27": {"stimulus": 7, "trial": 27, "rt": 1107, "response": "Beta"}, "20": {"stimulus": 73, "trial": 20, "rt": 744, "response": "Alpha"}, "21": {"stimulus": 69, "trial": 21, "rt": 1376, "response": "Alpha"}, "22": {"stimulus": 50, "trial": 22, "rt": 1035, "response": "Alpha"}, "23": {"stimulus": 3, "trial": 23, "rt": 712, "response": "Alpha"}, "46": {"stimulus": 23, "trial": 46, "rt": 724, "response": "Alpha"}, "47": {"stimulus": 53, "trial": 47, "rt": 1368, "response": "Beta"}, "44": {"stimulus": 45, "trial": 44, "rt": 593, "response": "Alpha"}, "45": {"stimulus": 59, "trial": 45, "rt": 451, "response": "Alpha"}, "28": {"stimulus": 16, "trial": 28, "rt": 988, "response": "Beta"}, "29": {"stimulus": 51, "trial": 29, "rt": 810, "response": "Beta"}, "40": {"stimulus": 11, "trial": 40, "rt": 547, "response": "Alpha"}, "41": {"stimulus": 30, "trial": 41, "rt": 618, "response": "Alpha"}, "1": {"stimulus": 8, "trial": 1, "rt": 4206, "response": "Beta"}, "0": {"stimulus": 29, "trial": 0, "rt": 3081, "response": "Alpha"}, "3": {"stimulus": 65, "trial": 3, "rt": 3533, "response": "Gamma"}, "2": {"stimulus": 27, "trial": 2, "rt": 1495, "response": "Alpha"}, "5": {"stimulus": 33, "trial": 5, "rt": 1336, "response": "Alpha"}, "4": {"stimulus": 80, "trial": 4, "rt": 1868, "response": "Beta"}, "7": {"stimulus": 12, "trial": 7, "rt": 1143, "response": "Alpha"}, "6": {"stimulus": 35, "trial": 6, "rt": 1406, "response": "Beta"}, "9": {"stimulus": 38, "trial": 9, "rt": 1107, "response": "Alpha"}, "8": {"stimulus": 79, "trial": 8, "rt": 955, "response": "Beta"}, "78": {"stimulus": 21, "trial": 78, "rt": 463, "response": "Alpha"}, "51": {"stimulus": 55, "trial": 51, "rt": 652, "response": "Alpha"}, "39": {"stimulus": 54, "trial": 39, "rt": 534, "response": "Alpha"}, "65": {"stimulus": 17, "trial": 65, "rt": 1687, "response": "Gamma"}, "76": {"stimulus": 0, "trial": 76, "rt": 692, "response": "Alpha"}, "75": {"stimulus": 49, "trial": 75, "rt": 443, "response": "Alpha"}, "38": {"stimulus": 42, "trial": 38, "rt": 1285, "response": "Beta"}, "73": {"stimulus": 64, "trial": 73, "rt": 492, "response": "Alpha"}, "72": {"stimulus": 48, "trial": 72, "rt": 553, "response": "Alpha"}, "71": {"stimulus": 1, "trial": 71, "rt": 675, "response": "Alpha"}, "70": {"stimulus": 34, "trial": 70, "rt": 1104, "response": "Beta"}, "59": {"stimulus": 60, "trial": 59, "rt": 515, "response": "Alpha"}, "79": {"stimulus": 46, "trial": 79, "rt": 764, "response": "Alpha"}, "58": {"stimulus": 76, "trial": 58, "rt": 594, "response": "Alpha"}, "11": {"stimulus": 22, "trial": 11, "rt": 1553, "response": "Alpha"}, "10": {"stimulus": 37, "trial": 10, "rt": 2378, "response": "Alpha"}, "13": {"stimulus": 2, "trial": 13, "rt": 802, "response": "Alpha"}, "12": {"stimulus": 24, "trial": 12, "rt": 1270, "response": "Alpha"}, "15": {"stimulus": 71, "trial": 15, "rt": 1354, "response": "Beta"}, "14": {"stimulus": 26, "trial": 14, "rt": 1606, "response": "Beta"}, "17": {"stimulus": 44, "trial": 17, "rt": 1496, "response": "Beta"}, "16": {"stimulus": 68, "trial": 16, "rt": 1136, "response": "Alpha"}, "19": {"stimulus": 47, "trial": 19, "rt": 583, "response": "Alpha"}, "18": {"stimulus": 39, "trial": 18, "rt": 944, "response": "Alpha"}, "31": {"stimulus": 57, "trial": 31, "rt": 1067, "response": "Alpha"}, "30": {"stimulus": 25, "trial": 30, "rt": 805, "response": "Beta"}, "37": {"stimulus": 74, "trial": 37, "rt": 904, "response": "Alpha"}, "36": {"stimulus": 18, "trial": 36, "rt": 662, "response": "Alpha"}, "35": {"stimulus": 43, "trial": 35, "rt": 654, "response": "Alpha"}, "34": {"stimulus": 15, "trial": 34, "rt": 1296, "response": "Beta"}, "33": {"stimulus": 20, "trial": 33, "rt": 652, "response": "Alpha"}, "55": {"stimulus": 13, "trial": 55, "rt": 575, "response": "Alpha"}, "74": {"stimulus": 52, "trial": 74, "rt": 1246, "response": "Beta"}, "32": {"stimulus": 75, "trial": 32, "rt": 544, "response": "Alpha"}, "57": {"stimulus": 14, "trial": 57, "rt": 612, "response": "Alpha"}, "50": {"stimulus": 58, "trial": 50, "rt": 694, "response": "Alpha"}}, "experiment": {"Paradigm": "TACL", "Stimuli": "Size-Color Squares", "Experiment": "Generating-Multiple-Categories"}, "submit": {"timeTotal": 351645, "age": "44", "comments": "", "sex": "male"}}