{"info": {"finish": 1535375488627, "participant": 121, "exposed": true, "lab": false, "start": 1535375184374, "counterbalance": 3, "gentype": 1, "condition": "Bottom", "browser": {"platform": "Win32", "userAgent": "Mozilla/5.0 (Windows NT 10.0; Win64; x64) AppleWebKit/537.36 (KHTML, like Gecko) Chrome/70.0.3532.0 Safari/537.36"}}, "observation": {"11": {"stimulus": 12, "trial": 11, "rt": 1646}, "10": {"stimulus": 14, "trial": 10, "rt": 1771}, "1": {"stimulus": 12, "trial": 1, "rt": 2304}, "0": {"stimulus": 14, "trial": 0, "rt": 2496}, "3": {"stimulus": 30, "trial": 3, "rt": 1768}, "2": {"stimulus": 32, "trial": 2, "rt": 2832}, "5": {"stimulus": 12, "trial": 5, "rt": 1602}, "4": {"stimulus": 30, "trial": 4, "rt": 1750}, "7": {"stimulus": 14, "trial": 7, "rt": 1218}, "6": {"stimulus": 32, "trial": 6, "rt": 1409}, "9": {"stimulus": 30, "trial": 9, "rt": 1478}, "8": {"stimulus": 32, "trial": 8, "rt": 1416}}, "generation": {"1": {"category": "Beta", "trial": 1, "stimulus": 77, "rt": 5743}, "0": {"category": "Beta", "trial": 0, "stimulus": 75, "rt": 11129}, "3": {"category": "Beta", "trial": 3, "stimulus": 73, "rt": 4871}, "2": {"category": "Beta", "trial": 2, "stimulus": 63, "rt": 7862}, "5": {"category": "Beta", "trial": 5, "stimulus": 59, "rt": 5498}, "4": {"category": "Beta", "trial": 4, "stimulus": 62, "rt": 6789}, "7": {"category": "Beta", "trial": 7, "stimulus": 65, "rt": 4845}, "6": {"category": "Beta", "trial": 6, "stimulus": 64, "rt": 5469}}, "generalization": {"56": {"stimulus": 38, "trial": 56, "rt": 845, "response": "Alpha"}, "77": {"stimulus": 33, "trial": 77, "rt": 1103, "response": "Alpha"}, "54": {"stimulus": 6, "trial": 54, "rt": 592, "response": "Alpha"}, "42": {"stimulus": 8, "trial": 42, "rt": 846, "response": "Alpha"}, "48": {"stimulus": 80, "trial": 48, "rt": 655, "response": "Beta"}, "43": {"stimulus": 0, "trial": 43, "rt": 570, "response": "Alpha"}, "60": {"stimulus": 36, "trial": 60, "rt": 991, "response": "Alpha"}, "61": {"stimulus": 57, "trial": 61, "rt": 681, "response": "Beta"}, "62": {"stimulus": 39, "trial": 62, "rt": 955, "response": "Alpha"}, "63": {"stimulus": 46, "trial": 63, "rt": 905, "response": "Beta"}, "64": {"stimulus": 32, "trial": 64, "rt": 1015, "response": "Alpha"}, "49": {"stimulus": 66, "trial": 49, "rt": 549, "response": "Beta"}, "66": {"stimulus": 40, "trial": 66, "rt": 577, "response": "Alpha"}, "67": {"stimulus": 79, "trial": 67, "rt": 878, "response": "Beta"}, "68": {"stimulus": 4, "trial": 68, "rt": 771, "response": "Alpha"}, "69": {"stimulus": 29, "trial": 69, "rt": 580, "response": "Alpha"}, "80": {"stimulus": 16, "trial": 80, "rt": 768, "response": "Alpha"}, "52": {"stimulus": 47, "trial": 52, "rt": 672, "response": "Beta"}, "53": {"stimulus": 27, "trial": 53, "rt": 13795, "response": "Alpha"}, "24": {"stimulus": 10, "trial": 24, "rt": 11092, "response": "Alpha"}, "25": {"stimulus": 34, "trial": 25, "rt": 586, "response": "Alpha"}, "26": {"stimulus": 62, "trial": 26, "rt": 1039, "response": "Beta"}, "27": {"stimulus": 71, "trial": 27, "rt": 547, "response": "Beta"}, "20": {"stimulus": 26, "trial": 20, "rt": 735, "response": "Alpha"}, "21": {"stimulus": 54, "trial": 21, "rt": 1615, "response": "Beta"}, "22": {"stimulus": 58, "trial": 22, "rt": 641, "response": "Beta"}, "23": {"stimulus": 37, "trial": 23, "rt": 1355, "response": "Beta"}, "46": {"stimulus": 75, "trial": 46, "rt": 996, "response": "Beta"}, "47": {"stimulus": 55, "trial": 47, "rt": 876, "response": "Beta"}, "44": {"stimulus": 51, "trial": 44, "rt": 1121, "response": "Beta"}, "45": {"stimulus": 15, "trial": 45, "rt": 1271, "response": "Alpha"}, "28": {"stimulus": 60, "trial": 28, "rt": 731, "response": "Beta"}, "29": {"stimulus": 45, "trial": 29, "rt": 1008, "response": "Beta"}, "40": {"stimulus": 63, "trial": 40, "rt": 439, "response": "Beta"}, "41": {"stimulus": 56, "trial": 41, "rt": 454, "response": "Beta"}, "1": {"stimulus": 35, "trial": 1, "rt": 1529, "response": "Alpha"}, "0": {"stimulus": 28, "trial": 0, "rt": 1410, "response": "Alpha"}, "3": {"stimulus": 61, "trial": 3, "rt": 1136, "response": "Beta"}, "2": {"stimulus": 17, "trial": 2, "rt": 1130, "response": "Alpha"}, "5": {"stimulus": 14, "trial": 5, "rt": 830, "response": "Alpha"}, "4": {"stimulus": 65, "trial": 4, "rt": 726, "response": "Beta"}, "7": {"stimulus": 24, "trial": 7, "rt": 933, "response": "Alpha"}, "6": {"stimulus": 9, "trial": 6, "rt": 583, "response": "Alpha"}, "9": {"stimulus": 3, "trial": 9, "rt": 1165, "response": "Alpha"}, "8": {"stimulus": 43, "trial": 8, "rt": 807, "response": "Alpha"}, "78": {"stimulus": 42, "trial": 78, "rt": 737, "response": "Alpha"}, "51": {"stimulus": 50, "trial": 51, "rt": 613, "response": "Beta"}, "39": {"stimulus": 67, "trial": 39, "rt": 899, "response": "Beta"}, "65": {"stimulus": 21, "trial": 65, "rt": 3230, "response": "Alpha"}, "76": {"stimulus": 23, "trial": 76, "rt": 1736, "response": "Alpha"}, "75": {"stimulus": 73, "trial": 75, "rt": 623, "response": "Beta"}, "38": {"stimulus": 52, "trial": 38, "rt": 765, "response": "Alpha"}, "73": {"stimulus": 74, "trial": 73, "rt": 555, "response": "Beta"}, "72": {"stimulus": 59, "trial": 72, "rt": 1028, "response": "Beta"}, "71": {"stimulus": 13, "trial": 71, "rt": 2653, "response": "Alpha"}, "70": {"stimulus": 64, "trial": 70, "rt": 1016, "response": "Beta"}, "59": {"stimulus": 44, "trial": 59, "rt": 580, "response": "Alpha"}, "79": {"stimulus": 69, "trial": 79, "rt": 1609, "response": "Beta"}, "58": {"stimulus": 11, "trial": 58, "rt": 484, "response": "Alpha"}, "11": {"stimulus": 41, "trial": 11, "rt": 1597, "response": "Alpha"}, "10": {"stimulus": 76, "trial": 10, "rt": 909, "response": "Beta"}, "13": {"stimulus": 22, "trial": 13, "rt": 599, "response": "Alpha"}, "12": {"stimulus": 25, "trial": 12, "rt": 907, "response": "Alpha"}, "15": {"stimulus": 53, "trial": 15, "rt": 1026, "response": "Beta"}, "14": {"stimulus": 1, "trial": 14, "rt": 837, "response": "Alpha"}, "17": {"stimulus": 7, "trial": 17, "rt": 868, "response": "Alpha"}, "16": {"stimulus": 78, "trial": 16, "rt": 568, "response": "Beta"}, "19": {"stimulus": 20, "trial": 19, "rt": 1059, "response": "Alpha"}, "18": {"stimulus": 2, "trial": 18, "rt": 531, "response": "Alpha"}, "31": {"stimulus": 68, "trial": 31, "rt": 464, "response": "Beta"}, "30": {"stimulus": 72, "trial": 30, "rt": 575, "response": "Beta"}, "37": {"stimulus": 5, "trial": 37, "rt": 573, "response": "Alpha"}, "36": {"stimulus": 18, "trial": 36, "rt": 552, "response": "Alpha"}, "35": {"stimulus": 31, "trial": 35, "rt": 720, "response": "Alpha"}, "34": {"stimulus": 19, "trial": 34, "rt": 763, "response": "Alpha"}, "33": {"stimulus": 70, "trial": 33, "rt": 786, "response": "Beta"}, "55": {"stimulus": 77, "trial": 55, "rt": 980, "response": "Beta"}, "74": {"stimulus": 48, "trial": 74, "rt": 659, "response": "Beta"}, "32": {"stimulus": 30, "trial": 32, "rt": 777, "response": "Alpha"}, "57": {"stimulus": 12, "trial": 57, "rt": 544, "response": "Alpha"}, "50": {"stimulus": 49, "trial": 50, "rt": 1759, "response": "Beta"}}, "experiment": {"Paradigm": "TACL", "Stimuli": "Size-Color Squares", "Experiment": "Generating-Multiple-Categories"}, "submit": {"timeTotal": 304492, "age": "46", "comments": "", "sex": "male"}}