{"info": {"finish": 1535376148779, "participant": 123, "exposed": true, "lab": false, "start": 1535375375246, "counterbalance": 0, "gentype": 0, "condition": "Bottom", "browser": {"platform": "Win32", "userAgent": "Mozilla/5.0 (Windows NT 6.1; Win64; x64) AppleWebKit/537.36 (KHTML, like Gecko) Chrome/68.0.3440.106 Safari/537.36"}}, "observation": {"11": {"stimulus": 30, "trial": 11, "rt": 1600}, "10": {"stimulus": 12, "trial": 10, "rt": 1751}, "1": {"stimulus": 30, "trial": 1, "rt": 3191}, "0": {"stimulus": 32, "trial": 0, "rt": 6768}, "3": {"stimulus": 14, "trial": 3, "rt": 9030}, "2": {"stimulus": 12, "trial": 2, "rt": 8400}, "5": {"stimulus": 30, "trial": 5, "rt": 2063}, "4": {"stimulus": 14, "trial": 4, "rt": 12239}, "7": {"stimulus": 12, "trial": 7, "rt": 15389}, "6": {"stimulus": 32, "trial": 6, "rt": 96592}, "9": {"stimulus": 14, "trial": 9, "rt": 1511}, "8": {"stimulus": 32, "trial": 8, "rt": 1974}}, "generation": {"1": {"category": "Not-Alpha", "trial": 1, "stimulus": 51, "rt": 9821}, "0": {"category": "Not-Alpha", "trial": 0, "stimulus": 52, "rt": 11734}, "3": {"category": "Not-Alpha", "trial": 3, "stimulus": 25, "rt": 10621}, "2": {"category": "Not-Alpha", "trial": 2, "stimulus": 34, "rt": 42814}, "5": {"category": "Not-Alpha", "trial": 5, "stimulus": 31, "rt": 13995}, "4": {"category": "Not-Alpha", "trial": 4, "stimulus": 79, "rt": 6023}, "7": {"category": "Not-Alpha", "trial": 7, "stimulus": 33, "rt": 4823}, "6": {"category": "Not-Alpha", "trial": 6, "stimulus": 53, "rt": 2591}}, "generalization": {"56": {"stimulus": 50, "trial": 56, "rt": 14200, "response": "Beta"}, "77": {"stimulus": 72, "trial": 77, "rt": 847, "response": "Beta"}, "54": {"stimulus": 53, "trial": 54, "rt": 1111, "response": "Beta"}, "42": {"stimulus": 7, "trial": 42, "rt": 751, "response": "Beta"}, "48": {"stimulus": 1, "trial": 48, "rt": 5754, "response": "Beta"}, "43": {"stimulus": 18, "trial": 43, "rt": 1528, "response": "Alpha"}, "60": {"stimulus": 28, "trial": 60, "rt": 63118, "response": "Alpha"}, "61": {"stimulus": 76, "trial": 61, "rt": 10430, "response": "Alpha"}, "62": {"stimulus": 26, "trial": 62, "rt": 1215, "response": "Alpha"}, "63": {"stimulus": 24, "trial": 63, "rt": 927, "response": "Alpha"}, "64": {"stimulus": 47, "trial": 64, "rt": 647, "response": "Alpha"}, "49": {"stimulus": 70, "trial": 49, "rt": 1423, "response": "Beta"}, "66": {"stimulus": 51, "trial": 66, "rt": 2983, "response": "Alpha"}, "67": {"stimulus": 2, "trial": 67, "rt": 3958, "response": "Beta"}, "68": {"stimulus": 37, "trial": 68, "rt": 1807, "response": "Beta"}, "69": {"stimulus": 19, "trial": 69, "rt": 1224, "response": "Alpha"}, "80": {"stimulus": 25, "trial": 80, "rt": 1055, "response": "Beta"}, "52": {"stimulus": 80, "trial": 52, "rt": 1167, "response": "Alpha"}, "53": {"stimulus": 60, "trial": 53, "rt": 768, "response": "Alpha"}, "24": {"stimulus": 64, "trial": 24, "rt": 991, "response": "Beta"}, "25": {"stimulus": 30, "trial": 25, "rt": 1175, "response": "Alpha"}, "26": {"stimulus": 77, "trial": 26, "rt": 1239, "response": "Beta"}, "27": {"stimulus": 49, "trial": 27, "rt": 1400, "response": "Alpha"}, "20": {"stimulus": 44, "trial": 20, "rt": 1159, "response": "Alpha"}, "21": {"stimulus": 15, "trial": 21, "rt": 888, "response": "Alpha"}, "22": {"stimulus": 71, "trial": 22, "rt": 912, "response": "Beta"}, "23": {"stimulus": 59, "trial": 23, "rt": 4807, "response": "Beta"}, "46": {"stimulus": 58, "trial": 46, "rt": 2688, "response": "Alpha"}, "47": {"stimulus": 57, "trial": 47, "rt": 1753, "response": "Alpha"}, "44": {"stimulus": 21, "trial": 44, "rt": 1928, "response": "Beta"}, "45": {"stimulus": 68, "trial": 45, "rt": 1135, "response": "Beta"}, "28": {"stimulus": 39, "trial": 28, "rt": 838, "response": "Alpha"}, "29": {"stimulus": 8, "trial": 29, "rt": 2999, "response": "Alpha"}, "40": {"stimulus": 3, "trial": 40, "rt": 3839, "response": "Beta"}, "41": {"stimulus": 6, "trial": 41, "rt": 951, "response": "Beta"}, "1": {"stimulus": 35, "trial": 1, "rt": 1296, "response": "Alpha"}, "0": {"stimulus": 67, "trial": 0, "rt": 7870, "response": "Beta"}, "3": {"stimulus": 20, "trial": 3, "rt": 1200, "response": "Alpha"}, "2": {"stimulus": 32, "trial": 2, "rt": 1992, "response": "Alpha"}, "5": {"stimulus": 11, "trial": 5, "rt": 1512, "response": "Alpha"}, "4": {"stimulus": 63, "trial": 4, "rt": 1415, "response": "Beta"}, "7": {"stimulus": 23, "trial": 7, "rt": 1424, "response": "Alpha"}, "6": {"stimulus": 38, "trial": 6, "rt": 2685, "response": "Beta"}, "9": {"stimulus": 43, "trial": 9, "rt": 8911, "response": "Beta"}, "8": {"stimulus": 52, "trial": 8, "rt": 1735, "response": "Beta"}, "78": {"stimulus": 55, "trial": 78, "rt": 823, "response": "Alpha"}, "51": {"stimulus": 69, "trial": 51, "rt": 1053, "response": "Beta"}, "39": {"stimulus": 14, "trial": 39, "rt": 1271, "response": "Beta"}, "65": {"stimulus": 54, "trial": 65, "rt": 448, "response": "Beta"}, "76": {"stimulus": 48, "trial": 76, "rt": 1063, "response": "Beta"}, "75": {"stimulus": 17, "trial": 75, "rt": 1423, "response": "Alpha"}, "38": {"stimulus": 22, "trial": 38, "rt": 1112, "response": "Alpha"}, "73": {"stimulus": 75, "trial": 73, "rt": 1064, "response": "Alpha"}, "72": {"stimulus": 0, "trial": 72, "rt": 1766, "response": "Beta"}, "71": {"stimulus": 13, "trial": 71, "rt": 1903, "response": "Beta"}, "70": {"stimulus": 65, "trial": 70, "rt": 751, "response": "Beta"}, "59": {"stimulus": 4, "trial": 59, "rt": 3678, "response": "Alpha"}, "79": {"stimulus": 5, "trial": 79, "rt": 2583, "response": "Beta"}, "58": {"stimulus": 12, "trial": 58, "rt": 7031, "response": "Beta"}, "11": {"stimulus": 46, "trial": 11, "rt": 1904, "response": "Beta"}, "10": {"stimulus": 73, "trial": 10, "rt": 1327, "response": "Alpha"}, "13": {"stimulus": 34, "trial": 13, "rt": 3111, "response": "Alpha"}, "12": {"stimulus": 62, "trial": 12, "rt": 1430, "response": "Beta"}, "15": {"stimulus": 16, "trial": 15, "rt": 1743, "response": "Alpha"}, "14": {"stimulus": 10, "trial": 14, "rt": 1351, "response": "Alpha"}, "17": {"stimulus": 31, "trial": 17, "rt": 2710, "response": "Alpha"}, "16": {"stimulus": 33, "trial": 16, "rt": 1528, "response": "Alpha"}, "19": {"stimulus": 79, "trial": 19, "rt": 670, "response": "Beta"}, "18": {"stimulus": 78, "trial": 18, "rt": 3527, "response": "Beta"}, "31": {"stimulus": 42, "trial": 31, "rt": 1399, "response": "Beta"}, "30": {"stimulus": 45, "trial": 30, "rt": 1071, "response": "Beta"}, "37": {"stimulus": 61, "trial": 37, "rt": 1503, "response": "Beta"}, "36": {"stimulus": 56, "trial": 36, "rt": 2480, "response": "Beta"}, "35": {"stimulus": 36, "trial": 35, "rt": 1367, "response": "Alpha"}, "34": {"stimulus": 66, "trial": 34, "rt": 1152, "response": "Beta"}, "33": {"stimulus": 27, "trial": 33, "rt": 1422, "response": "Alpha"}, "55": {"stimulus": 40, "trial": 55, "rt": 36965, "response": "Beta"}, "74": {"stimulus": 9, "trial": 74, "rt": 6494, "response": "Beta"}, "32": {"stimulus": 74, "trial": 32, "rt": 991, "response": "Beta"}, "57": {"stimulus": 29, "trial": 57, "rt": 4312, "response": "Beta"}, "50": {"stimulus": 41, "trial": 50, "rt": 9927, "response": "Beta"}}, "experiment": {"Paradigm": "TACL", "Stimuli": "Size-Color Squares", "Experiment": "Generating-Multiple-Categories"}, "submit": {"timeTotal": 775654, "age": "28", "comments": "Good Study", "sex": "male"}}