{"info": {"finish": 1535375686735, "participant": 124, "exposed": true, "lab": false, "start": 1535375386028, "counterbalance": 1, "gentype": 1, "condition": "Bottom", "browser": {"platform": "Win64", "userAgent": "Mozilla/5.0 (Windows NT 10.0; Win64; x64; rv:61.0) Gecko/20100101 Firefox/61.0"}}, "observation": {"11": {"stimulus": 12, "trial": 11, "rt": 1458}, "10": {"stimulus": 30, "trial": 10, "rt": 1299}, "1": {"stimulus": 14, "trial": 1, "rt": 2614}, "0": {"stimulus": 32, "trial": 0, "rt": 3384}, "3": {"stimulus": 30, "trial": 3, "rt": 1694}, "2": {"stimulus": 12, "trial": 2, "rt": 2649}, "5": {"stimulus": 30, "trial": 5, "rt": 1794}, "4": {"stimulus": 32, "trial": 4, "rt": 1865}, "7": {"stimulus": 14, "trial": 7, "rt": 1413}, "6": {"stimulus": 12, "trial": 6, "rt": 1655}, "9": {"stimulus": 14, "trial": 9, "rt": 1367}, "8": {"stimulus": 32, "trial": 8, "rt": 1381}}, "generation": {"1": {"category": "Beta", "trial": 1, "stimulus": 78, "rt": 3902}, "0": {"category": "Beta", "trial": 0, "stimulus": 77, "rt": 9347}, "3": {"category": "Beta", "trial": 3, "stimulus": 79, "rt": 3186}, "2": {"category": "Beta", "trial": 2, "stimulus": 75, "rt": 3962}, "5": {"category": "Beta", "trial": 5, "stimulus": 80, "rt": 4437}, "4": {"category": "Beta", "trial": 4, "stimulus": 73, "rt": 10482}, "7": {"category": "Beta", "trial": 7, "stimulus": 66, "rt": 7847}, "6": {"category": "Beta", "trial": 6, "stimulus": 72, "rt": 3874}}, "generalization": {"56": {"stimulus": 73, "trial": 56, "rt": 1106, "response": "Beta"}, "77": {"stimulus": 48, "trial": 77, "rt": 1151, "response": "Alpha"}, "54": {"stimulus": 31, "trial": 54, "rt": 776, "response": "Alpha"}, "42": {"stimulus": 16, "trial": 42, "rt": 1950, "response": "Alpha"}, "48": {"stimulus": 40, "trial": 48, "rt": 1032, "response": "Beta"}, "43": {"stimulus": 65, "trial": 43, "rt": 814, "response": "Beta"}, "60": {"stimulus": 57, "trial": 60, "rt": 712, "response": "Beta"}, "61": {"stimulus": 30, "trial": 61, "rt": 1138, "response": "Alpha"}, "62": {"stimulus": 46, "trial": 62, "rt": 1364, "response": "Beta"}, "63": {"stimulus": 77, "trial": 63, "rt": 791, "response": "Beta"}, "64": {"stimulus": 13, "trial": 64, "rt": 873, "response": "Alpha"}, "49": {"stimulus": 10, "trial": 49, "rt": 800, "response": "Alpha"}, "66": {"stimulus": 12, "trial": 66, "rt": 669, "response": "Alpha"}, "67": {"stimulus": 59, "trial": 67, "rt": 779, "response": "Beta"}, "68": {"stimulus": 6, "trial": 68, "rt": 1546, "response": "Beta"}, "69": {"stimulus": 35, "trial": 69, "rt": 1303, "response": "Alpha"}, "80": {"stimulus": 17, "trial": 80, "rt": 745, "response": "Alpha"}, "52": {"stimulus": 68, "trial": 52, "rt": 1284, "response": "Beta"}, "53": {"stimulus": 56, "trial": 53, "rt": 732, "response": "Beta"}, "24": {"stimulus": 5, "trial": 24, "rt": 975, "response": "Beta"}, "25": {"stimulus": 22, "trial": 25, "rt": 1399, "response": "Alpha"}, "26": {"stimulus": 20, "trial": 26, "rt": 928, "response": "Alpha"}, "27": {"stimulus": 15, "trial": 27, "rt": 676, "response": "Alpha"}, "20": {"stimulus": 7, "trial": 20, "rt": 1129, "response": "Beta"}, "21": {"stimulus": 44, "trial": 21, "rt": 913, "response": "Alpha"}, "22": {"stimulus": 70, "trial": 22, "rt": 1027, "response": "Beta"}, "23": {"stimulus": 43, "trial": 23, "rt": 1207, "response": "Alpha"}, "46": {"stimulus": 60, "trial": 46, "rt": 853, "response": "Beta"}, "47": {"stimulus": 21, "trial": 47, "rt": 725, "response": "Alpha"}, "44": {"stimulus": 76, "trial": 44, "rt": 764, "response": "Beta"}, "45": {"stimulus": 36, "trial": 45, "rt": 1273, "response": "Alpha"}, "28": {"stimulus": 14, "trial": 28, "rt": 1015, "response": "Alpha"}, "29": {"stimulus": 72, "trial": 29, "rt": 791, "response": "Beta"}, "40": {"stimulus": 37, "trial": 40, "rt": 1964, "response": "Beta"}, "41": {"stimulus": 52, "trial": 41, "rt": 954, "response": "Beta"}, "1": {"stimulus": 55, "trial": 1, "rt": 1475, "response": "Beta"}, "0": {"stimulus": 32, "trial": 0, "rt": 2267, "response": "Alpha"}, "3": {"stimulus": 19, "trial": 3, "rt": 869, "response": "Alpha"}, "2": {"stimulus": 33, "trial": 2, "rt": 1140, "response": "Alpha"}, "5": {"stimulus": 1, "trial": 5, "rt": 3178, "response": "Beta"}, "4": {"stimulus": 27, "trial": 4, "rt": 880, "response": "Alpha"}, "7": {"stimulus": 63, "trial": 7, "rt": 1404, "response": "Beta"}, "6": {"stimulus": 51, "trial": 6, "rt": 2782, "response": "Beta"}, "9": {"stimulus": 71, "trial": 9, "rt": 1166, "response": "Beta"}, "8": {"stimulus": 49, "trial": 8, "rt": 1944, "response": "Alpha"}, "78": {"stimulus": 74, "trial": 78, "rt": 780, "response": "Beta"}, "51": {"stimulus": 50, "trial": 51, "rt": 770, "response": "Beta"}, "39": {"stimulus": 53, "trial": 39, "rt": 1080, "response": "Beta"}, "65": {"stimulus": 18, "trial": 65, "rt": 1020, "response": "Alpha"}, "76": {"stimulus": 9, "trial": 76, "rt": 641, "response": "Beta"}, "75": {"stimulus": 2, "trial": 75, "rt": 755, "response": "Beta"}, "38": {"stimulus": 26, "trial": 38, "rt": 895, "response": "Alpha"}, "73": {"stimulus": 69, "trial": 73, "rt": 690, "response": "Beta"}, "72": {"stimulus": 25, "trial": 72, "rt": 807, "response": "Alpha"}, "71": {"stimulus": 39, "trial": 71, "rt": 1219, "response": "Alpha"}, "70": {"stimulus": 54, "trial": 70, "rt": 705, "response": "Beta"}, "59": {"stimulus": 64, "trial": 59, "rt": 607, "response": "Beta"}, "79": {"stimulus": 67, "trial": 79, "rt": 508, "response": "Beta"}, "58": {"stimulus": 78, "trial": 58, "rt": 812, "response": "Beta"}, "11": {"stimulus": 34, "trial": 11, "rt": 1167, "response": "Alpha"}, "10": {"stimulus": 66, "trial": 10, "rt": 1781, "response": "Beta"}, "13": {"stimulus": 80, "trial": 13, "rt": 863, "response": "Beta"}, "12": {"stimulus": 38, "trial": 12, "rt": 991, "response": "Alpha"}, "15": {"stimulus": 23, "trial": 15, "rt": 815, "response": "Alpha"}, "14": {"stimulus": 62, "trial": 14, "rt": 1031, "response": "Beta"}, "17": {"stimulus": 61, "trial": 17, "rt": 974, "response": "Beta"}, "16": {"stimulus": 79, "trial": 16, "rt": 742, "response": "Beta"}, "19": {"stimulus": 42, "trial": 19, "rt": 914, "response": "Alpha"}, "18": {"stimulus": 41, "trial": 18, "rt": 1209, "response": "Alpha"}, "31": {"stimulus": 58, "trial": 31, "rt": 1020, "response": "Beta"}, "30": {"stimulus": 4, "trial": 30, "rt": 1362, "response": "Beta"}, "37": {"stimulus": 45, "trial": 37, "rt": 1522, "response": "Beta"}, "36": {"stimulus": 47, "trial": 36, "rt": 2375, "response": "Beta"}, "35": {"stimulus": 11, "trial": 35, "rt": 1950, "response": "Alpha"}, "34": {"stimulus": 3, "trial": 34, "rt": 1224, "response": "Beta"}, "33": {"stimulus": 29, "trial": 33, "rt": 841, "response": "Alpha"}, "55": {"stimulus": 8, "trial": 55, "rt": 1321, "response": "Beta"}, "74": {"stimulus": 0, "trial": 74, "rt": 1099, "response": "Beta"}, "32": {"stimulus": 24, "trial": 32, "rt": 689, "response": "Alpha"}, "57": {"stimulus": 75, "trial": 57, "rt": 695, "response": "Beta"}, "50": {"stimulus": 28, "trial": 50, "rt": 939, "response": "Alpha"}}, "experiment": {"Paradigm": "TACL", "Stimuli": "Size-Color Squares", "Experiment": "Generating-Multiple-Categories"}, "submit": {"timeTotal": 300879, "age": "38", "comments": "There were no technical issues. Everything worked well.", "sex": "Male"}}