{"info": {"finish": 1535376751500, "participant": 126, "exposed": true, "lab": false, "start": 1535376346886, "counterbalance": 4, "gentype": 0, "condition": "Bottom", "browser": {"platform": "Win32", "userAgent": "Mozilla/5.0 (Windows NT 10.0; Win64; x64) AppleWebKit/537.36 (KHTML, like Gecko) Chrome/68.0.3440.106 Safari/537.36"}}, "observation": {"11": {"stimulus": 30, "trial": 11, "rt": 1831}, "10": {"stimulus": 14, "trial": 10, "rt": 1887}, "1": {"stimulus": 30, "trial": 1, "rt": 1851}, "0": {"stimulus": 14, "trial": 0, "rt": 20950}, "3": {"stimulus": 32, "trial": 3, "rt": 1807}, "2": {"stimulus": 12, "trial": 2, "rt": 2614}, "5": {"stimulus": 14, "trial": 5, "rt": 1623}, "4": {"stimulus": 32, "trial": 4, "rt": 1910}, "7": {"stimulus": 12, "trial": 7, "rt": 1611}, "6": {"stimulus": 30, "trial": 6, "rt": 1628}, "9": {"stimulus": 12, "trial": 9, "rt": 2000}, "8": {"stimulus": 32, "trial": 8, "rt": 1735}}, "generation": {"1": {"category": "Not-Alpha", "trial": 1, "stimulus": 0, "rt": 9262}, "0": {"category": "Not-Alpha", "trial": 0, "stimulus": 1, "rt": 15120}, "3": {"category": "Not-Alpha", "trial": 3, "stimulus": 72, "rt": 4658}, "2": {"category": "Not-Alpha", "trial": 2, "stimulus": 73, "rt": 8431}, "5": {"category": "Not-Alpha", "trial": 5, "stimulus": 63, "rt": 3873}, "4": {"category": "Not-Alpha", "trial": 4, "stimulus": 64, "rt": 6326}, "7": {"category": "Not-Alpha", "trial": 7, "stimulus": 4, "rt": 10190}, "6": {"category": "Not-Alpha", "trial": 6, "stimulus": 17, "rt": 6817}}, "generalization": {"56": {"stimulus": 66, "trial": 56, "rt": 1330, "response": "Beta"}, "77": {"stimulus": 51, "trial": 77, "rt": 604, "response": "Alpha"}, "54": {"stimulus": 63, "trial": 54, "rt": 1554, "response": "Beta"}, "42": {"stimulus": 49, "trial": 42, "rt": 919, "response": "Alpha"}, "48": {"stimulus": 42, "trial": 48, "rt": 903, "response": "Alpha"}, "43": {"stimulus": 36, "trial": 43, "rt": 999, "response": "Alpha"}, "60": {"stimulus": 26, "trial": 60, "rt": 1158, "response": "Alpha"}, "61": {"stimulus": 2, "trial": 61, "rt": 1290, "response": "Beta"}, "62": {"stimulus": 30, "trial": 62, "rt": 1035, "response": "Alpha"}, "63": {"stimulus": 78, "trial": 63, "rt": 1078, "response": "Alpha"}, "64": {"stimulus": 14, "trial": 64, "rt": 758, "response": "Alpha"}, "49": {"stimulus": 68, "trial": 49, "rt": 983, "response": "Beta"}, "66": {"stimulus": 53, "trial": 66, "rt": 1447, "response": "Alpha"}, "67": {"stimulus": 0, "trial": 67, "rt": 1158, "response": "Beta"}, "68": {"stimulus": 50, "trial": 68, "rt": 992, "response": "Alpha"}, "69": {"stimulus": 31, "trial": 69, "rt": 1256, "response": "Alpha"}, "80": {"stimulus": 24, "trial": 80, "rt": 1066, "response": "Alpha"}, "52": {"stimulus": 65, "trial": 52, "rt": 942, "response": "Beta"}, "53": {"stimulus": 58, "trial": 53, "rt": 1070, "response": "Beta"}, "24": {"stimulus": 60, "trial": 24, "rt": 1271, "response": "Alpha"}, "25": {"stimulus": 69, "trial": 25, "rt": 903, "response": "Beta"}, "26": {"stimulus": 23, "trial": 26, "rt": 1409, "response": "Alpha"}, "27": {"stimulus": 13, "trial": 27, "rt": 2731, "response": "Beta"}, "20": {"stimulus": 76, "trial": 20, "rt": 999, "response": "Beta"}, "21": {"stimulus": 59, "trial": 21, "rt": 1190, "response": "Alpha"}, "22": {"stimulus": 80, "trial": 22, "rt": 12639, "response": "Beta"}, "23": {"stimulus": 74, "trial": 23, "rt": 692, "response": "Beta"}, "46": {"stimulus": 8, "trial": 46, "rt": 1587, "response": "Beta"}, "47": {"stimulus": 70, "trial": 47, "rt": 1747, "response": "Beta"}, "44": {"stimulus": 28, "trial": 44, "rt": 1183, "response": "Alpha"}, "45": {"stimulus": 38, "trial": 45, "rt": 1071, "response": "Alpha"}, "28": {"stimulus": 12, "trial": 28, "rt": 1246, "response": "Beta"}, "29": {"stimulus": 4, "trial": 29, "rt": 1062, "response": "Beta"}, "40": {"stimulus": 47, "trial": 40, "rt": 1783, "response": "Beta"}, "41": {"stimulus": 16, "trial": 41, "rt": 1784, "response": "Alpha"}, "1": {"stimulus": 54, "trial": 1, "rt": 1022, "response": "Beta"}, "0": {"stimulus": 61, "trial": 0, "rt": 1853, "response": "Beta"}, "3": {"stimulus": 11, "trial": 3, "rt": 1873, "response": "Beta"}, "2": {"stimulus": 40, "trial": 2, "rt": 1115, "response": "Alpha"}, "5": {"stimulus": 57, "trial": 5, "rt": 1127, "response": "Beta"}, "4": {"stimulus": 15, "trial": 4, "rt": 967, "response": "Alpha"}, "7": {"stimulus": 75, "trial": 7, "rt": 1562, "response": "Beta"}, "6": {"stimulus": 67, "trial": 6, "rt": 1515, "response": "Beta"}, "9": {"stimulus": 19, "trial": 9, "rt": 1790, "response": "Alpha"}, "8": {"stimulus": 52, "trial": 8, "rt": 910, "response": "Alpha"}, "78": {"stimulus": 21, "trial": 78, "rt": 1420, "response": "Alpha"}, "51": {"stimulus": 45, "trial": 51, "rt": 1242, "response": "Alpha"}, "39": {"stimulus": 35, "trial": 39, "rt": 1023, "response": "Alpha"}, "65": {"stimulus": 55, "trial": 65, "rt": 1211, "response": "Alpha"}, "76": {"stimulus": 34, "trial": 76, "rt": 843, "response": "Alpha"}, "75": {"stimulus": 5, "trial": 75, "rt": 2274, "response": "Alpha"}, "38": {"stimulus": 37, "trial": 38, "rt": 838, "response": "Alpha"}, "73": {"stimulus": 72, "trial": 73, "rt": 1086, "response": "Beta"}, "72": {"stimulus": 46, "trial": 72, "rt": 1395, "response": "Beta"}, "71": {"stimulus": 22, "trial": 71, "rt": 1131, "response": "Alpha"}, "70": {"stimulus": 48, "trial": 70, "rt": 1022, "response": "Alpha"}, "59": {"stimulus": 39, "trial": 59, "rt": 862, "response": "Alpha"}, "79": {"stimulus": 73, "trial": 79, "rt": 982, "response": "Beta"}, "58": {"stimulus": 25, "trial": 58, "rt": 863, "response": "Alpha"}, "11": {"stimulus": 9, "trial": 11, "rt": 986, "response": "Beta"}, "10": {"stimulus": 18, "trial": 10, "rt": 1008, "response": "Alpha"}, "13": {"stimulus": 79, "trial": 13, "rt": 1038, "response": "Beta"}, "12": {"stimulus": 1, "trial": 12, "rt": 849, "response": "Beta"}, "15": {"stimulus": 77, "trial": 15, "rt": 882, "response": "Beta"}, "14": {"stimulus": 41, "trial": 14, "rt": 926, "response": "Alpha"}, "17": {"stimulus": 10, "trial": 17, "rt": 1712, "response": "Alpha"}, "16": {"stimulus": 29, "trial": 16, "rt": 963, "response": "Alpha"}, "19": {"stimulus": 44, "trial": 19, "rt": 1837, "response": "Alpha"}, "18": {"stimulus": 6, "trial": 18, "rt": 958, "response": "Beta"}, "31": {"stimulus": 20, "trial": 31, "rt": 1066, "response": "Alpha"}, "30": {"stimulus": 32, "trial": 30, "rt": 1022, "response": "Alpha"}, "37": {"stimulus": 43, "trial": 37, "rt": 1455, "response": "Alpha"}, "36": {"stimulus": 7, "trial": 36, "rt": 1459, "response": "Beta"}, "35": {"stimulus": 27, "trial": 35, "rt": 2403, "response": "Alpha"}, "34": {"stimulus": 62, "trial": 34, "rt": 1270, "response": "Alpha"}, "33": {"stimulus": 17, "trial": 33, "rt": 2223, "response": "Alpha"}, "55": {"stimulus": 64, "trial": 55, "rt": 1007, "response": "Beta"}, "74": {"stimulus": 33, "trial": 74, "rt": 1742, "response": "Alpha"}, "32": {"stimulus": 71, "trial": 32, "rt": 1089, "response": "Beta"}, "57": {"stimulus": 56, "trial": 57, "rt": 1072, "response": "Alpha"}, "50": {"stimulus": 3, "trial": 50, "rt": 1562, "response": "Beta"}}, "experiment": {"Paradigm": "TACL", "Stimuli": "Size-Color Squares", "Experiment": "Generating-Multiple-Categories"}, "submit": {"timeTotal": 404965, "age": "50", "comments": "Interesting. Wonder how I did on identifying the Alpha? After creating my own they stuck in my head. ", "sex": "Female"}}