{"info": {"finish": 1535377025783, "participant": 127, "exposed": true, "lab": false, "start": 1535376524800, "counterbalance": 5, "gentype": 2, "condition": "Middle", "browser": {"platform": "Win32", "userAgent": "Mozilla/5.0 (Windows NT 10.0; Win64; x64) AppleWebKit/537.36 (KHTML, like Gecko) Chrome/68.0.3440.106 Safari/537.36"}}, "observation": {"11": {"stimulus": 32, "trial": 11, "rt": 4293}, "10": {"stimulus": 30, "trial": 10, "rt": 4396}, "1": {"stimulus": 48, "trial": 1, "rt": 3594}, "0": {"stimulus": 32, "trial": 0, "rt": 8956}, "3": {"stimulus": 30, "trial": 3, "rt": 2628}, "2": {"stimulus": 50, "trial": 2, "rt": 8274}, "5": {"stimulus": 32, "trial": 5, "rt": 2353}, "4": {"stimulus": 50, "trial": 4, "rt": 1787}, "7": {"stimulus": 48, "trial": 7, "rt": 3566}, "6": {"stimulus": 30, "trial": 6, "rt": 2595}, "9": {"stimulus": 48, "trial": 9, "rt": 2397}, "8": {"stimulus": 50, "trial": 8, "rt": 3306}}, "generation": {"1": {"category": "Beta", "trial": 1, "stimulus": 2, "rt": 6479}, "0": {"category": "Beta", "trial": 0, "stimulus": 5, "rt": 11762}, "3": {"category": "Beta", "trial": 3, "stimulus": 3, "rt": 18278}, "2": {"category": "Beta", "trial": 2, "stimulus": 4, "rt": 7220}, "5": {"category": "Gamma", "trial": 5, "stimulus": 76, "rt": 4359}, "4": {"category": "Gamma", "trial": 4, "stimulus": 73, "rt": 5729}, "7": {"category": "Gamma", "trial": 7, "stimulus": 72, "rt": 3152}, "6": {"category": "Gamma", "trial": 6, "stimulus": 77, "rt": 4666}}, "generalization": {"56": {"stimulus": 31, "trial": 56, "rt": 842, "response": "Alpha"}, "77": {"stimulus": 51, "trial": 77, "rt": 3117, "response": "Alpha"}, "54": {"stimulus": 50, "trial": 54, "rt": 1199, "response": "Alpha"}, "42": {"stimulus": 58, "trial": 42, "rt": 713, "response": "Alpha"}, "48": {"stimulus": 40, "trial": 48, "rt": 1441, "response": "Alpha"}, "43": {"stimulus": 49, "trial": 43, "rt": 617, "response": "Alpha"}, "60": {"stimulus": 3, "trial": 60, "rt": 1948, "response": "Alpha"}, "61": {"stimulus": 1, "trial": 61, "rt": 6476, "response": "Alpha"}, "62": {"stimulus": 66, "trial": 62, "rt": 2243, "response": "Alpha"}, "63": {"stimulus": 9, "trial": 63, "rt": 2035, "response": "Beta"}, "64": {"stimulus": 22, "trial": 64, "rt": 1844, "response": "Alpha"}, "49": {"stimulus": 28, "trial": 49, "rt": 566, "response": "Alpha"}, "66": {"stimulus": 8, "trial": 66, "rt": 2457, "response": "Gamma"}, "67": {"stimulus": 74, "trial": 67, "rt": 781, "response": "Alpha"}, "68": {"stimulus": 10, "trial": 68, "rt": 672, "response": "Alpha"}, "69": {"stimulus": 18, "trial": 69, "rt": 434, "response": "Alpha"}, "80": {"stimulus": 64, "trial": 80, "rt": 1123, "response": "Beta"}, "52": {"stimulus": 61, "trial": 52, "rt": 1506, "response": "Gamma"}, "53": {"stimulus": 72, "trial": 53, "rt": 2025, "response": "Gamma"}, "24": {"stimulus": 36, "trial": 24, "rt": 1183, "response": "Alpha"}, "25": {"stimulus": 29, "trial": 25, "rt": 951, "response": "Alpha"}, "26": {"stimulus": 35, "trial": 26, "rt": 570, "response": "Alpha"}, "27": {"stimulus": 16, "trial": 27, "rt": 725, "response": "Alpha"}, "20": {"stimulus": 45, "trial": 20, "rt": 1518, "response": "Gamma"}, "21": {"stimulus": 69, "trial": 21, "rt": 1040, "response": "Gamma"}, "22": {"stimulus": 4, "trial": 22, "rt": 1007, "response": "Beta"}, "23": {"stimulus": 15, "trial": 23, "rt": 778, "response": "Beta"}, "46": {"stimulus": 76, "trial": 46, "rt": 1527, "response": "Alpha"}, "47": {"stimulus": 80, "trial": 47, "rt": 1256, "response": "Gamma"}, "44": {"stimulus": 41, "trial": 44, "rt": 978, "response": "Alpha"}, "45": {"stimulus": 26, "trial": 45, "rt": 1480, "response": "Beta"}, "28": {"stimulus": 53, "trial": 28, "rt": 3094, "response": "Gamma"}, "29": {"stimulus": 67, "trial": 29, "rt": 1957, "response": "Alpha"}, "40": {"stimulus": 75, "trial": 40, "rt": 2549, "response": "Alpha"}, "41": {"stimulus": 68, "trial": 41, "rt": 738, "response": "Alpha"}, "1": {"stimulus": 32, "trial": 1, "rt": 2050, "response": "Alpha"}, "0": {"stimulus": 77, "trial": 0, "rt": 4319, "response": "Gamma"}, "3": {"stimulus": 44, "trial": 3, "rt": 1058, "response": "Beta"}, "2": {"stimulus": 24, "trial": 2, "rt": 1508, "response": "Beta"}, "5": {"stimulus": 78, "trial": 5, "rt": 5470, "response": "Gamma"}, "4": {"stimulus": 0, "trial": 4, "rt": 1806, "response": "Beta"}, "7": {"stimulus": 37, "trial": 7, "rt": 753, "response": "Beta"}, "6": {"stimulus": 23, "trial": 6, "rt": 2510, "response": "Beta"}, "9": {"stimulus": 6, "trial": 9, "rt": 1643, "response": "Beta"}, "8": {"stimulus": 54, "trial": 8, "rt": 1006, "response": "Alpha"}, "78": {"stimulus": 65, "trial": 78, "rt": 1066, "response": "Alpha"}, "51": {"stimulus": 42, "trial": 51, "rt": 1818, "response": "Alpha"}, "39": {"stimulus": 70, "trial": 39, "rt": 1566, "response": "Gamma"}, "65": {"stimulus": 13, "trial": 65, "rt": 5618, "response": "Alpha"}, "76": {"stimulus": 17, "trial": 76, "rt": 1182, "response": "Gamma"}, "75": {"stimulus": 19, "trial": 75, "rt": 1008, "response": "Beta"}, "38": {"stimulus": 39, "trial": 38, "rt": 2387, "response": "Alpha"}, "73": {"stimulus": 57, "trial": 73, "rt": 672, "response": "Alpha"}, "72": {"stimulus": 27, "trial": 72, "rt": 1669, "response": "Alpha"}, "71": {"stimulus": 46, "trial": 71, "rt": 598, "response": "Alpha"}, "70": {"stimulus": 20, "trial": 70, "rt": 666, "response": "Alpha"}, "59": {"stimulus": 14, "trial": 59, "rt": 1172, "response": "Alpha"}, "79": {"stimulus": 63, "trial": 79, "rt": 2337, "response": "Beta"}, "58": {"stimulus": 48, "trial": 58, "rt": 1555, "response": "Alpha"}, "11": {"stimulus": 79, "trial": 11, "rt": 1333, "response": "Gamma"}, "10": {"stimulus": 43, "trial": 10, "rt": 2564, "response": "Alpha"}, "13": {"stimulus": 60, "trial": 13, "rt": 2964, "response": "Gamma"}, "12": {"stimulus": 25, "trial": 12, "rt": 2523, "response": "Alpha"}, "15": {"stimulus": 52, "trial": 15, "rt": 5318, "response": "Alpha"}, "14": {"stimulus": 30, "trial": 14, "rt": 1777, "response": "Alpha"}, "17": {"stimulus": 62, "trial": 17, "rt": 6273, "response": "Alpha"}, "16": {"stimulus": 2, "trial": 16, "rt": 6425, "response": "Beta"}, "19": {"stimulus": 56, "trial": 19, "rt": 6573, "response": "Gamma"}, "18": {"stimulus": 73, "trial": 18, "rt": 2283, "response": "Gamma"}, "31": {"stimulus": 55, "trial": 31, "rt": 988, "response": "Alpha"}, "30": {"stimulus": 5, "trial": 30, "rt": 1173, "response": "Beta"}, "37": {"stimulus": 59, "trial": 37, "rt": 1441, "response": "Alpha"}, "36": {"stimulus": 38, "trial": 36, "rt": 1429, "response": "Alpha"}, "35": {"stimulus": 71, "trial": 35, "rt": 896, "response": "Gamma"}, "34": {"stimulus": 7, "trial": 34, "rt": 804, "response": "Beta"}, "33": {"stimulus": 11, "trial": 33, "rt": 2658, "response": "Alpha"}, "55": {"stimulus": 21, "trial": 55, "rt": 893, "response": "Alpha"}, "74": {"stimulus": 47, "trial": 74, "rt": 839, "response": "Alpha"}, "32": {"stimulus": 34, "trial": 32, "rt": 1173, "response": "Gamma"}, "57": {"stimulus": 33, "trial": 57, "rt": 1315, "response": "Gamma"}, "50": {"stimulus": 12, "trial": 50, "rt": 780, "response": "Alpha"}}, "experiment": {"Paradigm": "TACL", "Stimuli": "Size-Color Squares", "Experiment": "Generating-Multiple-Categories"}, "submit": {"timeTotal": 501263, "age": "26", "comments": "", "sex": "female"}}