{"info": {"finish": 1535380002634, "participant": 132, "exposed": true, "lab": false, "start": 1535379649176, "counterbalance": 3, "gentype": 0, "condition": "Middle", "browser": {"platform": "Win64", "userAgent": "Mozilla/5.0 (Windows NT 10.0; Win64; x64; rv:61.0) Gecko/20100101 Firefox/61.0"}}, "observation": {"11": {"stimulus": 48, "trial": 11, "rt": 1458}, "10": {"stimulus": 30, "trial": 10, "rt": 1421}, "1": {"stimulus": 30, "trial": 1, "rt": 2360}, "0": {"stimulus": 32, "trial": 0, "rt": 2118}, "3": {"stimulus": 50, "trial": 3, "rt": 1733}, "2": {"stimulus": 48, "trial": 2, "rt": 1460}, "5": {"stimulus": 50, "trial": 5, "rt": 1461}, "4": {"stimulus": 32, "trial": 4, "rt": 1561}, "7": {"stimulus": 48, "trial": 7, "rt": 1421}, "6": {"stimulus": 30, "trial": 6, "rt": 10427}, "9": {"stimulus": 32, "trial": 9, "rt": 1429}, "8": {"stimulus": 50, "trial": 8, "rt": 15866}}, "generation": {"1": {"category": "Not-Alpha", "trial": 1, "stimulus": 69, "rt": 6592}, "0": {"category": "Not-Alpha", "trial": 0, "stimulus": 72, "rt": 13928}, "3": {"category": "Not-Alpha", "trial": 3, "stimulus": 76, "rt": 7171}, "2": {"category": "Not-Alpha", "trial": 2, "stimulus": 80, "rt": 4716}, "5": {"category": "Not-Alpha", "trial": 5, "stimulus": 5, "rt": 10414}, "4": {"category": "Not-Alpha", "trial": 4, "stimulus": 14, "rt": 2764}, "7": {"category": "Not-Alpha", "trial": 7, "stimulus": 2, "rt": 4195}, "6": {"category": "Not-Alpha", "trial": 6, "stimulus": 77, "rt": 4459}}, "generalization": {"56": {"stimulus": 3, "trial": 56, "rt": 970, "response": "Alpha"}, "77": {"stimulus": 21, "trial": 77, "rt": 531, "response": "Alpha"}, "54": {"stimulus": 63, "trial": 54, "rt": 889, "response": "Beta"}, "42": {"stimulus": 12, "trial": 42, "rt": 1390, "response": "Alpha"}, "48": {"stimulus": 5, "trial": 48, "rt": 930, "response": "Beta"}, "43": {"stimulus": 78, "trial": 43, "rt": 680, "response": "Beta"}, "60": {"stimulus": 73, "trial": 60, "rt": 749, "response": "Beta"}, "61": {"stimulus": 46, "trial": 61, "rt": 575, "response": "Beta"}, "62": {"stimulus": 20, "trial": 62, "rt": 670, "response": "Alpha"}, "63": {"stimulus": 62, "trial": 63, "rt": 1232, "response": "Beta"}, "64": {"stimulus": 16, "trial": 64, "rt": 1430, "response": "Alpha"}, "49": {"stimulus": 69, "trial": 49, "rt": 724, "response": "Beta"}, "66": {"stimulus": 77, "trial": 66, "rt": 7913, "response": "Beta"}, "67": {"stimulus": 43, "trial": 67, "rt": 1352, "response": "Alpha"}, "68": {"stimulus": 57, "trial": 68, "rt": 904, "response": "Alpha"}, "69": {"stimulus": 33, "trial": 69, "rt": 811, "response": "Alpha"}, "80": {"stimulus": 47, "trial": 80, "rt": 943, "response": "Beta"}, "52": {"stimulus": 40, "trial": 52, "rt": 2038, "response": "Beta"}, "53": {"stimulus": 56, "trial": 53, "rt": 1398, "response": "Alpha"}, "24": {"stimulus": 44, "trial": 24, "rt": 1328, "response": "Alpha"}, "25": {"stimulus": 51, "trial": 25, "rt": 993, "response": "Beta"}, "26": {"stimulus": 28, "trial": 26, "rt": 1154, "response": "Beta"}, "27": {"stimulus": 60, "trial": 27, "rt": 921, "response": "Beta"}, "20": {"stimulus": 53, "trial": 20, "rt": 882, "response": "Beta"}, "21": {"stimulus": 70, "trial": 21, "rt": 1024, "response": "Beta"}, "22": {"stimulus": 4, "trial": 22, "rt": 1381, "response": "Beta"}, "23": {"stimulus": 34, "trial": 23, "rt": 1462, "response": "Alpha"}, "46": {"stimulus": 29, "trial": 46, "rt": 750, "response": "Alpha"}, "47": {"stimulus": 17, "trial": 47, "rt": 733, "response": "Alpha"}, "44": {"stimulus": 55, "trial": 44, "rt": 953, "response": "Beta"}, "45": {"stimulus": 7, "trial": 45, "rt": 826, "response": "Alpha"}, "28": {"stimulus": 41, "trial": 28, "rt": 539, "response": "Beta"}, "29": {"stimulus": 45, "trial": 29, "rt": 1212, "response": "Alpha"}, "40": {"stimulus": 18, "trial": 40, "rt": 787, "response": "Alpha"}, "41": {"stimulus": 67, "trial": 41, "rt": 1108, "response": "Beta"}, "1": {"stimulus": 71, "trial": 1, "rt": 1492, "response": "Beta"}, "0": {"stimulus": 26, "trial": 0, "rt": 2289, "response": "Alpha"}, "3": {"stimulus": 36, "trial": 3, "rt": 381, "response": "Beta"}, "2": {"stimulus": 38, "trial": 2, "rt": 1194, "response": "Alpha"}, "5": {"stimulus": 66, "trial": 5, "rt": 527, "response": "Beta"}, "4": {"stimulus": 76, "trial": 4, "rt": 1049, "response": "Beta"}, "7": {"stimulus": 37, "trial": 7, "rt": 18468, "response": "Beta"}, "6": {"stimulus": 42, "trial": 6, "rt": 1249, "response": "Alpha"}, "9": {"stimulus": 39, "trial": 9, "rt": 1038, "response": "Alpha"}, "8": {"stimulus": 15, "trial": 8, "rt": 1928, "response": "Beta"}, "78": {"stimulus": 23, "trial": 78, "rt": 515, "response": "Alpha"}, "51": {"stimulus": 61, "trial": 51, "rt": 820, "response": "Beta"}, "39": {"stimulus": 65, "trial": 39, "rt": 876, "response": "Beta"}, "65": {"stimulus": 79, "trial": 65, "rt": 967, "response": "Beta"}, "76": {"stimulus": 10, "trial": 76, "rt": 1266, "response": "Alpha"}, "75": {"stimulus": 52, "trial": 75, "rt": 766, "response": "Beta"}, "38": {"stimulus": 6, "trial": 38, "rt": 1234, "response": "Beta"}, "73": {"stimulus": 24, "trial": 73, "rt": 687, "response": "Alpha"}, "72": {"stimulus": 27, "trial": 72, "rt": 1429, "response": "Alpha"}, "71": {"stimulus": 48, "trial": 71, "rt": 914, "response": "Beta"}, "70": {"stimulus": 13, "trial": 70, "rt": 991, "response": "Beta"}, "59": {"stimulus": 30, "trial": 59, "rt": 546, "response": "Beta"}, "79": {"stimulus": 75, "trial": 79, "rt": 828, "response": "Beta"}, "58": {"stimulus": 32, "trial": 58, "rt": 787, "response": "Beta"}, "11": {"stimulus": 22, "trial": 11, "rt": 599, "response": "Alpha"}, "10": {"stimulus": 31, "trial": 10, "rt": 508, "response": "Alpha"}, "13": {"stimulus": 11, "trial": 13, "rt": 1311, "response": "Beta"}, "12": {"stimulus": 59, "trial": 12, "rt": 1158, "response": "Beta"}, "15": {"stimulus": 58, "trial": 15, "rt": 2127, "response": "Alpha"}, "14": {"stimulus": 25, "trial": 14, "rt": 951, "response": "Beta"}, "17": {"stimulus": 14, "trial": 17, "rt": 1607, "response": "Alpha"}, "16": {"stimulus": 80, "trial": 16, "rt": 1117, "response": "Beta"}, "19": {"stimulus": 2, "trial": 19, "rt": 1547, "response": "Alpha"}, "18": {"stimulus": 0, "trial": 18, "rt": 1060, "response": "Beta"}, "31": {"stimulus": 8, "trial": 31, "rt": 913, "response": "Beta"}, "30": {"stimulus": 1, "trial": 30, "rt": 1601, "response": "Beta"}, "37": {"stimulus": 50, "trial": 37, "rt": 858, "response": "Beta"}, "36": {"stimulus": 9, "trial": 36, "rt": 936, "response": "Beta"}, "35": {"stimulus": 49, "trial": 35, "rt": 1084, "response": "Alpha"}, "34": {"stimulus": 64, "trial": 34, "rt": 1069, "response": "Beta"}, "33": {"stimulus": 74, "trial": 33, "rt": 758, "response": "Beta"}, "55": {"stimulus": 54, "trial": 55, "rt": 836, "response": "Beta"}, "74": {"stimulus": 68, "trial": 74, "rt": 951, "response": "Beta"}, "32": {"stimulus": 35, "trial": 32, "rt": 921, "response": "Beta"}, "57": {"stimulus": 72, "trial": 57, "rt": 773, "response": "Beta"}, "50": {"stimulus": 19, "trial": 50, "rt": 1068, "response": "Alpha"}}, "experiment": {"Paradigm": "TACL", "Stimuli": "Size-Color Squares", "Experiment": "Generating-Multiple-Categories"}, "submit": {"timeTotal": 353759, "age": "39", "comments": "no comments.", "sex": "male"}}