{"info": {"finish": 1535382753693, "participant": 135, "exposed": true, "lab": false, "start": 1535382229005, "counterbalance": 0, "gentype": 0, "condition": "Bottom", "browser": {"platform": "Win32", "userAgent": "Mozilla/5.0 (Windows NT 6.2; Win64; x64) AppleWebKit/537.36 (KHTML, like Gecko) Chrome/68.0.3440.106 Safari/537.36"}}, "observation": {"11": {"stimulus": 30, "trial": 11, "rt": 1631}, "10": {"stimulus": 12, "trial": 10, "rt": 1662}, "1": {"stimulus": 30, "trial": 1, "rt": 6173}, "0": {"stimulus": 14, "trial": 0, "rt": 7089}, "3": {"stimulus": 32, "trial": 3, "rt": 3830}, "2": {"stimulus": 12, "trial": 2, "rt": 4294}, "5": {"stimulus": 30, "trial": 5, "rt": 3159}, "4": {"stimulus": 12, "trial": 4, "rt": 3591}, "7": {"stimulus": 14, "trial": 7, "rt": 2435}, "6": {"stimulus": 32, "trial": 6, "rt": 3143}, "9": {"stimulus": 32, "trial": 9, "rt": 2111}, "8": {"stimulus": 14, "trial": 8, "rt": 2087}}, "generation": {"1": {"category": "Not-Alpha", "trial": 1, "stimulus": 47, "rt": 20798}, "0": {"category": "Not-Alpha", "trial": 0, "stimulus": 31, "rt": 24061}, "3": {"category": "Not-Alpha", "trial": 3, "stimulus": 44, "rt": 8798}, "2": {"category": "Not-Alpha", "trial": 2, "stimulus": 10, "rt": 9987}, "5": {"category": "Not-Alpha", "trial": 5, "stimulus": 61, "rt": 3710}, "4": {"category": "Not-Alpha", "trial": 4, "stimulus": 30, "rt": 5270}, "7": {"category": "Not-Alpha", "trial": 7, "stimulus": 28, "rt": 6094}, "6": {"category": "Not-Alpha", "trial": 6, "stimulus": 34, "rt": 15239}}, "generalization": {"56": {"stimulus": 60, "trial": 56, "rt": 543, "response": "Beta"}, "77": {"stimulus": 11, "trial": 77, "rt": 566, "response": "Beta"}, "54": {"stimulus": 72, "trial": 54, "rt": 382, "response": "Alpha"}, "42": {"stimulus": 24, "trial": 42, "rt": 473, "response": "Alpha"}, "48": {"stimulus": 58, "trial": 48, "rt": 1263, "response": "Alpha"}, "43": {"stimulus": 48, "trial": 43, "rt": 471, "response": "Alpha"}, "60": {"stimulus": 0, "trial": 60, "rt": 407, "response": "Alpha"}, "61": {"stimulus": 13, "trial": 61, "rt": 918, "response": "Alpha"}, "62": {"stimulus": 23, "trial": 62, "rt": 510, "response": "Alpha"}, "63": {"stimulus": 28, "trial": 63, "rt": 415, "response": "Alpha"}, "64": {"stimulus": 79, "trial": 64, "rt": 1463, "response": "Beta"}, "49": {"stimulus": 52, "trial": 49, "rt": 575, "response": "Alpha"}, "66": {"stimulus": 29, "trial": 66, "rt": 422, "response": "Beta"}, "67": {"stimulus": 61, "trial": 67, "rt": 503, "response": "Alpha"}, "68": {"stimulus": 57, "trial": 68, "rt": 430, "response": "Beta"}, "69": {"stimulus": 37, "trial": 69, "rt": 388, "response": "Beta"}, "80": {"stimulus": 54, "trial": 80, "rt": 463, "response": "Beta"}, "52": {"stimulus": 35, "trial": 52, "rt": 391, "response": "Alpha"}, "53": {"stimulus": 16, "trial": 53, "rt": 424, "response": "Alpha"}, "24": {"stimulus": 63, "trial": 24, "rt": 871, "response": "Beta"}, "25": {"stimulus": 6, "trial": 25, "rt": 1038, "response": "Alpha"}, "26": {"stimulus": 4, "trial": 26, "rt": 543, "response": "Beta"}, "27": {"stimulus": 14, "trial": 27, "rt": 663, "response": "Alpha"}, "20": {"stimulus": 51, "trial": 20, "rt": 735, "response": "Alpha"}, "21": {"stimulus": 41, "trial": 21, "rt": 749, "response": "Alpha"}, "22": {"stimulus": 46, "trial": 22, "rt": 879, "response": "Alpha"}, "23": {"stimulus": 65, "trial": 23, "rt": 879, "response": "Beta"}, "46": {"stimulus": 17, "trial": 46, "rt": 407, "response": "Alpha"}, "47": {"stimulus": 80, "trial": 47, "rt": 407, "response": "Alpha"}, "44": {"stimulus": 42, "trial": 44, "rt": 1696, "response": "Alpha"}, "45": {"stimulus": 26, "trial": 45, "rt": 631, "response": "Alpha"}, "28": {"stimulus": 55, "trial": 28, "rt": 1551, "response": "Alpha"}, "29": {"stimulus": 43, "trial": 29, "rt": 487, "response": "Beta"}, "40": {"stimulus": 7, "trial": 40, "rt": 655, "response": "Alpha"}, "41": {"stimulus": 32, "trial": 41, "rt": 1079, "response": "Alpha"}, "1": {"stimulus": 66, "trial": 1, "rt": 4976, "response": "Beta"}, "0": {"stimulus": 1, "trial": 0, "rt": 6369, "response": "Beta"}, "3": {"stimulus": 20, "trial": 3, "rt": 884, "response": "Alpha"}, "2": {"stimulus": 56, "trial": 2, "rt": 964, "response": "Alpha"}, "5": {"stimulus": 64, "trial": 5, "rt": 1432, "response": "Beta"}, "4": {"stimulus": 21, "trial": 4, "rt": 806, "response": "Alpha"}, "7": {"stimulus": 44, "trial": 7, "rt": 804, "response": "Alpha"}, "6": {"stimulus": 19, "trial": 6, "rt": 735, "response": "Alpha"}, "9": {"stimulus": 69, "trial": 9, "rt": 1181, "response": "Alpha"}, "8": {"stimulus": 53, "trial": 8, "rt": 779, "response": "Alpha"}, "78": {"stimulus": 45, "trial": 78, "rt": 1038, "response": "Alpha"}, "51": {"stimulus": 39, "trial": 51, "rt": 456, "response": "Alpha"}, "39": {"stimulus": 31, "trial": 39, "rt": 470, "response": "Alpha"}, "65": {"stimulus": 36, "trial": 65, "rt": 486, "response": "Alpha"}, "76": {"stimulus": 75, "trial": 76, "rt": 758, "response": "Beta"}, "75": {"stimulus": 38, "trial": 75, "rt": 719, "response": "Beta"}, "38": {"stimulus": 70, "trial": 38, "rt": 1374, "response": "Beta"}, "73": {"stimulus": 12, "trial": 73, "rt": 1247, "response": "Alpha"}, "72": {"stimulus": 8, "trial": 72, "rt": 816, "response": "Alpha"}, "71": {"stimulus": 67, "trial": 71, "rt": 439, "response": "Alpha"}, "70": {"stimulus": 30, "trial": 70, "rt": 551, "response": "Alpha"}, "59": {"stimulus": 33, "trial": 59, "rt": 559, "response": "Alpha"}, "79": {"stimulus": 76, "trial": 79, "rt": 502, "response": "Beta"}, "58": {"stimulus": 22, "trial": 58, "rt": 647, "response": "Alpha"}, "11": {"stimulus": 71, "trial": 11, "rt": 1157, "response": "Beta"}, "10": {"stimulus": 15, "trial": 10, "rt": 904, "response": "Alpha"}, "13": {"stimulus": 59, "trial": 13, "rt": 2038, "response": "Alpha"}, "12": {"stimulus": 3, "trial": 12, "rt": 823, "response": "Alpha"}, "15": {"stimulus": 34, "trial": 15, "rt": 1208, "response": "Alpha"}, "14": {"stimulus": 49, "trial": 14, "rt": 872, "response": "Alpha"}, "17": {"stimulus": 62, "trial": 17, "rt": 1151, "response": "Beta"}, "16": {"stimulus": 9, "trial": 16, "rt": 783, "response": "Alpha"}, "19": {"stimulus": 78, "trial": 19, "rt": 919, "response": "Beta"}, "18": {"stimulus": 74, "trial": 18, "rt": 1207, "response": "Beta"}, "31": {"stimulus": 25, "trial": 31, "rt": 438, "response": "Alpha"}, "30": {"stimulus": 27, "trial": 30, "rt": 854, "response": "Alpha"}, "37": {"stimulus": 2, "trial": 37, "rt": 432, "response": "Alpha"}, "36": {"stimulus": 73, "trial": 36, "rt": 797, "response": "Beta"}, "35": {"stimulus": 47, "trial": 35, "rt": 1046, "response": "Alpha"}, "34": {"stimulus": 68, "trial": 34, "rt": 959, "response": "Beta"}, "33": {"stimulus": 18, "trial": 33, "rt": 414, "response": "Alpha"}, "55": {"stimulus": 77, "trial": 55, "rt": 464, "response": "Beta"}, "74": {"stimulus": 50, "trial": 74, "rt": 614, "response": "Alpha"}, "32": {"stimulus": 10, "trial": 32, "rt": 407, "response": "Alpha"}, "57": {"stimulus": 40, "trial": 57, "rt": 654, "response": "Alpha"}, "50": {"stimulus": 5, "trial": 50, "rt": 518, "response": "Alpha"}}, "experiment": {"Paradigm": "TACL", "Stimuli": "Size-Color Squares", "Experiment": "Generating-Multiple-Categories"}, "submit": {"timeTotal": 526317, "age": "28", "comments": "nice", "sex": "female"}}