{"info": {"finish": 1535383369655, "participant": 136, "exposed": true, "lab": false, "start": 1535382233839, "counterbalance": 2, "gentype": 2, "condition": "Middle", "browser": {"platform": "Win32", "userAgent": "Mozilla/5.0 (Windows NT 10.0; Win64; x64) AppleWebKit/537.36 (KHTML, like Gecko) Chrome/68.0.3440.106 Safari/537.36"}}, "observation": {"11": {"stimulus": 48, "trial": 11, "rt": 2001}, "10": {"stimulus": 32, "trial": 10, "rt": 1593}, "1": {"stimulus": 48, "trial": 1, "rt": 1815}, "0": {"stimulus": 32, "trial": 0, "rt": 18780}, "3": {"stimulus": 50, "trial": 3, "rt": 1655}, "2": {"stimulus": 30, "trial": 2, "rt": 1729}, "5": {"stimulus": 32, "trial": 5, "rt": 1848}, "4": {"stimulus": 48, "trial": 4, "rt": 1909}, "7": {"stimulus": 30, "trial": 7, "rt": 1649}, "6": {"stimulus": 50, "trial": 6, "rt": 1650}, "9": {"stimulus": 50, "trial": 9, "rt": 1547}, "8": {"stimulus": 30, "trial": 8, "rt": 1646}}, "generation": {"1": {"category": "Beta", "trial": 1, "stimulus": 71, "rt": 7801}, "0": {"category": "Beta", "trial": 0, "stimulus": 80, "rt": 12181}, "3": {"category": "Beta", "trial": 3, "stimulus": 77, "rt": 3736}, "2": {"category": "Beta", "trial": 2, "stimulus": 73, "rt": 9109}, "5": {"category": "Gamma", "trial": 5, "stimulus": 16, "rt": 4486}, "4": {"category": "Gamma", "trial": 4, "stimulus": 8, "rt": 4989}, "7": {"category": "Gamma", "trial": 7, "stimulus": 42, "rt": 5348}, "6": {"category": "Gamma", "trial": 6, "stimulus": 44, "rt": 5667}}, "generalization": {"56": {"stimulus": 16, "trial": 56, "rt": 1371, "response": "Gamma"}, "77": {"stimulus": 70, "trial": 77, "rt": 794, "response": "Beta"}, "54": {"stimulus": 17, "trial": 54, "rt": 1562, "response": "Gamma"}, "42": {"stimulus": 46, "trial": 42, "rt": 1245, "response": "Alpha"}, "48": {"stimulus": 43, "trial": 48, "rt": 5924, "response": "Alpha"}, "43": {"stimulus": 0, "trial": 43, "rt": 2156, "response": "Gamma"}, "60": {"stimulus": 54, "trial": 60, "rt": 1834, "response": "Alpha"}, "61": {"stimulus": 10, "trial": 61, "rt": 1170, "response": "Gamma"}, "62": {"stimulus": 9, "trial": 62, "rt": 1153, "response": "Gamma"}, "63": {"stimulus": 40, "trial": 63, "rt": 1634, "response": "Alpha"}, "64": {"stimulus": 30, "trial": 64, "rt": 1197, "response": "Alpha"}, "49": {"stimulus": 61, "trial": 49, "rt": 1078, "response": "Beta"}, "66": {"stimulus": 79, "trial": 66, "rt": 1088, "response": "Beta"}, "67": {"stimulus": 26, "trial": 67, "rt": 1366, "response": "Gamma"}, "68": {"stimulus": 11, "trial": 68, "rt": 2318, "response": "Gamma"}, "69": {"stimulus": 22, "trial": 69, "rt": 8515, "response": "Gamma"}, "80": {"stimulus": 42, "trial": 80, "rt": 1493, "response": "Alpha"}, "52": {"stimulus": 66, "trial": 52, "rt": 1119, "response": "Beta"}, "53": {"stimulus": 49, "trial": 53, "rt": 3493, "response": "Alpha"}, "24": {"stimulus": 52, "trial": 24, "rt": 5627, "response": "Alpha"}, "25": {"stimulus": 56, "trial": 25, "rt": 1576, "response": "Alpha"}, "26": {"stimulus": 72, "trial": 26, "rt": 1900, "response": "Beta"}, "27": {"stimulus": 64, "trial": 27, "rt": 1015, "response": "Beta"}, "20": {"stimulus": 63, "trial": 20, "rt": 1371, "response": "Beta"}, "21": {"stimulus": 75, "trial": 21, "rt": 5098, "response": "Beta"}, "22": {"stimulus": 36, "trial": 22, "rt": 1789, "response": "Alpha"}, "23": {"stimulus": 6, "trial": 23, "rt": 6052, "response": "Gamma"}, "46": {"stimulus": 77, "trial": 46, "rt": 1323, "response": "Beta"}, "47": {"stimulus": 2, "trial": 47, "rt": 1522, "response": "Gamma"}, "44": {"stimulus": 37, "trial": 44, "rt": 2932, "response": "Alpha"}, "45": {"stimulus": 28, "trial": 45, "rt": 1947, "response": "Alpha"}, "28": {"stimulus": 80, "trial": 28, "rt": 674, "response": "Beta"}, "29": {"stimulus": 35, "trial": 29, "rt": 2209, "response": "Gamma"}, "40": {"stimulus": 27, "trial": 40, "rt": 1987, "response": "Alpha"}, "41": {"stimulus": 4, "trial": 41, "rt": 2253, "response": "Gamma"}, "1": {"stimulus": 3, "trial": 1, "rt": 10694, "response": "Gamma"}, "0": {"stimulus": 78, "trial": 0, "rt": 1826, "response": "Beta"}, "3": {"stimulus": 34, "trial": 3, "rt": 2024, "response": "Alpha"}, "2": {"stimulus": 55, "trial": 2, "rt": 1586, "response": "Alpha"}, "5": {"stimulus": 21, "trial": 5, "rt": 7064, "response": "Gamma"}, "4": {"stimulus": 58, "trial": 4, "rt": 13394, "response": "Alpha"}, "7": {"stimulus": 45, "trial": 7, "rt": 1165, "response": "Alpha"}, "6": {"stimulus": 57, "trial": 6, "rt": 1259, "response": "Alpha"}, "9": {"stimulus": 38, "trial": 9, "rt": 1741, "response": "Alpha"}, "8": {"stimulus": 20, "trial": 8, "rt": 1492, "response": "Gamma"}, "78": {"stimulus": 62, "trial": 78, "rt": 1382, "response": "Gamma"}, "51": {"stimulus": 19, "trial": 51, "rt": 1266, "response": "Gamma"}, "39": {"stimulus": 23, "trial": 39, "rt": 1860, "response": "Gamma"}, "65": {"stimulus": 25, "trial": 65, "rt": 2013, "response": "Gamma"}, "76": {"stimulus": 67, "trial": 76, "rt": 1132, "response": "Beta"}, "75": {"stimulus": 44, "trial": 75, "rt": 2997, "response": "Gamma"}, "38": {"stimulus": 51, "trial": 38, "rt": 1770, "response": "Alpha"}, "73": {"stimulus": 47, "trial": 73, "rt": 1419, "response": "Alpha"}, "72": {"stimulus": 29, "trial": 72, "rt": 2025, "response": "Alpha"}, "71": {"stimulus": 12, "trial": 71, "rt": 2889, "response": "Gamma"}, "70": {"stimulus": 39, "trial": 70, "rt": 2152, "response": "Alpha"}, "59": {"stimulus": 31, "trial": 59, "rt": 2020, "response": "Alpha"}, "79": {"stimulus": 53, "trial": 79, "rt": 2772, "response": "Gamma"}, "58": {"stimulus": 18, "trial": 58, "rt": 2012, "response": "Gamma"}, "11": {"stimulus": 73, "trial": 11, "rt": 1339, "response": "Beta"}, "10": {"stimulus": 69, "trial": 10, "rt": 1214, "response": "Beta"}, "13": {"stimulus": 41, "trial": 13, "rt": 6871, "response": "Alpha"}, "12": {"stimulus": 8, "trial": 12, "rt": 1993, "response": "Gamma"}, "15": {"stimulus": 32, "trial": 15, "rt": 887, "response": "Alpha"}, "14": {"stimulus": 50, "trial": 14, "rt": 707, "response": "Alpha"}, "17": {"stimulus": 65, "trial": 17, "rt": 1286, "response": "Beta"}, "16": {"stimulus": 7, "trial": 16, "rt": 1469, "response": "Gamma"}, "19": {"stimulus": 68, "trial": 19, "rt": 1107, "response": "Beta"}, "18": {"stimulus": 48, "trial": 18, "rt": 1713, "response": "Alpha"}, "31": {"stimulus": 5, "trial": 31, "rt": 1443, "response": "Gamma"}, "30": {"stimulus": 59, "trial": 30, "rt": 1405, "response": "Alpha"}, "37": {"stimulus": 14, "trial": 37, "rt": 2125, "response": "Gamma"}, "36": {"stimulus": 33, "trial": 36, "rt": 1604, "response": "Alpha"}, "35": {"stimulus": 1, "trial": 35, "rt": 635, "response": "Gamma"}, "34": {"stimulus": 24, "trial": 34, "rt": 1426, "response": "Gamma"}, "33": {"stimulus": 71, "trial": 33, "rt": 998, "response": "Beta"}, "55": {"stimulus": 76, "trial": 55, "rt": 820, "response": "Beta"}, "74": {"stimulus": 15, "trial": 74, "rt": 1354, "response": "Gamma"}, "32": {"stimulus": 13, "trial": 32, "rt": 1279, "response": "Gamma"}, "57": {"stimulus": 74, "trial": 57, "rt": 925, "response": "Beta"}, "50": {"stimulus": 60, "trial": 50, "rt": 1845, "response": "Beta"}}, "experiment": {"Paradigm": "TACL", "Stimuli": "Size-Color Squares", "Experiment": "Generating-Multiple-Categories"}, "submit": {"timeTotal": 1136030, "age": "35", "comments": "fun!", "sex": "female"}}