{"info": {"finish": 1535382874326, "participant": 137, "exposed": true, "lab": false, "start": 1535382298292, "counterbalance": 1, "gentype": 0, "condition": "Bottom", "browser": {"platform": "Win32", "userAgent": "Mozilla/5.0 (Windows NT 6.3; WOW64) AppleWebKit/537.36 (KHTML, like Gecko) Chrome/68.0.3440.106 Safari/537.36"}}, "observation": {"11": {"stimulus": 12, "trial": 11, "rt": 2423}, "10": {"stimulus": 14, "trial": 10, "rt": 2781}, "1": {"stimulus": 32, "trial": 1, "rt": 6550}, "0": {"stimulus": 30, "trial": 0, "rt": 10792}, "3": {"stimulus": 12, "trial": 3, "rt": 4436}, "2": {"stimulus": 14, "trial": 2, "rt": 24263}, "5": {"stimulus": 32, "trial": 5, "rt": 6364}, "4": {"stimulus": 30, "trial": 4, "rt": 2958}, "7": {"stimulus": 14, "trial": 7, "rt": 2529}, "6": {"stimulus": 12, "trial": 6, "rt": 3094}, "9": {"stimulus": 32, "trial": 9, "rt": 2427}, "8": {"stimulus": 30, "trial": 8, "rt": 2410}}, "generation": {"1": {"category": "Not-Alpha", "trial": 1, "stimulus": 62, "rt": 30022}, "0": {"category": "Not-Alpha", "trial": 0, "stimulus": 72, "rt": 28689}, "3": {"category": "Not-Alpha", "trial": 3, "stimulus": 79, "rt": 19505}, "2": {"category": "Not-Alpha", "trial": 2, "stimulus": 64, "rt": 25873}, "5": {"category": "Not-Alpha", "trial": 5, "stimulus": 44, "rt": 15053}, "4": {"category": "Not-Alpha", "trial": 4, "stimulus": 54, "rt": 15387}, "7": {"category": "Not-Alpha", "trial": 7, "stimulus": 65, "rt": 11692}, "6": {"category": "Not-Alpha", "trial": 6, "stimulus": 78, "rt": 9387}}, "generalization": {"56": {"stimulus": 38, "trial": 56, "rt": 839, "response": "Beta"}, "77": {"stimulus": 33, "trial": 77, "rt": 3817, "response": "Beta"}, "54": {"stimulus": 52, "trial": 54, "rt": 1305, "response": "Beta"}, "42": {"stimulus": 53, "trial": 42, "rt": 903, "response": "Beta"}, "48": {"stimulus": 27, "trial": 48, "rt": 4095, "response": "Beta"}, "43": {"stimulus": 39, "trial": 43, "rt": 860, "response": "Beta"}, "60": {"stimulus": 47, "trial": 60, "rt": 1517, "response": "Beta"}, "61": {"stimulus": 45, "trial": 61, "rt": 838, "response": "Beta"}, "62": {"stimulus": 18, "trial": 62, "rt": 3027, "response": "Alpha"}, "63": {"stimulus": 25, "trial": 63, "rt": 1849, "response": "Alpha"}, "64": {"stimulus": 74, "trial": 64, "rt": 1407, "response": "Beta"}, "49": {"stimulus": 21, "trial": 49, "rt": 1700, "response": "Alpha"}, "66": {"stimulus": 36, "trial": 66, "rt": 1567, "response": "Beta"}, "67": {"stimulus": 77, "trial": 67, "rt": 1608, "response": "Beta"}, "68": {"stimulus": 42, "trial": 68, "rt": 1343, "response": "Beta"}, "69": {"stimulus": 9, "trial": 69, "rt": 1825, "response": "Alpha"}, "80": {"stimulus": 62, "trial": 80, "rt": 1635, "response": "Beta"}, "52": {"stimulus": 73, "trial": 52, "rt": 828, "response": "Beta"}, "53": {"stimulus": 12, "trial": 53, "rt": 1738, "response": "Alpha"}, "24": {"stimulus": 71, "trial": 24, "rt": 906, "response": "Beta"}, "25": {"stimulus": 35, "trial": 25, "rt": 1304, "response": "Beta"}, "26": {"stimulus": 1, "trial": 26, "rt": 1479, "response": "Alpha"}, "27": {"stimulus": 7, "trial": 27, "rt": 1018, "response": "Alpha"}, "20": {"stimulus": 8, "trial": 20, "rt": 1719, "response": "Alpha"}, "21": {"stimulus": 30, "trial": 21, "rt": 3083, "response": "Beta"}, "22": {"stimulus": 50, "trial": 22, "rt": 1195, "response": "Beta"}, "23": {"stimulus": 28, "trial": 23, "rt": 927, "response": "Beta"}, "46": {"stimulus": 70, "trial": 46, "rt": 917, "response": "Beta"}, "47": {"stimulus": 69, "trial": 47, "rt": 848, "response": "Beta"}, "44": {"stimulus": 22, "trial": 44, "rt": 2755, "response": "Alpha"}, "45": {"stimulus": 40, "trial": 45, "rt": 1385, "response": "Beta"}, "28": {"stimulus": 19, "trial": 28, "rt": 4449, "response": "Alpha"}, "29": {"stimulus": 34, "trial": 29, "rt": 1877, "response": "Beta"}, "40": {"stimulus": 55, "trial": 40, "rt": 1049, "response": "Beta"}, "41": {"stimulus": 37, "trial": 41, "rt": 2977, "response": "Beta"}, "1": {"stimulus": 49, "trial": 1, "rt": 1748, "response": "Beta"}, "0": {"stimulus": 14, "trial": 0, "rt": 3083, "response": "Alpha"}, "3": {"stimulus": 31, "trial": 3, "rt": 3166, "response": "Beta"}, "2": {"stimulus": 4, "trial": 2, "rt": 1358, "response": "Alpha"}, "5": {"stimulus": 56, "trial": 5, "rt": 1193, "response": "Beta"}, "4": {"stimulus": 66, "trial": 4, "rt": 1480, "response": "Beta"}, "7": {"stimulus": 78, "trial": 7, "rt": 1106, "response": "Beta"}, "6": {"stimulus": 75, "trial": 6, "rt": 1843, "response": "Beta"}, "9": {"stimulus": 6, "trial": 9, "rt": 2071, "response": "Alpha"}, "8": {"stimulus": 58, "trial": 8, "rt": 1030, "response": "Beta"}, "78": {"stimulus": 5, "trial": 78, "rt": 1326, "response": "Alpha"}, "51": {"stimulus": 60, "trial": 51, "rt": 918, "response": "Beta"}, "39": {"stimulus": 41, "trial": 39, "rt": 1082, "response": "Beta"}, "65": {"stimulus": 3, "trial": 65, "rt": 1657, "response": "Alpha"}, "76": {"stimulus": 20, "trial": 76, "rt": 2073, "response": "Alpha"}, "75": {"stimulus": 54, "trial": 75, "rt": 1084, "response": "Beta"}, "38": {"stimulus": 32, "trial": 38, "rt": 1839, "response": "Beta"}, "73": {"stimulus": 64, "trial": 73, "rt": 1161, "response": "Beta"}, "72": {"stimulus": 67, "trial": 72, "rt": 1248, "response": "Beta"}, "71": {"stimulus": 46, "trial": 71, "rt": 1448, "response": "Beta"}, "70": {"stimulus": 63, "trial": 70, "rt": 1615, "response": "Beta"}, "59": {"stimulus": 10, "trial": 59, "rt": 837, "response": "Alpha"}, "79": {"stimulus": 0, "trial": 79, "rt": 1314, "response": "Alpha"}, "58": {"stimulus": 11, "trial": 58, "rt": 1501, "response": "Alpha"}, "11": {"stimulus": 29, "trial": 11, "rt": 1558, "response": "Beta"}, "10": {"stimulus": 43, "trial": 10, "rt": 1884, "response": "Beta"}, "13": {"stimulus": 17, "trial": 13, "rt": 1436, "response": "Alpha"}, "12": {"stimulus": 23, "trial": 12, "rt": 3803, "response": "Alpha"}, "15": {"stimulus": 80, "trial": 15, "rt": 1592, "response": "Beta"}, "14": {"stimulus": 15, "trial": 14, "rt": 1348, "response": "Alpha"}, "17": {"stimulus": 16, "trial": 17, "rt": 4604, "response": "Alpha"}, "16": {"stimulus": 61, "trial": 16, "rt": 1446, "response": "Beta"}, "19": {"stimulus": 76, "trial": 19, "rt": 1588, "response": "Beta"}, "18": {"stimulus": 2, "trial": 18, "rt": 1340, "response": "Alpha"}, "31": {"stimulus": 59, "trial": 31, "rt": 1128, "response": "Beta"}, "30": {"stimulus": 79, "trial": 30, "rt": 1302, "response": "Beta"}, "37": {"stimulus": 72, "trial": 37, "rt": 956, "response": "Beta"}, "36": {"stimulus": 68, "trial": 36, "rt": 1347, "response": "Beta"}, "35": {"stimulus": 26, "trial": 35, "rt": 1980, "response": "Alpha"}, "34": {"stimulus": 57, "trial": 34, "rt": 1440, "response": "Beta"}, "33": {"stimulus": 13, "trial": 33, "rt": 1150, "response": "Alpha"}, "55": {"stimulus": 48, "trial": 55, "rt": 5883, "response": "Beta"}, "74": {"stimulus": 65, "trial": 74, "rt": 1083, "response": "Beta"}, "32": {"stimulus": 24, "trial": 32, "rt": 10311, "response": "Alpha"}, "57": {"stimulus": 44, "trial": 57, "rt": 1048, "response": "Beta"}, "50": {"stimulus": 51, "trial": 50, "rt": 1380, "response": "Beta"}}, "experiment": {"Paradigm": "TACL", "Stimuli": "Size-Color Squares", "Experiment": "Generating-Multiple-Categories"}, "submit": {"timeTotal": 585545, "age": "44", "comments": "It was interesting and relaxing.", "sex": "male"}}