{"info": {"finish": 1535382809567, "participant": 138, "exposed": true, "lab": false, "start": 1535382407951, "counterbalance": 0, "gentype": 1, "condition": "Bottom", "browser": {"platform": "Win32", "userAgent": "Mozilla/5.0 (Windows NT 10.0; Win64; x64) AppleWebKit/537.36 (KHTML, like Gecko) Chrome/68.0.3440.106 Safari/537.36"}}, "observation": {"11": {"stimulus": 30, "trial": 11, "rt": 1622}, "10": {"stimulus": 14, "trial": 10, "rt": 1605}, "1": {"stimulus": 32, "trial": 1, "rt": 3790}, "0": {"stimulus": 30, "trial": 0, "rt": 4200}, "3": {"stimulus": 12, "trial": 3, "rt": 1933}, "2": {"stimulus": 14, "trial": 2, "rt": 2061}, "5": {"stimulus": 32, "trial": 5, "rt": 1752}, "4": {"stimulus": 12, "trial": 4, "rt": 1799}, "7": {"stimulus": 14, "trial": 7, "rt": 1791}, "6": {"stimulus": 30, "trial": 6, "rt": 1740}, "9": {"stimulus": 12, "trial": 9, "rt": 1625}, "8": {"stimulus": 32, "trial": 8, "rt": 1626}}, "generation": {"1": {"category": "Beta", "trial": 1, "stimulus": 80, "rt": 6618}, "0": {"category": "Beta", "trial": 0, "stimulus": 72, "rt": 24495}, "3": {"category": "Beta", "trial": 3, "stimulus": 20, "rt": 7464}, "2": {"category": "Beta", "trial": 2, "stimulus": 0, "rt": 6978}, "5": {"category": "Beta", "trial": 5, "stimulus": 73, "rt": 11174}, "4": {"category": "Beta", "trial": 4, "stimulus": 74, "rt": 6812}, "7": {"category": "Beta", "trial": 7, "stimulus": 9, "rt": 5847}, "6": {"category": "Beta", "trial": 6, "stimulus": 27, "rt": 10460}}, "generalization": {"56": {"stimulus": 69, "trial": 56, "rt": 667, "response": "Alpha"}, "77": {"stimulus": 79, "trial": 77, "rt": 1024, "response": "Beta"}, "54": {"stimulus": 18, "trial": 54, "rt": 980, "response": "Beta"}, "42": {"stimulus": 78, "trial": 42, "rt": 1786, "response": "Beta"}, "48": {"stimulus": 62, "trial": 48, "rt": 695, "response": "Beta"}, "43": {"stimulus": 57, "trial": 43, "rt": 1080, "response": "Alpha"}, "60": {"stimulus": 70, "trial": 60, "rt": 2299, "response": "Beta"}, "61": {"stimulus": 65, "trial": 61, "rt": 3633, "response": "Alpha"}, "62": {"stimulus": 14, "trial": 62, "rt": 965, "response": "Alpha"}, "63": {"stimulus": 1, "trial": 63, "rt": 710, "response": "Alpha"}, "64": {"stimulus": 44, "trial": 64, "rt": 1665, "response": "Beta"}, "49": {"stimulus": 76, "trial": 49, "rt": 1130, "response": "Alpha"}, "66": {"stimulus": 51, "trial": 66, "rt": 1886, "response": "Beta"}, "67": {"stimulus": 17, "trial": 67, "rt": 911, "response": "Beta"}, "68": {"stimulus": 60, "trial": 68, "rt": 968, "response": "Beta"}, "69": {"stimulus": 74, "trial": 69, "rt": 1269, "response": "Beta"}, "80": {"stimulus": 16, "trial": 80, "rt": 1880, "response": "Beta"}, "52": {"stimulus": 72, "trial": 52, "rt": 1479, "response": "Beta"}, "53": {"stimulus": 67, "trial": 53, "rt": 1239, "response": "Alpha"}, "24": {"stimulus": 3, "trial": 24, "rt": 4283, "response": "Alpha"}, "25": {"stimulus": 21, "trial": 25, "rt": 2026, "response": "Beta"}, "26": {"stimulus": 34, "trial": 26, "rt": 1028, "response": "Beta"}, "27": {"stimulus": 5, "trial": 27, "rt": 1877, "response": "Alpha"}, "20": {"stimulus": 26, "trial": 20, "rt": 974, "response": "Alpha"}, "21": {"stimulus": 24, "trial": 21, "rt": 637, "response": "Alpha"}, "22": {"stimulus": 29, "trial": 22, "rt": 1976, "response": "Beta"}, "23": {"stimulus": 0, "trial": 23, "rt": 653, "response": "Beta"}, "46": {"stimulus": 35, "trial": 46, "rt": 1899, "response": "Beta"}, "47": {"stimulus": 52, "trial": 47, "rt": 2186, "response": "Beta"}, "44": {"stimulus": 31, "trial": 44, "rt": 935, "response": "Alpha"}, "45": {"stimulus": 2, "trial": 45, "rt": 3355, "response": "Beta"}, "28": {"stimulus": 53, "trial": 28, "rt": 1385, "response": "Beta"}, "29": {"stimulus": 39, "trial": 29, "rt": 910, "response": "Alpha"}, "40": {"stimulus": 63, "trial": 40, "rt": 1528, "response": "Beta"}, "41": {"stimulus": 75, "trial": 41, "rt": 1256, "response": "Alpha"}, "1": {"stimulus": 68, "trial": 1, "rt": 4685, "response": "Alpha"}, "0": {"stimulus": 6, "trial": 0, "rt": 2120, "response": "Alpha"}, "3": {"stimulus": 20, "trial": 3, "rt": 762, "response": "Beta"}, "2": {"stimulus": 4, "trial": 2, "rt": 1482, "response": "Beta"}, "5": {"stimulus": 28, "trial": 5, "rt": 778, "response": "Beta"}, "4": {"stimulus": 32, "trial": 4, "rt": 1143, "response": "Alpha"}, "7": {"stimulus": 42, "trial": 7, "rt": 941, "response": "Alpha"}, "6": {"stimulus": 7, "trial": 6, "rt": 1707, "response": "Alpha"}, "9": {"stimulus": 41, "trial": 9, "rt": 1839, "response": "Alpha"}, "8": {"stimulus": 73, "trial": 8, "rt": 1463, "response": "Beta"}, "78": {"stimulus": 33, "trial": 78, "rt": 1053, "response": "Beta"}, "51": {"stimulus": 15, "trial": 51, "rt": 1191, "response": "Beta"}, "39": {"stimulus": 8, "trial": 39, "rt": 993, "response": "Beta"}, "65": {"stimulus": 71, "trial": 65, "rt": 788, "response": "Beta"}, "76": {"stimulus": 77, "trial": 76, "rt": 1167, "response": "Beta"}, "75": {"stimulus": 12, "trial": 75, "rt": 1743, "response": "Alpha"}, "38": {"stimulus": 23, "trial": 38, "rt": 2807, "response": "Beta"}, "73": {"stimulus": 47, "trial": 73, "rt": 1509, "response": "Beta"}, "72": {"stimulus": 80, "trial": 72, "rt": 1326, "response": "Beta"}, "71": {"stimulus": 59, "trial": 71, "rt": 1622, "response": "Alpha"}, "70": {"stimulus": 25, "trial": 70, "rt": 1023, "response": "Beta"}, "59": {"stimulus": 11, "trial": 59, "rt": 1131, "response": "Beta"}, "79": {"stimulus": 64, "trial": 79, "rt": 1374, "response": "Beta"}, "58": {"stimulus": 49, "trial": 58, "rt": 611, "response": "Alpha"}, "11": {"stimulus": 19, "trial": 11, "rt": 696, "response": "Beta"}, "10": {"stimulus": 38, "trial": 10, "rt": 1090, "response": "Beta"}, "13": {"stimulus": 55, "trial": 13, "rt": 1216, "response": "Beta"}, "12": {"stimulus": 40, "trial": 12, "rt": 1417, "response": "Beta"}, "15": {"stimulus": 30, "trial": 15, "rt": 1066, "response": "Beta"}, "14": {"stimulus": 37, "trial": 14, "rt": 1050, "response": "Beta"}, "17": {"stimulus": 66, "trial": 17, "rt": 1130, "response": "Beta"}, "16": {"stimulus": 27, "trial": 16, "rt": 650, "response": "Beta"}, "19": {"stimulus": 9, "trial": 19, "rt": 1004, "response": "Beta"}, "18": {"stimulus": 22, "trial": 18, "rt": 1495, "response": "Alpha"}, "31": {"stimulus": 46, "trial": 31, "rt": 1386, "response": "Beta"}, "30": {"stimulus": 43, "trial": 30, "rt": 1823, "response": "Beta"}, "37": {"stimulus": 56, "trial": 37, "rt": 1369, "response": "Alpha"}, "36": {"stimulus": 10, "trial": 36, "rt": 831, "response": "Beta"}, "35": {"stimulus": 45, "trial": 35, "rt": 699, "response": "Beta"}, "34": {"stimulus": 54, "trial": 34, "rt": 890, "response": "Beta"}, "33": {"stimulus": 13, "trial": 33, "rt": 1269, "response": "Alpha"}, "55": {"stimulus": 50, "trial": 55, "rt": 1036, "response": "Alpha"}, "74": {"stimulus": 61, "trial": 74, "rt": 911, "response": "Beta"}, "32": {"stimulus": 36, "trial": 32, "rt": 774, "response": "Beta"}, "57": {"stimulus": 58, "trial": 57, "rt": 851, "response": "Alpha"}, "50": {"stimulus": 48, "trial": 50, "rt": 632, "response": "Alpha"}}, "experiment": {"Paradigm": "TACL", "Stimuli": "Size-Color Squares", "Experiment": "Generating-Multiple-Categories"}, "submit": {"timeTotal": 401908, "age": "37", "comments": "", "sex": "male"}}