{"info": {"finish": 1534980283768, "participant": 14, "exposed": true, "lab": true, "start": 1534980095782, "counterbalance": 7, "gentype": 0, "condition": "Middle", "browser": {"platform": "MacIntel", "userAgent": "Mozilla/5.0 (Macintosh; Intel Mac OS X 10.13; rv:61.0) Gecko/20100101 Firefox/61.0"}}, "observation": {"11": {"stimulus": 30, "trial": 11, "rt": 1410}, "10": {"stimulus": 32, "trial": 10, "rt": 1363}, "1": {"stimulus": 30, "trial": 1, "rt": 1208}, "0": {"stimulus": 48, "trial": 0, "rt": 2000}, "3": {"stimulus": 32, "trial": 3, "rt": 1333}, "2": {"stimulus": 50, "trial": 2, "rt": 1377}, "5": {"stimulus": 50, "trial": 5, "rt": 1368}, "4": {"stimulus": 48, "trial": 4, "rt": 1160}, "7": {"stimulus": 32, "trial": 7, "rt": 1325}, "6": {"stimulus": 30, "trial": 6, "rt": 1405}, "9": {"stimulus": 48, "trial": 9, "rt": 1428}, "8": {"stimulus": 50, "trial": 8, "rt": 1258}}, "generation": {"1": {"category": "Not-Alpha", "trial": 1, "stimulus": 79, "rt": 2265}, "0": {"category": "Not-Alpha", "trial": 0, "stimulus": 11, "rt": 2310}, "3": {"category": "Not-Alpha", "trial": 3, "stimulus": 10, "rt": 2401}, "2": {"category": "Not-Alpha", "trial": 2, "stimulus": 50, "rt": 2011}, "5": {"category": "Not-Alpha", "trial": 5, "stimulus": 69, "rt": 4626}, "4": {"category": "Not-Alpha", "trial": 4, "stimulus": 60, "rt": 3061}, "7": {"category": "Not-Alpha", "trial": 7, "stimulus": 6, "rt": 6864}, "6": {"category": "Not-Alpha", "trial": 6, "stimulus": 1, "rt": 3025}}, "generalization": {"56": {"stimulus": 22, "trial": 56, "rt": 305, "response": "Beta"}, "77": {"stimulus": 25, "trial": 77, "rt": 247, "response": "Beta"}, "54": {"stimulus": 66, "trial": 54, "rt": 350, "response": "Beta"}, "42": {"stimulus": 15, "trial": 42, "rt": 268, "response": "Beta"}, "48": {"stimulus": 49, "trial": 48, "rt": 651, "response": "Beta"}, "43": {"stimulus": 16, "trial": 43, "rt": 335, "response": "Beta"}, "60": {"stimulus": 78, "trial": 60, "rt": 516, "response": "Beta"}, "61": {"stimulus": 74, "trial": 61, "rt": 307, "response": "Beta"}, "62": {"stimulus": 19, "trial": 62, "rt": 368, "response": "Beta"}, "63": {"stimulus": 9, "trial": 63, "rt": 353, "response": "Beta"}, "64": {"stimulus": 18, "trial": 64, "rt": 359, "response": "Beta"}, "49": {"stimulus": 55, "trial": 49, "rt": 464, "response": "Beta"}, "66": {"stimulus": 7, "trial": 66, "rt": 454, "response": "Beta"}, "67": {"stimulus": 30, "trial": 67, "rt": 291, "response": "Beta"}, "68": {"stimulus": 12, "trial": 68, "rt": 466, "response": "Beta"}, "69": {"stimulus": 3, "trial": 69, "rt": 2204, "response": "Beta"}, "80": {"stimulus": 53, "trial": 80, "rt": 370, "response": "Beta"}, "52": {"stimulus": 13, "trial": 52, "rt": 300, "response": "Beta"}, "53": {"stimulus": 77, "trial": 53, "rt": 233, "response": "Beta"}, "24": {"stimulus": 63, "trial": 24, "rt": 327, "response": "Beta"}, "25": {"stimulus": 23, "trial": 25, "rt": 314, "response": "Beta"}, "26": {"stimulus": 43, "trial": 26, "rt": 281, "response": "Beta"}, "27": {"stimulus": 51, "trial": 27, "rt": 1673, "response": "Beta"}, "20": {"stimulus": 35, "trial": 20, "rt": 191, "response": "Beta"}, "21": {"stimulus": 37, "trial": 21, "rt": 556, "response": "Beta"}, "22": {"stimulus": 71, "trial": 22, "rt": 230, "response": "Beta"}, "23": {"stimulus": 27, "trial": 23, "rt": 491, "response": "Beta"}, "46": {"stimulus": 39, "trial": 46, "rt": 420, "response": "Beta"}, "47": {"stimulus": 56, "trial": 47, "rt": 425, "response": "Beta"}, "44": {"stimulus": 4, "trial": 44, "rt": 582, "response": "Beta"}, "45": {"stimulus": 62, "trial": 45, "rt": 356, "response": "Beta"}, "28": {"stimulus": 52, "trial": 28, "rt": 379, "response": "Beta"}, "29": {"stimulus": 68, "trial": 29, "rt": 312, "response": "Beta"}, "40": {"stimulus": 75, "trial": 40, "rt": 182, "response": "Beta"}, "41": {"stimulus": 70, "trial": 41, "rt": 528, "response": "Beta"}, "1": {"stimulus": 24, "trial": 1, "rt": 1669, "response": "Beta"}, "0": {"stimulus": 73, "trial": 0, "rt": 1694, "response": "Beta"}, "3": {"stimulus": 54, "trial": 3, "rt": 381, "response": "Beta"}, "2": {"stimulus": 65, "trial": 2, "rt": 364, "response": "Beta"}, "5": {"stimulus": 69, "trial": 5, "rt": 216, "response": "Beta"}, "4": {"stimulus": 8, "trial": 4, "rt": 254, "response": "Beta"}, "7": {"stimulus": 28, "trial": 7, "rt": 326, "response": "Beta"}, "6": {"stimulus": 61, "trial": 6, "rt": 305, "response": "Beta"}, "9": {"stimulus": 38, "trial": 9, "rt": 199, "response": "Beta"}, "8": {"stimulus": 79, "trial": 8, "rt": 264, "response": "Beta"}, "78": {"stimulus": 40, "trial": 78, "rt": 415, "response": "Beta"}, "51": {"stimulus": 2, "trial": 51, "rt": 226, "response": "Beta"}, "39": {"stimulus": 14, "trial": 39, "rt": 383, "response": "Beta"}, "65": {"stimulus": 33, "trial": 65, "rt": 378, "response": "Beta"}, "76": {"stimulus": 10, "trial": 76, "rt": 355, "response": "Beta"}, "75": {"stimulus": 6, "trial": 75, "rt": 353, "response": "Beta"}, "38": {"stimulus": 17, "trial": 38, "rt": 192, "response": "Beta"}, "73": {"stimulus": 21, "trial": 73, "rt": 230, "response": "Beta"}, "72": {"stimulus": 50, "trial": 72, "rt": 546, "response": "Beta"}, "71": {"stimulus": 36, "trial": 71, "rt": 366, "response": "Beta"}, "70": {"stimulus": 67, "trial": 70, "rt": 628, "response": "Beta"}, "59": {"stimulus": 32, "trial": 59, "rt": 338, "response": "Beta"}, "79": {"stimulus": 48, "trial": 79, "rt": 831, "response": "Beta"}, "58": {"stimulus": 44, "trial": 58, "rt": 502, "response": "Beta"}, "11": {"stimulus": 76, "trial": 11, "rt": 180, "response": "Beta"}, "10": {"stimulus": 1, "trial": 10, "rt": 258, "response": "Beta"}, "13": {"stimulus": 47, "trial": 13, "rt": 217, "response": "Beta"}, "12": {"stimulus": 20, "trial": 12, "rt": 229, "response": "Beta"}, "15": {"stimulus": 64, "trial": 15, "rt": 184, "response": "Beta"}, "14": {"stimulus": 80, "trial": 14, "rt": 288, "response": "Beta"}, "17": {"stimulus": 59, "trial": 17, "rt": 173, "response": "Beta"}, "16": {"stimulus": 41, "trial": 16, "rt": 198, "response": "Beta"}, "19": {"stimulus": 72, "trial": 19, "rt": 131, "response": "Beta"}, "18": {"stimulus": 34, "trial": 18, "rt": 224, "response": "Beta"}, "31": {"stimulus": 60, "trial": 31, "rt": 209, "response": "Beta"}, "30": {"stimulus": 57, "trial": 30, "rt": 223, "response": "Beta"}, "37": {"stimulus": 58, "trial": 37, "rt": 289, "response": "Beta"}, "36": {"stimulus": 26, "trial": 36, "rt": 258, "response": "Beta"}, "35": {"stimulus": 45, "trial": 35, "rt": 215, "response": "Beta"}, "34": {"stimulus": 0, "trial": 34, "rt": 475, "response": "Beta"}, "33": {"stimulus": 31, "trial": 33, "rt": 216, "response": "Beta"}, "55": {"stimulus": 5, "trial": 55, "rt": 488, "response": "Beta"}, "74": {"stimulus": 29, "trial": 74, "rt": 379, "response": "Beta"}, "32": {"stimulus": 42, "trial": 32, "rt": 147, "response": "Beta"}, "57": {"stimulus": 46, "trial": 57, "rt": 280, "response": "Beta"}, "50": {"stimulus": 11, "trial": 50, "rt": 298, "response": "Beta"}}, "experiment": {"Paradigm": "TACL", "Stimuli": "Size-Color Squares", "Experiment": "Generating-Multiple-Categories"}, "submit": {"timeTotal": 188069, "age": "23", "comments": "3", "sex": "2"}}