{"info": {"finish": 1535383607139, "participant": 141, "exposed": true, "lab": false, "start": 1535383321108, "counterbalance": 7, "gentype": 0, "condition": "Bottom", "browser": {"platform": "Win32", "userAgent": "Mozilla/5.0 (Windows NT 10.0; Win64; x64) AppleWebKit/537.36 (KHTML, like Gecko) Chrome/68.0.3440.106 Safari/537.36"}}, "observation": {"11": {"stimulus": 30, "trial": 11, "rt": 1408}, "10": {"stimulus": 14, "trial": 10, "rt": 1423}, "1": {"stimulus": 14, "trial": 1, "rt": 2777}, "0": {"stimulus": 30, "trial": 0, "rt": 4173}, "3": {"stimulus": 12, "trial": 3, "rt": 2238}, "2": {"stimulus": 32, "trial": 2, "rt": 2254}, "5": {"stimulus": 14, "trial": 5, "rt": 1470}, "4": {"stimulus": 30, "trial": 4, "rt": 1943}, "7": {"stimulus": 32, "trial": 7, "rt": 2290}, "6": {"stimulus": 12, "trial": 6, "rt": 2577}, "9": {"stimulus": 12, "trial": 9, "rt": 1946}, "8": {"stimulus": 32, "trial": 8, "rt": 2012}}, "generation": {"1": {"category": "Not-Alpha", "trial": 1, "stimulus": 8, "rt": 6250}, "0": {"category": "Not-Alpha", "trial": 0, "stimulus": 71, "rt": 12659}, "3": {"category": "Not-Alpha", "trial": 3, "stimulus": 0, "rt": 4371}, "2": {"category": "Not-Alpha", "trial": 2, "stimulus": 7, "rt": 5314}, "5": {"category": "Not-Alpha", "trial": 5, "stimulus": 79, "rt": 3775}, "4": {"category": "Not-Alpha", "trial": 4, "stimulus": 72, "rt": 4053}, "7": {"category": "Not-Alpha", "trial": 7, "stimulus": 6, "rt": 4147}, "6": {"category": "Not-Alpha", "trial": 6, "stimulus": 77, "rt": 11949}}, "generalization": {"56": {"stimulus": 60, "trial": 56, "rt": 551, "response": "Beta"}, "77": {"stimulus": 49, "trial": 77, "rt": 824, "response": "Alpha"}, "54": {"stimulus": 21, "trial": 54, "rt": 811, "response": "Alpha"}, "42": {"stimulus": 28, "trial": 42, "rt": 1240, "response": "Beta"}, "48": {"stimulus": 34, "trial": 48, "rt": 528, "response": "Beta"}, "43": {"stimulus": 38, "trial": 43, "rt": 740, "response": "Alpha"}, "60": {"stimulus": 10, "trial": 60, "rt": 694, "response": "Beta"}, "61": {"stimulus": 72, "trial": 61, "rt": 568, "response": "Beta"}, "62": {"stimulus": 6, "trial": 62, "rt": 1388, "response": "Beta"}, "63": {"stimulus": 65, "trial": 63, "rt": 599, "response": "Beta"}, "64": {"stimulus": 8, "trial": 64, "rt": 555, "response": "Beta"}, "49": {"stimulus": 43, "trial": 49, "rt": 580, "response": "Beta"}, "66": {"stimulus": 54, "trial": 66, "rt": 791, "response": "Beta"}, "67": {"stimulus": 77, "trial": 67, "rt": 1300, "response": "Alpha"}, "68": {"stimulus": 52, "trial": 68, "rt": 793, "response": "Beta"}, "69": {"stimulus": 0, "trial": 69, "rt": 716, "response": "Beta"}, "80": {"stimulus": 71, "trial": 80, "rt": 566, "response": "Beta"}, "52": {"stimulus": 70, "trial": 52, "rt": 716, "response": "Beta"}, "53": {"stimulus": 73, "trial": 53, "rt": 787, "response": "Beta"}, "24": {"stimulus": 26, "trial": 24, "rt": 598, "response": "Beta"}, "25": {"stimulus": 64, "trial": 25, "rt": 559, "response": "Beta"}, "26": {"stimulus": 59, "trial": 26, "rt": 1006, "response": "Beta"}, "27": {"stimulus": 39, "trial": 27, "rt": 740, "response": "Alpha"}, "20": {"stimulus": 32, "trial": 20, "rt": 919, "response": "Alpha"}, "21": {"stimulus": 20, "trial": 21, "rt": 949, "response": "Alpha"}, "22": {"stimulus": 48, "trial": 22, "rt": 1037, "response": "Alpha"}, "23": {"stimulus": 5, "trial": 23, "rt": 1777, "response": "Beta"}, "46": {"stimulus": 47, "trial": 46, "rt": 1156, "response": "Alpha"}, "47": {"stimulus": 57, "trial": 47, "rt": 942, "response": "Beta"}, "44": {"stimulus": 12, "trial": 44, "rt": 998, "response": "Beta"}, "45": {"stimulus": 35, "trial": 45, "rt": 591, "response": "Beta"}, "28": {"stimulus": 50, "trial": 28, "rt": 1073, "response": "Alpha"}, "29": {"stimulus": 56, "trial": 29, "rt": 1392, "response": "Beta"}, "40": {"stimulus": 79, "trial": 40, "rt": 669, "response": "Beta"}, "41": {"stimulus": 75, "trial": 41, "rt": 692, "response": "Beta"}, "1": {"stimulus": 45, "trial": 1, "rt": 2404, "response": "Beta"}, "0": {"stimulus": 68, "trial": 0, "rt": 2293, "response": "Beta"}, "3": {"stimulus": 29, "trial": 3, "rt": 2366, "response": "Beta"}, "2": {"stimulus": 14, "trial": 2, "rt": 1390, "response": "Alpha"}, "5": {"stimulus": 1, "trial": 5, "rt": 2009, "response": "Alpha"}, "4": {"stimulus": 76, "trial": 4, "rt": 1086, "response": "Beta"}, "7": {"stimulus": 61, "trial": 7, "rt": 967, "response": "Beta"}, "6": {"stimulus": 3, "trial": 6, "rt": 1038, "response": "Alpha"}, "9": {"stimulus": 46, "trial": 9, "rt": 881, "response": "Beta"}, "8": {"stimulus": 31, "trial": 8, "rt": 927, "response": "Alpha"}, "78": {"stimulus": 7, "trial": 78, "rt": 660, "response": "Beta"}, "51": {"stimulus": 30, "trial": 51, "rt": 825, "response": "Alpha"}, "39": {"stimulus": 4, "trial": 39, "rt": 917, "response": "Alpha"}, "65": {"stimulus": 78, "trial": 65, "rt": 834, "response": "Beta"}, "76": {"stimulus": 24, "trial": 76, "rt": 659, "response": "Beta"}, "75": {"stimulus": 27, "trial": 75, "rt": 741, "response": "Beta"}, "38": {"stimulus": 62, "trial": 38, "rt": 523, "response": "Beta"}, "73": {"stimulus": 69, "trial": 73, "rt": 646, "response": "Beta"}, "72": {"stimulus": 58, "trial": 72, "rt": 707, "response": "Alpha"}, "71": {"stimulus": 11, "trial": 71, "rt": 932, "response": "Alpha"}, "70": {"stimulus": 18, "trial": 70, "rt": 752, "response": "Beta"}, "59": {"stimulus": 2, "trial": 59, "rt": 785, "response": "Beta"}, "79": {"stimulus": 53, "trial": 79, "rt": 612, "response": "Beta"}, "58": {"stimulus": 16, "trial": 58, "rt": 662, "response": "Beta"}, "11": {"stimulus": 36, "trial": 11, "rt": 769, "response": "Beta"}, "10": {"stimulus": 13, "trial": 10, "rt": 787, "response": "Alpha"}, "13": {"stimulus": 23, "trial": 13, "rt": 943, "response": "Alpha"}, "12": {"stimulus": 74, "trial": 12, "rt": 793, "response": "Beta"}, "15": {"stimulus": 63, "trial": 15, "rt": 929, "response": "Beta"}, "14": {"stimulus": 25, "trial": 14, "rt": 794, "response": "Beta"}, "17": {"stimulus": 41, "trial": 17, "rt": 1170, "response": "Alpha"}, "16": {"stimulus": 67, "trial": 16, "rt": 613, "response": "Beta"}, "19": {"stimulus": 37, "trial": 19, "rt": 1052, "response": "Alpha"}, "18": {"stimulus": 55, "trial": 18, "rt": 752, "response": "Beta"}, "31": {"stimulus": 80, "trial": 31, "rt": 551, "response": "Beta"}, "30": {"stimulus": 42, "trial": 30, "rt": 1030, "response": "Beta"}, "37": {"stimulus": 17, "trial": 37, "rt": 664, "response": "Beta"}, "36": {"stimulus": 66, "trial": 36, "rt": 927, "response": "Beta"}, "35": {"stimulus": 51, "trial": 35, "rt": 1036, "response": "Beta"}, "34": {"stimulus": 40, "trial": 34, "rt": 787, "response": "Alpha"}, "33": {"stimulus": 15, "trial": 33, "rt": 1176, "response": "Beta"}, "55": {"stimulus": 33, "trial": 55, "rt": 900, "response": "Beta"}, "74": {"stimulus": 19, "trial": 74, "rt": 706, "response": "Beta"}, "32": {"stimulus": 9, "trial": 32, "rt": 708, "response": "Beta"}, "57": {"stimulus": 22, "trial": 57, "rt": 862, "response": "Alpha"}, "50": {"stimulus": 44, "trial": 50, "rt": 709, "response": "Beta"}}, "experiment": {"Paradigm": "TACL", "Stimuli": "Size-Color Squares", "Experiment": "Generating-Multiple-Categories"}, "submit": {"timeTotal": 286351, "age": "28", "comments": "It was fun but I wish I knew which ones I answered correctly. ", "sex": "female"}}