{"info": {"finish": 1535384775183, "participant": 143, "exposed": true, "lab": false, "start": 1535384438581, "counterbalance": 2, "gentype": 0, "condition": "Bottom", "browser": {"platform": "Win32", "userAgent": "Mozilla/5.0 (Windows NT 10.0; Win64; x64) AppleWebKit/537.36 (KHTML, like Gecko) Chrome/68.0.3440.106 Safari/537.36"}}, "observation": {"11": {"stimulus": 14, "trial": 11, "rt": 1485}, "10": {"stimulus": 32, "trial": 10, "rt": 1816}, "1": {"stimulus": 14, "trial": 1, "rt": 1883}, "0": {"stimulus": 12, "trial": 0, "rt": 2542}, "3": {"stimulus": 32, "trial": 3, "rt": 1611}, "2": {"stimulus": 30, "trial": 2, "rt": 1734}, "5": {"stimulus": 14, "trial": 5, "rt": 15519}, "4": {"stimulus": 32, "trial": 4, "rt": 1572}, "7": {"stimulus": 12, "trial": 7, "rt": 1426}, "6": {"stimulus": 30, "trial": 6, "rt": 2343}, "9": {"stimulus": 30, "trial": 9, "rt": 2136}, "8": {"stimulus": 12, "trial": 8, "rt": 1619}}, "generation": {"1": {"category": "Not-Alpha", "trial": 1, "stimulus": 79, "rt": 22397}, "0": {"category": "Not-Alpha", "trial": 0, "stimulus": 80, "rt": 17159}, "3": {"category": "Not-Alpha", "trial": 3, "stimulus": 77, "rt": 4808}, "2": {"category": "Not-Alpha", "trial": 2, "stimulus": 78, "rt": 5753}, "5": {"category": "Not-Alpha", "trial": 5, "stimulus": 75, "rt": 4439}, "4": {"category": "Not-Alpha", "trial": 4, "stimulus": 76, "rt": 3426}, "7": {"category": "Not-Alpha", "trial": 7, "stimulus": 72, "rt": 3165}, "6": {"category": "Not-Alpha", "trial": 6, "stimulus": 74, "rt": 3070}}, "generalization": {"56": {"stimulus": 5, "trial": 56, "rt": 595, "response": "Alpha"}, "77": {"stimulus": 15, "trial": 77, "rt": 441, "response": "Alpha"}, "54": {"stimulus": 44, "trial": 54, "rt": 491, "response": "Alpha"}, "42": {"stimulus": 16, "trial": 42, "rt": 988, "response": "Alpha"}, "48": {"stimulus": 8, "trial": 48, "rt": 1117, "response": "Alpha"}, "43": {"stimulus": 3, "trial": 43, "rt": 673, "response": "Alpha"}, "60": {"stimulus": 23, "trial": 60, "rt": 1115, "response": "Alpha"}, "61": {"stimulus": 12, "trial": 61, "rt": 1063, "response": "Alpha"}, "62": {"stimulus": 34, "trial": 62, "rt": 1053, "response": "Alpha"}, "63": {"stimulus": 77, "trial": 63, "rt": 1092, "response": "Beta"}, "64": {"stimulus": 43, "trial": 64, "rt": 715, "response": "Alpha"}, "49": {"stimulus": 10, "trial": 49, "rt": 475, "response": "Alpha"}, "66": {"stimulus": 27, "trial": 66, "rt": 7358, "response": "Alpha"}, "67": {"stimulus": 7, "trial": 67, "rt": 701, "response": "Alpha"}, "68": {"stimulus": 30, "trial": 68, "rt": 450, "response": "Alpha"}, "69": {"stimulus": 42, "trial": 69, "rt": 508, "response": "Alpha"}, "80": {"stimulus": 24, "trial": 80, "rt": 602, "response": "Alpha"}, "52": {"stimulus": 2, "trial": 52, "rt": 841, "response": "Alpha"}, "53": {"stimulus": 31, "trial": 53, "rt": 514, "response": "Alpha"}, "24": {"stimulus": 14, "trial": 24, "rt": 1184, "response": "Alpha"}, "25": {"stimulus": 17, "trial": 25, "rt": 554, "response": "Alpha"}, "26": {"stimulus": 62, "trial": 26, "rt": 1730, "response": "Beta"}, "27": {"stimulus": 40, "trial": 27, "rt": 813, "response": "Alpha"}, "20": {"stimulus": 65, "trial": 20, "rt": 1780, "response": "Beta"}, "21": {"stimulus": 13, "trial": 21, "rt": 729, "response": "Alpha"}, "22": {"stimulus": 71, "trial": 22, "rt": 803, "response": "Beta"}, "23": {"stimulus": 54, "trial": 23, "rt": 964, "response": "Alpha"}, "46": {"stimulus": 25, "trial": 46, "rt": 449, "response": "Alpha"}, "47": {"stimulus": 70, "trial": 47, "rt": 801, "response": "Beta"}, "44": {"stimulus": 36, "trial": 44, "rt": 748, "response": "Alpha"}, "45": {"stimulus": 33, "trial": 45, "rt": 482, "response": "Alpha"}, "28": {"stimulus": 55, "trial": 28, "rt": 922, "response": "Alpha"}, "29": {"stimulus": 1, "trial": 29, "rt": 552, "response": "Alpha"}, "40": {"stimulus": 78, "trial": 40, "rt": 828, "response": "Beta"}, "41": {"stimulus": 76, "trial": 41, "rt": 1056, "response": "Beta"}, "1": {"stimulus": 38, "trial": 1, "rt": 1290, "response": "Beta"}, "0": {"stimulus": 61, "trial": 0, "rt": 2374, "response": "Alpha"}, "3": {"stimulus": 57, "trial": 3, "rt": 1025, "response": "Beta"}, "2": {"stimulus": 67, "trial": 2, "rt": 1130, "response": "Alpha"}, "5": {"stimulus": 66, "trial": 5, "rt": 644, "response": "Beta"}, "4": {"stimulus": 58, "trial": 4, "rt": 738, "response": "Beta"}, "7": {"stimulus": 19, "trial": 7, "rt": 1035, "response": "Alpha"}, "6": {"stimulus": 75, "trial": 6, "rt": 682, "response": "Beta"}, "9": {"stimulus": 53, "trial": 9, "rt": 866, "response": "Alpha"}, "8": {"stimulus": 32, "trial": 8, "rt": 985, "response": "Alpha"}, "78": {"stimulus": 22, "trial": 78, "rt": 448, "response": "Alpha"}, "51": {"stimulus": 69, "trial": 51, "rt": 1119, "response": "Beta"}, "39": {"stimulus": 9, "trial": 39, "rt": 509, "response": "Alpha"}, "65": {"stimulus": 21, "trial": 65, "rt": 451, "response": "Alpha"}, "76": {"stimulus": 47, "trial": 76, "rt": 988, "response": "Alpha"}, "75": {"stimulus": 64, "trial": 75, "rt": 860, "response": "Beta"}, "38": {"stimulus": 0, "trial": 38, "rt": 528, "response": "Alpha"}, "73": {"stimulus": 79, "trial": 73, "rt": 840, "response": "Beta"}, "72": {"stimulus": 29, "trial": 72, "rt": 666, "response": "Alpha"}, "71": {"stimulus": 51, "trial": 71, "rt": 6345, "response": "Alpha"}, "70": {"stimulus": 11, "trial": 70, "rt": 487, "response": "Alpha"}, "59": {"stimulus": 37, "trial": 59, "rt": 804, "response": "Alpha"}, "79": {"stimulus": 59, "trial": 79, "rt": 1236, "response": "Alpha"}, "58": {"stimulus": 68, "trial": 58, "rt": 1088, "response": "Beta"}, "11": {"stimulus": 72, "trial": 11, "rt": 684, "response": "Beta"}, "10": {"stimulus": 74, "trial": 10, "rt": 578, "response": "Beta"}, "13": {"stimulus": 39, "trial": 13, "rt": 658, "response": "Alpha"}, "12": {"stimulus": 48, "trial": 12, "rt": 1019, "response": "Alpha"}, "15": {"stimulus": 46, "trial": 15, "rt": 628, "response": "Alpha"}, "14": {"stimulus": 6, "trial": 14, "rt": 762, "response": "Alpha"}, "17": {"stimulus": 50, "trial": 17, "rt": 1483, "response": "Alpha"}, "16": {"stimulus": 45, "trial": 16, "rt": 587, "response": "Alpha"}, "19": {"stimulus": 73, "trial": 19, "rt": 828, "response": "Beta"}, "18": {"stimulus": 41, "trial": 18, "rt": 463, "response": "Alpha"}, "31": {"stimulus": 63, "trial": 31, "rt": 836, "response": "Beta"}, "30": {"stimulus": 35, "trial": 30, "rt": 577, "response": "Alpha"}, "37": {"stimulus": 60, "trial": 37, "rt": 418, "response": "Alpha"}, "36": {"stimulus": 49, "trial": 36, "rt": 585, "response": "Alpha"}, "35": {"stimulus": 28, "trial": 35, "rt": 459, "response": "Alpha"}, "34": {"stimulus": 18, "trial": 34, "rt": 626, "response": "Alpha"}, "33": {"stimulus": 4, "trial": 33, "rt": 674, "response": "Alpha"}, "55": {"stimulus": 80, "trial": 55, "rt": 946, "response": "Beta"}, "74": {"stimulus": 26, "trial": 74, "rt": 690, "response": "Alpha"}, "32": {"stimulus": 20, "trial": 32, "rt": 571, "response": "Alpha"}, "57": {"stimulus": 52, "trial": 57, "rt": 7289, "response": "Alpha"}, "50": {"stimulus": 56, "trial": 50, "rt": 1003, "response": "Beta"}}, "experiment": {"Paradigm": "TACL", "Stimuli": "Size-Color Squares", "Experiment": "Generating-Multiple-Categories"}, "submit": {"timeTotal": 336863, "age": "39", "comments": "No comments!", "sex": "male"}}