{"info": {"finish": 1535387782413, "participant": 144, "exposed": true, "lab": false, "start": 1535387372686, "counterbalance": 7, "gentype": 1, "condition": "Bottom", "browser": {"platform": "Win32", "userAgent": "Mozilla/5.0 (Windows NT 10.0; WOW64) AppleWebKit/537.36 (KHTML, like Gecko) Chrome/65.0.3325.183 Safari/537.36 Vivaldi/1.96.1147.64"}}, "observation": {"11": {"stimulus": 14, "trial": 11, "rt": 1622}, "10": {"stimulus": 12, "trial": 10, "rt": 3765}, "1": {"stimulus": 14, "trial": 1, "rt": 2415}, "0": {"stimulus": 12, "trial": 0, "rt": 3397}, "3": {"stimulus": 32, "trial": 3, "rt": 2060}, "2": {"stimulus": 30, "trial": 2, "rt": 1934}, "5": {"stimulus": 14, "trial": 5, "rt": 1603}, "4": {"stimulus": 12, "trial": 4, "rt": 1752}, "7": {"stimulus": 32, "trial": 7, "rt": 1643}, "6": {"stimulus": 30, "trial": 6, "rt": 1719}, "9": {"stimulus": 32, "trial": 9, "rt": 1910}, "8": {"stimulus": 30, "trial": 8, "rt": 2358}}, "generation": {"1": {"category": "Beta", "trial": 1, "stimulus": 8, "rt": 7136}, "0": {"category": "Beta", "trial": 0, "stimulus": 80, "rt": 12580}, "3": {"category": "Beta", "trial": 3, "stimulus": 74, "rt": 5210}, "2": {"category": "Beta", "trial": 2, "stimulus": 75, "rt": 5902}, "5": {"category": "Beta", "trial": 5, "stimulus": 72, "rt": 5656}, "4": {"category": "Beta", "trial": 4, "stimulus": 73, "rt": 4767}, "7": {"category": "Beta", "trial": 7, "stimulus": 77, "rt": 6983}, "6": {"category": "Beta", "trial": 6, "stimulus": 76, "rt": 4265}}, "generalization": {"56": {"stimulus": 77, "trial": 56, "rt": 758, "response": "Beta"}, "77": {"stimulus": 44, "trial": 77, "rt": 801, "response": "Beta"}, "54": {"stimulus": 20, "trial": 54, "rt": 1251, "response": "Beta"}, "42": {"stimulus": 25, "trial": 42, "rt": 1019, "response": "Alpha"}, "48": {"stimulus": 19, "trial": 48, "rt": 1089, "response": "Beta"}, "43": {"stimulus": 2, "trial": 43, "rt": 1225, "response": "Alpha"}, "60": {"stimulus": 43, "trial": 60, "rt": 1167, "response": "Beta"}, "61": {"stimulus": 10, "trial": 61, "rt": 1212, "response": "Alpha"}, "62": {"stimulus": 14, "trial": 62, "rt": 2263, "response": "Alpha"}, "63": {"stimulus": 64, "trial": 63, "rt": 878, "response": "Beta"}, "64": {"stimulus": 34, "trial": 64, "rt": 1009, "response": "Beta"}, "49": {"stimulus": 28, "trial": 49, "rt": 943, "response": "Beta"}, "66": {"stimulus": 46, "trial": 66, "rt": 836, "response": "Beta"}, "67": {"stimulus": 80, "trial": 67, "rt": 2007, "response": "Beta"}, "68": {"stimulus": 70, "trial": 68, "rt": 767, "response": "Beta"}, "69": {"stimulus": 30, "trial": 69, "rt": 4156, "response": "Alpha"}, "80": {"stimulus": 7, "trial": 80, "rt": 1510, "response": "Alpha"}, "52": {"stimulus": 68, "trial": 52, "rt": 782, "response": "Beta"}, "53": {"stimulus": 36, "trial": 53, "rt": 924, "response": "Beta"}, "24": {"stimulus": 23, "trial": 24, "rt": 1542, "response": "Alpha"}, "25": {"stimulus": 21, "trial": 25, "rt": 1101, "response": "Alpha"}, "26": {"stimulus": 76, "trial": 26, "rt": 927, "response": "Beta"}, "27": {"stimulus": 73, "trial": 27, "rt": 818, "response": "Beta"}, "20": {"stimulus": 49, "trial": 20, "rt": 3024, "response": "Beta"}, "21": {"stimulus": 18, "trial": 21, "rt": 1615, "response": "Alpha"}, "22": {"stimulus": 55, "trial": 22, "rt": 864, "response": "Beta"}, "23": {"stimulus": 54, "trial": 23, "rt": 718, "response": "Beta"}, "46": {"stimulus": 35, "trial": 46, "rt": 799, "response": "Beta"}, "47": {"stimulus": 62, "trial": 47, "rt": 675, "response": "Beta"}, "44": {"stimulus": 50, "trial": 44, "rt": 862, "response": "Beta"}, "45": {"stimulus": 27, "trial": 45, "rt": 1009, "response": "Beta"}, "28": {"stimulus": 61, "trial": 28, "rt": 968, "response": "Beta"}, "29": {"stimulus": 75, "trial": 29, "rt": 741, "response": "Beta"}, "40": {"stimulus": 33, "trial": 40, "rt": 820, "response": "Beta"}, "41": {"stimulus": 6, "trial": 41, "rt": 1144, "response": "Alpha"}, "1": {"stimulus": 5, "trial": 1, "rt": 1465, "response": "Alpha"}, "0": {"stimulus": 32, "trial": 0, "rt": 2105, "response": "Alpha"}, "3": {"stimulus": 0, "trial": 3, "rt": 1332, "response": "Alpha"}, "2": {"stimulus": 45, "trial": 2, "rt": 1582, "response": "Beta"}, "5": {"stimulus": 58, "trial": 5, "rt": 1086, "response": "Beta"}, "4": {"stimulus": 78, "trial": 4, "rt": 1333, "response": "Beta"}, "7": {"stimulus": 60, "trial": 7, "rt": 1251, "response": "Beta"}, "6": {"stimulus": 51, "trial": 6, "rt": 1477, "response": "Beta"}, "9": {"stimulus": 37, "trial": 9, "rt": 1147, "response": "Beta"}, "8": {"stimulus": 41, "trial": 8, "rt": 1048, "response": "Beta"}, "78": {"stimulus": 71, "trial": 78, "rt": 717, "response": "Beta"}, "51": {"stimulus": 38, "trial": 51, "rt": 832, "response": "Beta"}, "39": {"stimulus": 63, "trial": 39, "rt": 742, "response": "Beta"}, "65": {"stimulus": 16, "trial": 65, "rt": 1562, "response": "Alpha"}, "76": {"stimulus": 40, "trial": 76, "rt": 1239, "response": "Beta"}, "75": {"stimulus": 26, "trial": 75, "rt": 654, "response": "Beta"}, "38": {"stimulus": 56, "trial": 38, "rt": 720, "response": "Beta"}, "73": {"stimulus": 48, "trial": 73, "rt": 1111, "response": "Beta"}, "72": {"stimulus": 17, "trial": 72, "rt": 2724, "response": "Beta"}, "71": {"stimulus": 53, "trial": 71, "rt": 701, "response": "Beta"}, "70": {"stimulus": 3, "trial": 70, "rt": 1314, "response": "Alpha"}, "59": {"stimulus": 29, "trial": 59, "rt": 1196, "response": "Alpha"}, "79": {"stimulus": 42, "trial": 79, "rt": 661, "response": "Beta"}, "58": {"stimulus": 66, "trial": 58, "rt": 966, "response": "Beta"}, "11": {"stimulus": 4, "trial": 11, "rt": 1451, "response": "Alpha"}, "10": {"stimulus": 59, "trial": 10, "rt": 932, "response": "Beta"}, "13": {"stimulus": 67, "trial": 13, "rt": 1234, "response": "Beta"}, "12": {"stimulus": 1, "trial": 12, "rt": 1085, "response": "Alpha"}, "15": {"stimulus": 65, "trial": 15, "rt": 1126, "response": "Beta"}, "14": {"stimulus": 9, "trial": 14, "rt": 1292, "response": "Alpha"}, "17": {"stimulus": 47, "trial": 17, "rt": 1008, "response": "Beta"}, "16": {"stimulus": 8, "trial": 16, "rt": 1502, "response": "Beta"}, "19": {"stimulus": 24, "trial": 19, "rt": 1716, "response": "Alpha"}, "18": {"stimulus": 22, "trial": 18, "rt": 2115, "response": "Alpha"}, "31": {"stimulus": 11, "trial": 31, "rt": 1429, "response": "Alpha"}, "30": {"stimulus": 72, "trial": 30, "rt": 743, "response": "Beta"}, "37": {"stimulus": 39, "trial": 37, "rt": 1088, "response": "Beta"}, "36": {"stimulus": 52, "trial": 36, "rt": 1212, "response": "Beta"}, "35": {"stimulus": 15, "trial": 35, "rt": 2033, "response": "Alpha"}, "34": {"stimulus": 13, "trial": 34, "rt": 1410, "response": "Alpha"}, "33": {"stimulus": 12, "trial": 33, "rt": 1456, "response": "Alpha"}, "55": {"stimulus": 74, "trial": 55, "rt": 847, "response": "Beta"}, "74": {"stimulus": 69, "trial": 74, "rt": 761, "response": "Beta"}, "32": {"stimulus": 79, "trial": 32, "rt": 848, "response": "Beta"}, "57": {"stimulus": 31, "trial": 57, "rt": 1925, "response": "Alpha"}, "50": {"stimulus": 57, "trial": 50, "rt": 773, "response": "Beta"}}, "experiment": {"Paradigm": "TACL", "Stimuli": "Size-Color Squares", "Experiment": "Generating-Multiple-Categories"}, "submit": {"timeTotal": 409998, "age": "39", "comments": "", "sex": "male"}}