{"info": {"finish": 1535388822026, "participant": 148, "exposed": true, "lab": false, "start": 1535388582559, "counterbalance": 4, "gentype": 1, "condition": "Middle", "browser": {"platform": "Win32", "userAgent": "Mozilla/5.0 (Windows NT 6.3; Win64; x64) AppleWebKit/537.36 (KHTML, like Gecko) Chrome/68.0.3440.106 Safari/537.36"}}, "observation": {"11": {"stimulus": 50, "trial": 11, "rt": 1257}, "10": {"stimulus": 48, "trial": 10, "rt": 1518}, "1": {"stimulus": 30, "trial": 1, "rt": 1468}, "0": {"stimulus": 50, "trial": 0, "rt": 2132}, "3": {"stimulus": 48, "trial": 3, "rt": 1594}, "2": {"stimulus": 32, "trial": 2, "rt": 1369}, "5": {"stimulus": 50, "trial": 5, "rt": 1348}, "4": {"stimulus": 30, "trial": 4, "rt": 1364}, "7": {"stimulus": 32, "trial": 7, "rt": 1388}, "6": {"stimulus": 48, "trial": 6, "rt": 1301}, "9": {"stimulus": 30, "trial": 9, "rt": 1408}, "8": {"stimulus": 32, "trial": 8, "rt": 1299}}, "generation": {"1": {"category": "Beta", "trial": 1, "stimulus": 9, "rt": 5554}, "0": {"category": "Beta", "trial": 0, "stimulus": 1, "rt": 8422}, "3": {"category": "Beta", "trial": 3, "stimulus": 2, "rt": 11105}, "2": {"category": "Beta", "trial": 2, "stimulus": 0, "rt": 4053}, "5": {"category": "Beta", "trial": 5, "stimulus": 20, "rt": 3732}, "4": {"category": "Beta", "trial": 4, "stimulus": 18, "rt": 3634}, "7": {"category": "Beta", "trial": 7, "stimulus": 10, "rt": 4022}, "6": {"category": "Beta", "trial": 6, "stimulus": 11, "rt": 3446}}, "generalization": {"56": {"stimulus": 18, "trial": 56, "rt": 1217, "response": "Beta"}, "77": {"stimulus": 1, "trial": 77, "rt": 849, "response": "Beta"}, "54": {"stimulus": 79, "trial": 54, "rt": 488, "response": "Alpha"}, "42": {"stimulus": 6, "trial": 42, "rt": 464, "response": "Alpha"}, "48": {"stimulus": 38, "trial": 48, "rt": 766, "response": "Beta"}, "43": {"stimulus": 15, "trial": 43, "rt": 446, "response": "Alpha"}, "60": {"stimulus": 24, "trial": 60, "rt": 635, "response": "Alpha"}, "61": {"stimulus": 43, "trial": 61, "rt": 424, "response": "Alpha"}, "62": {"stimulus": 13, "trial": 62, "rt": 506, "response": "Alpha"}, "63": {"stimulus": 60, "trial": 63, "rt": 477, "response": "Alpha"}, "64": {"stimulus": 21, "trial": 64, "rt": 1516, "response": "Beta"}, "49": {"stimulus": 67, "trial": 49, "rt": 596, "response": "Alpha"}, "66": {"stimulus": 51, "trial": 66, "rt": 387, "response": "Alpha"}, "67": {"stimulus": 45, "trial": 67, "rt": 352, "response": "Alpha"}, "68": {"stimulus": 11, "trial": 68, "rt": 469, "response": "Alpha"}, "69": {"stimulus": 41, "trial": 69, "rt": 522, "response": "Alpha"}, "80": {"stimulus": 70, "trial": 80, "rt": 603, "response": "Alpha"}, "52": {"stimulus": 64, "trial": 52, "rt": 1068, "response": "Beta"}, "53": {"stimulus": 23, "trial": 53, "rt": 955, "response": "Alpha"}, "24": {"stimulus": 7, "trial": 24, "rt": 551, "response": "Alpha"}, "25": {"stimulus": 56, "trial": 25, "rt": 796, "response": "Beta"}, "26": {"stimulus": 31, "trial": 26, "rt": 504, "response": "Alpha"}, "27": {"stimulus": 39, "trial": 27, "rt": 543, "response": "Alpha"}, "20": {"stimulus": 54, "trial": 20, "rt": 432, "response": "Beta"}, "21": {"stimulus": 48, "trial": 21, "rt": 1266, "response": "Beta"}, "22": {"stimulus": 62, "trial": 22, "rt": 662, "response": "Alpha"}, "23": {"stimulus": 33, "trial": 23, "rt": 494, "response": "Alpha"}, "46": {"stimulus": 35, "trial": 46, "rt": 667, "response": "Alpha"}, "47": {"stimulus": 72, "trial": 47, "rt": 1655, "response": "Beta"}, "44": {"stimulus": 2, "trial": 44, "rt": 1407, "response": "Beta"}, "45": {"stimulus": 50, "trial": 45, "rt": 476, "response": "Alpha"}, "28": {"stimulus": 30, "trial": 28, "rt": 519, "response": "Alpha"}, "29": {"stimulus": 55, "trial": 29, "rt": 843, "response": "Beta"}, "40": {"stimulus": 49, "trial": 40, "rt": 645, "response": "Alpha"}, "41": {"stimulus": 29, "trial": 41, "rt": 393, "response": "Alpha"}, "1": {"stimulus": 27, "trial": 1, "rt": 825, "response": "Beta"}, "0": {"stimulus": 37, "trial": 0, "rt": 3496, "response": "Beta"}, "3": {"stimulus": 74, "trial": 3, "rt": 554, "response": "Alpha"}, "2": {"stimulus": 69, "trial": 2, "rt": 1018, "response": "Alpha"}, "5": {"stimulus": 75, "trial": 5, "rt": 600, "response": "Alpha"}, "4": {"stimulus": 66, "trial": 4, "rt": 495, "response": "Alpha"}, "7": {"stimulus": 42, "trial": 7, "rt": 1130, "response": "Alpha"}, "6": {"stimulus": 28, "trial": 6, "rt": 2084, "response": "Beta"}, "9": {"stimulus": 4, "trial": 9, "rt": 1190, "response": "Alpha"}, "8": {"stimulus": 10, "trial": 8, "rt": 695, "response": "Beta"}, "78": {"stimulus": 73, "trial": 78, "rt": 1321, "response": "Beta"}, "51": {"stimulus": 40, "trial": 51, "rt": 515, "response": "Alpha"}, "39": {"stimulus": 20, "trial": 39, "rt": 490, "response": "Alpha"}, "65": {"stimulus": 68, "trial": 65, "rt": 648, "response": "Alpha"}, "76": {"stimulus": 57, "trial": 76, "rt": 518, "response": "Alpha"}, "75": {"stimulus": 59, "trial": 75, "rt": 464, "response": "Alpha"}, "38": {"stimulus": 19, "trial": 38, "rt": 1047, "response": "Beta"}, "73": {"stimulus": 47, "trial": 73, "rt": 915, "response": "Alpha"}, "72": {"stimulus": 9, "trial": 72, "rt": 715, "response": "Beta"}, "71": {"stimulus": 5, "trial": 71, "rt": 805, "response": "Alpha"}, "70": {"stimulus": 3, "trial": 70, "rt": 460, "response": "Alpha"}, "59": {"stimulus": 65, "trial": 59, "rt": 523, "response": "Alpha"}, "79": {"stimulus": 80, "trial": 79, "rt": 700, "response": "Alpha"}, "58": {"stimulus": 76, "trial": 58, "rt": 699, "response": "Alpha"}, "11": {"stimulus": 8, "trial": 11, "rt": 712, "response": "Alpha"}, "10": {"stimulus": 77, "trial": 10, "rt": 581, "response": "Alpha"}, "13": {"stimulus": 12, "trial": 13, "rt": 1337, "response": "Alpha"}, "12": {"stimulus": 17, "trial": 12, "rt": 882, "response": "Alpha"}, "15": {"stimulus": 16, "trial": 15, "rt": 508, "response": "Alpha"}, "14": {"stimulus": 26, "trial": 14, "rt": 604, "response": "Alpha"}, "17": {"stimulus": 34, "trial": 17, "rt": 512, "response": "Alpha"}, "16": {"stimulus": 52, "trial": 16, "rt": 501, "response": "Alpha"}, "19": {"stimulus": 63, "trial": 19, "rt": 1609, "response": "Beta"}, "18": {"stimulus": 71, "trial": 18, "rt": 525, "response": "Alpha"}, "31": {"stimulus": 61, "trial": 31, "rt": 625, "response": "Alpha"}, "30": {"stimulus": 58, "trial": 30, "rt": 586, "response": "Alpha"}, "37": {"stimulus": 36, "trial": 37, "rt": 1223, "response": "Beta"}, "36": {"stimulus": 44, "trial": 36, "rt": 408, "response": "Alpha"}, "35": {"stimulus": 14, "trial": 35, "rt": 765, "response": "Alpha"}, "34": {"stimulus": 46, "trial": 34, "rt": 890, "response": "Beta"}, "33": {"stimulus": 22, "trial": 33, "rt": 428, "response": "Alpha"}, "55": {"stimulus": 25, "trial": 55, "rt": 657, "response": "Alpha"}, "74": {"stimulus": 32, "trial": 74, "rt": 462, "response": "Alpha"}, "32": {"stimulus": 78, "trial": 32, "rt": 428, "response": "Alpha"}, "57": {"stimulus": 0, "trial": 57, "rt": 709, "response": "Beta"}, "50": {"stimulus": 53, "trial": 50, "rt": 1910, "response": "Alpha"}}, "experiment": {"Paradigm": "TACL", "Stimuli": "Size-Color Squares", "Experiment": "Generating-Multiple-Categories"}, "submit": {"timeTotal": 239775, "age": "29", "comments": "this was fun thank you", "sex": "female"}}