{"info": {"finish": 1535390988628, "participant": 153, "exposed": true, "lab": false, "start": 1535390705954, "counterbalance": 0, "gentype": 2, "condition": "Bottom", "browser": {"platform": "Win32", "userAgent": "Mozilla/5.0 (Windows NT 10.0; Win64; x64) AppleWebKit/537.36 (KHTML, like Gecko) Chrome/68.0.3440.106 Safari/537.36"}}, "observation": {"11": {"stimulus": 14, "trial": 11, "rt": 5057}, "10": {"stimulus": 12, "trial": 10, "rt": 2882}, "1": {"stimulus": 12, "trial": 1, "rt": 1785}, "0": {"stimulus": 14, "trial": 0, "rt": 8214}, "3": {"stimulus": 32, "trial": 3, "rt": 2450}, "2": {"stimulus": 30, "trial": 2, "rt": 1531}, "5": {"stimulus": 12, "trial": 5, "rt": 1669}, "4": {"stimulus": 14, "trial": 4, "rt": 3458}, "7": {"stimulus": 30, "trial": 7, "rt": 1807}, "6": {"stimulus": 32, "trial": 6, "rt": 1562}, "9": {"stimulus": 30, "trial": 9, "rt": 1884}, "8": {"stimulus": 32, "trial": 8, "rt": 1992}}, "generation": {"1": {"category": "Beta", "trial": 1, "stimulus": 74, "rt": 8177}, "0": {"category": "Beta", "trial": 0, "stimulus": 76, "rt": 7815}, "3": {"category": "Beta", "trial": 3, "stimulus": 80, "rt": 2659}, "2": {"category": "Beta", "trial": 2, "stimulus": 72, "rt": 3382}, "5": {"category": "Gamma", "trial": 5, "stimulus": 8, "rt": 4113}, "4": {"category": "Gamma", "trial": 4, "stimulus": 0, "rt": 5473}, "7": {"category": "Gamma", "trial": 7, "stimulus": 4, "rt": 2478}, "6": {"category": "Gamma", "trial": 6, "stimulus": 6, "rt": 3710}}, "generalization": {"56": {"stimulus": 15, "trial": 56, "rt": 366, "response": "Beta"}, "77": {"stimulus": 26, "trial": 77, "rt": 918, "response": "Alpha"}, "54": {"stimulus": 14, "trial": 54, "rt": 321, "response": "Alpha"}, "42": {"stimulus": 32, "trial": 42, "rt": 543, "response": "Gamma"}, "48": {"stimulus": 56, "trial": 48, "rt": 371, "response": "Alpha"}, "43": {"stimulus": 10, "trial": 43, "rt": 587, "response": "Alpha"}, "60": {"stimulus": 79, "trial": 60, "rt": 1172, "response": "Beta"}, "61": {"stimulus": 13, "trial": 61, "rt": 1631, "response": "Gamma"}, "62": {"stimulus": 44, "trial": 62, "rt": 1099, "response": "Alpha"}, "63": {"stimulus": 64, "trial": 63, "rt": 1235, "response": "Gamma"}, "64": {"stimulus": 53, "trial": 64, "rt": 520, "response": "Beta"}, "49": {"stimulus": 60, "trial": 49, "rt": 583, "response": "Gamma"}, "66": {"stimulus": 6, "trial": 66, "rt": 999, "response": "Gamma"}, "67": {"stimulus": 9, "trial": 67, "rt": 522, "response": "Alpha"}, "68": {"stimulus": 8, "trial": 68, "rt": 1243, "response": "Gamma"}, "69": {"stimulus": 45, "trial": 69, "rt": 505, "response": "Beta"}, "80": {"stimulus": 77, "trial": 80, "rt": 538, "response": "Gamma"}, "52": {"stimulus": 54, "trial": 52, "rt": 411, "response": "Alpha"}, "53": {"stimulus": 68, "trial": 53, "rt": 351, "response": "Beta"}, "24": {"stimulus": 74, "trial": 24, "rt": 1859, "response": "Alpha"}, "25": {"stimulus": 0, "trial": 25, "rt": 1282, "response": "Gamma"}, "26": {"stimulus": 24, "trial": 26, "rt": 5603, "response": "Gamma"}, "27": {"stimulus": 61, "trial": 27, "rt": 1050, "response": "Beta"}, "20": {"stimulus": 22, "trial": 20, "rt": 1266, "response": "Alpha"}, "21": {"stimulus": 70, "trial": 21, "rt": 3901, "response": "Gamma"}, "22": {"stimulus": 71, "trial": 22, "rt": 1036, "response": "Alpha"}, "23": {"stimulus": 51, "trial": 23, "rt": 2153, "response": "Gamma"}, "46": {"stimulus": 49, "trial": 46, "rt": 418, "response": "Beta"}, "47": {"stimulus": 55, "trial": 47, "rt": 2756, "response": "Gamma"}, "44": {"stimulus": 65, "trial": 44, "rt": 422, "response": "Gamma"}, "45": {"stimulus": 7, "trial": 45, "rt": 383, "response": "Beta"}, "28": {"stimulus": 46, "trial": 28, "rt": 1119, "response": "Alpha"}, "29": {"stimulus": 59, "trial": 29, "rt": 541, "response": "Gamma"}, "40": {"stimulus": 69, "trial": 40, "rt": 768, "response": "Gamma"}, "41": {"stimulus": 43, "trial": 41, "rt": 845, "response": "Beta"}, "1": {"stimulus": 80, "trial": 1, "rt": 1024, "response": "Alpha"}, "0": {"stimulus": 2, "trial": 0, "rt": 2235, "response": "Gamma"}, "3": {"stimulus": 42, "trial": 3, "rt": 923, "response": "Beta"}, "2": {"stimulus": 48, "trial": 2, "rt": 535, "response": "Beta"}, "5": {"stimulus": 17, "trial": 5, "rt": 994, "response": "Gamma"}, "4": {"stimulus": 34, "trial": 4, "rt": 748, "response": "Gamma"}, "7": {"stimulus": 25, "trial": 7, "rt": 2415, "response": "Beta"}, "6": {"stimulus": 73, "trial": 6, "rt": 1374, "response": "Alpha"}, "9": {"stimulus": 63, "trial": 9, "rt": 426, "response": "Beta"}, "8": {"stimulus": 27, "trial": 8, "rt": 1328, "response": "Gamma"}, "78": {"stimulus": 50, "trial": 78, "rt": 442, "response": "Gamma"}, "51": {"stimulus": 11, "trial": 51, "rt": 388, "response": "Gamma"}, "39": {"stimulus": 21, "trial": 39, "rt": 848, "response": "Gamma"}, "65": {"stimulus": 29, "trial": 65, "rt": 528, "response": "Gamma"}, "76": {"stimulus": 62, "trial": 76, "rt": 2419, "response": "Gamma"}, "75": {"stimulus": 30, "trial": 75, "rt": 1367, "response": "Alpha"}, "38": {"stimulus": 3, "trial": 38, "rt": 632, "response": "Beta"}, "73": {"stimulus": 52, "trial": 73, "rt": 404, "response": "Beta"}, "72": {"stimulus": 36, "trial": 72, "rt": 466, "response": "Gamma"}, "71": {"stimulus": 40, "trial": 71, "rt": 530, "response": "Alpha"}, "70": {"stimulus": 75, "trial": 70, "rt": 331, "response": "Gamma"}, "59": {"stimulus": 47, "trial": 59, "rt": 1580, "response": "Gamma"}, "79": {"stimulus": 72, "trial": 79, "rt": 603, "response": "Alpha"}, "58": {"stimulus": 28, "trial": 58, "rt": 459, "response": "Alpha"}, "11": {"stimulus": 5, "trial": 11, "rt": 425, "response": "Beta"}, "10": {"stimulus": 12, "trial": 10, "rt": 569, "response": "Beta"}, "13": {"stimulus": 76, "trial": 13, "rt": 1163, "response": "Gamma"}, "12": {"stimulus": 19, "trial": 12, "rt": 584, "response": "Alpha"}, "15": {"stimulus": 35, "trial": 15, "rt": 767, "response": "Alpha"}, "14": {"stimulus": 67, "trial": 14, "rt": 6611, "response": "Gamma"}, "17": {"stimulus": 66, "trial": 17, "rt": 473, "response": "Beta"}, "16": {"stimulus": 39, "trial": 16, "rt": 423, "response": "Gamma"}, "19": {"stimulus": 1, "trial": 19, "rt": 459, "response": "Alpha"}, "18": {"stimulus": 33, "trial": 18, "rt": 384, "response": "Gamma"}, "31": {"stimulus": 20, "trial": 31, "rt": 1003, "response": "Gamma"}, "30": {"stimulus": 4, "trial": 30, "rt": 505, "response": "Beta"}, "37": {"stimulus": 38, "trial": 37, "rt": 2019, "response": "Gamma"}, "36": {"stimulus": 78, "trial": 36, "rt": 1202, "response": "Alpha"}, "35": {"stimulus": 23, "trial": 35, "rt": 473, "response": "Gamma"}, "34": {"stimulus": 31, "trial": 34, "rt": 564, "response": "Beta"}, "33": {"stimulus": 57, "trial": 33, "rt": 974, "response": "Gamma"}, "55": {"stimulus": 58, "trial": 55, "rt": 655, "response": "Gamma"}, "74": {"stimulus": 37, "trial": 74, "rt": 726, "response": "Gamma"}, "32": {"stimulus": 18, "trial": 32, "rt": 687, "response": "Alpha"}, "57": {"stimulus": 16, "trial": 57, "rt": 223, "response": "Gamma"}, "50": {"stimulus": 41, "trial": 50, "rt": 346, "response": "Beta"}}, "experiment": {"Paradigm": "TACL", "Stimuli": "Size-Color Squares", "Experiment": "Generating-Multiple-Categories"}, "submit": {"timeTotal": 283012, "age": "27", "comments": "", "sex": "Male"}}