{"info": {"finish": 1535395102109, "participant": 158, "exposed": true, "lab": false, "start": 1535394180804, "counterbalance": 6, "gentype": 1, "condition": "Middle", "browser": {"platform": "Win32", "userAgent": "Mozilla/5.0 (Windows NT 6.1; Win64; x64) AppleWebKit/537.36 (KHTML, like Gecko) Chrome/68.0.3440.106 Safari/537.36"}}, "observation": {"11": {"stimulus": 48, "trial": 11, "rt": 1456}, "10": {"stimulus": 50, "trial": 10, "rt": 1391}, "1": {"stimulus": 48, "trial": 1, "rt": 1548}, "0": {"stimulus": 50, "trial": 0, "rt": 1746}, "3": {"stimulus": 32, "trial": 3, "rt": 1478}, "2": {"stimulus": 30, "trial": 2, "rt": 1700}, "5": {"stimulus": 32, "trial": 5, "rt": 1507}, "4": {"stimulus": 50, "trial": 4, "rt": 1596}, "7": {"stimulus": 48, "trial": 7, "rt": 3049}, "6": {"stimulus": 30, "trial": 6, "rt": 1400}, "9": {"stimulus": 32, "trial": 9, "rt": 7158}, "8": {"stimulus": 30, "trial": 8, "rt": 3946}}, "generation": {"1": {"category": "Beta", "trial": 1, "stimulus": 40, "rt": 3675}, "0": {"category": "Beta", "trial": 0, "stimulus": 39, "rt": 5821}, "3": {"category": "Beta", "trial": 3, "stimulus": 15, "rt": 7989}, "2": {"category": "Beta", "trial": 2, "stimulus": 8, "rt": 2945}, "5": {"category": "Beta", "trial": 5, "stimulus": 55, "rt": 2251}, "4": {"category": "Beta", "trial": 4, "stimulus": 22, "rt": 2654}, "7": {"category": "Beta", "trial": 7, "stimulus": 25, "rt": 4444}, "6": {"category": "Beta", "trial": 6, "stimulus": 32, "rt": 5446}}, "generalization": {"56": {"stimulus": 9, "trial": 56, "rt": 52, "response": "Alpha"}, "77": {"stimulus": 19, "trial": 77, "rt": 330, "response": "Beta"}, "54": {"stimulus": 73, "trial": 54, "rt": 156, "response": "Alpha"}, "42": {"stimulus": 80, "trial": 42, "rt": 327, "response": "Beta"}, "48": {"stimulus": 50, "trial": 48, "rt": 353, "response": "Beta"}, "43": {"stimulus": 58, "trial": 43, "rt": 329, "response": "Beta"}, "60": {"stimulus": 47, "trial": 60, "rt": 1230, "response": "Beta"}, "61": {"stimulus": 32, "trial": 61, "rt": 306, "response": "Beta"}, "62": {"stimulus": 64, "trial": 62, "rt": 996, "response": "Beta"}, "63": {"stimulus": 69, "trial": 63, "rt": 421, "response": "Beta"}, "64": {"stimulus": 22, "trial": 64, "rt": 940, "response": "Beta"}, "49": {"stimulus": 66, "trial": 49, "rt": 415, "response": "Beta"}, "66": {"stimulus": 17, "trial": 66, "rt": 366, "response": "Alpha"}, "67": {"stimulus": 54, "trial": 67, "rt": 396, "response": "Alpha"}, "68": {"stimulus": 35, "trial": 68, "rt": 516, "response": "Alpha"}, "69": {"stimulus": 74, "trial": 69, "rt": 209, "response": "Alpha"}, "80": {"stimulus": 24, "trial": 80, "rt": 3742, "response": "Beta"}, "52": {"stimulus": 3, "trial": 52, "rt": 277, "response": "Beta"}, "53": {"stimulus": 12, "trial": 53, "rt": 296, "response": "Alpha"}, "24": {"stimulus": 21, "trial": 24, "rt": 1414, "response": "Alpha"}, "25": {"stimulus": 71, "trial": 25, "rt": 462, "response": "Beta"}, "26": {"stimulus": 49, "trial": 26, "rt": 517, "response": "Beta"}, "27": {"stimulus": 7, "trial": 27, "rt": 420, "response": "Beta"}, "20": {"stimulus": 29, "trial": 20, "rt": 712, "response": "Alpha"}, "21": {"stimulus": 77, "trial": 21, "rt": 700, "response": "Alpha"}, "22": {"stimulus": 76, "trial": 22, "rt": 750, "response": "Alpha"}, "23": {"stimulus": 33, "trial": 23, "rt": 1596, "response": "Alpha"}, "46": {"stimulus": 67, "trial": 46, "rt": 538, "response": "Alpha"}, "47": {"stimulus": 78, "trial": 47, "rt": 569, "response": "Beta"}, "44": {"stimulus": 46, "trial": 44, "rt": 373, "response": "Alpha"}, "45": {"stimulus": 40, "trial": 45, "rt": 287, "response": "Alpha"}, "28": {"stimulus": 38, "trial": 28, "rt": 826, "response": "Beta"}, "29": {"stimulus": 61, "trial": 29, "rt": 428, "response": "Alpha"}, "40": {"stimulus": 63, "trial": 40, "rt": 389, "response": "Beta"}, "41": {"stimulus": 25, "trial": 41, "rt": 328, "response": "Beta"}, "1": {"stimulus": 43, "trial": 1, "rt": 668, "response": "Alpha"}, "0": {"stimulus": 60, "trial": 0, "rt": 1274, "response": "Alpha"}, "3": {"stimulus": 2, "trial": 3, "rt": 487, "response": "Beta"}, "2": {"stimulus": 26, "trial": 2, "rt": 917, "response": "Beta"}, "5": {"stimulus": 14, "trial": 5, "rt": 749, "response": "Beta"}, "4": {"stimulus": 70, "trial": 4, "rt": 823, "response": "Alpha"}, "7": {"stimulus": 31, "trial": 7, "rt": 283, "response": "Beta"}, "6": {"stimulus": 57, "trial": 6, "rt": 501, "response": "Beta"}, "9": {"stimulus": 52, "trial": 9, "rt": 332, "response": "Alpha"}, "8": {"stimulus": 75, "trial": 8, "rt": 328, "response": "Alpha"}, "78": {"stimulus": 34, "trial": 78, "rt": 191, "response": "Beta"}, "51": {"stimulus": 68, "trial": 51, "rt": 351, "response": "Beta"}, "39": {"stimulus": 8, "trial": 39, "rt": 584, "response": "Beta"}, "65": {"stimulus": 79, "trial": 65, "rt": 345, "response": "Alpha"}, "76": {"stimulus": 44, "trial": 76, "rt": 595, "response": "Beta"}, "75": {"stimulus": 15, "trial": 75, "rt": 489, "response": "Beta"}, "38": {"stimulus": 45, "trial": 38, "rt": 350, "response": "Beta"}, "73": {"stimulus": 20, "trial": 73, "rt": 489, "response": "Beta"}, "72": {"stimulus": 23, "trial": 72, "rt": 114, "response": "Alpha"}, "71": {"stimulus": 65, "trial": 71, "rt": 401, "response": "Alpha"}, "70": {"stimulus": 16, "trial": 70, "rt": 235, "response": "Alpha"}, "59": {"stimulus": 55, "trial": 59, "rt": 163, "response": "Beta"}, "79": {"stimulus": 18, "trial": 79, "rt": 313, "response": "Beta"}, "58": {"stimulus": 5, "trial": 58, "rt": 229, "response": "Beta"}, "11": {"stimulus": 39, "trial": 11, "rt": 389, "response": "Beta"}, "10": {"stimulus": 62, "trial": 10, "rt": 312, "response": "Alpha"}, "13": {"stimulus": 28, "trial": 13, "rt": 353, "response": "Beta"}, "12": {"stimulus": 6, "trial": 12, "rt": 421, "response": "Beta"}, "15": {"stimulus": 51, "trial": 15, "rt": 1641, "response": "Beta"}, "14": {"stimulus": 42, "trial": 14, "rt": 385, "response": "Beta"}, "17": {"stimulus": 0, "trial": 17, "rt": 936, "response": "Beta"}, "16": {"stimulus": 36, "trial": 16, "rt": 1970, "response": "Beta"}, "19": {"stimulus": 41, "trial": 19, "rt": 834, "response": "Alpha"}, "18": {"stimulus": 53, "trial": 18, "rt": 367, "response": "Alpha"}, "31": {"stimulus": 10, "trial": 31, "rt": 522, "response": "Alpha"}, "30": {"stimulus": 4, "trial": 30, "rt": 1720, "response": "Alpha"}, "37": {"stimulus": 30, "trial": 37, "rt": 294, "response": "Beta"}, "36": {"stimulus": 59, "trial": 36, "rt": 332, "response": "Beta"}, "35": {"stimulus": 1, "trial": 35, "rt": 331, "response": "Alpha"}, "34": {"stimulus": 72, "trial": 34, "rt": 654, "response": "Alpha"}, "33": {"stimulus": 48, "trial": 33, "rt": 476, "response": "Alpha"}, "55": {"stimulus": 27, "trial": 55, "rt": 253, "response": "Alpha"}, "74": {"stimulus": 56, "trial": 74, "rt": 417, "response": "Beta"}, "32": {"stimulus": 11, "trial": 32, "rt": 509, "response": "Alpha"}, "57": {"stimulus": 13, "trial": 57, "rt": 185, "response": "Alpha"}, "50": {"stimulus": 37, "trial": 50, "rt": 346, "response": "Beta"}}, "experiment": {"Paradigm": "TACL", "Stimuli": "Size-Color Squares", "Experiment": "Generating-Multiple-Categories"}, "submit": {"timeTotal": 921682, "age": "33", "comments": "good survey", "sex": "male"}}