{"info": {"finish": 1535395785924, "participant": 159, "exposed": true, "lab": false, "start": 1535395426505, "counterbalance": 7, "gentype": 0, "condition": "Bottom", "browser": {"platform": "Win64", "userAgent": "Mozilla/5.0 (Windows NT 6.1; Win64; x64; rv:61.0) Gecko/20100101 Firefox/61.0"}}, "observation": {"11": {"stimulus": 32, "trial": 11, "rt": 2593}, "10": {"stimulus": 30, "trial": 10, "rt": 2159}, "1": {"stimulus": 14, "trial": 1, "rt": 3641}, "0": {"stimulus": 12, "trial": 0, "rt": 4313}, "3": {"stimulus": 32, "trial": 3, "rt": 3147}, "2": {"stimulus": 30, "trial": 2, "rt": 3866}, "5": {"stimulus": 14, "trial": 5, "rt": 1792}, "4": {"stimulus": 32, "trial": 4, "rt": 3807}, "7": {"stimulus": 30, "trial": 7, "rt": 3409}, "6": {"stimulus": 12, "trial": 6, "rt": 2045}, "9": {"stimulus": 12, "trial": 9, "rt": 2595}, "8": {"stimulus": 14, "trial": 8, "rt": 3617}}, "generation": {"1": {"category": "Not-Alpha", "trial": 1, "stimulus": 80, "rt": 3854}, "0": {"category": "Not-Alpha", "trial": 0, "stimulus": 72, "rt": 15219}, "3": {"category": "Not-Alpha", "trial": 3, "stimulus": 8, "rt": 4355}, "2": {"category": "Not-Alpha", "trial": 2, "stimulus": 0, "rt": 5265}, "5": {"category": "Not-Alpha", "trial": 5, "stimulus": 78, "rt": 10858}, "4": {"category": "Not-Alpha", "trial": 4, "stimulus": 79, "rt": 9389}, "7": {"category": "Not-Alpha", "trial": 7, "stimulus": 7, "rt": 4640}, "6": {"category": "Not-Alpha", "trial": 6, "stimulus": 73, "rt": 15699}}, "generalization": {"56": {"stimulus": 5, "trial": 56, "rt": 1093, "response": "Alpha"}, "77": {"stimulus": 26, "trial": 77, "rt": 718, "response": "Beta"}, "54": {"stimulus": 53, "trial": 54, "rt": 745, "response": "Beta"}, "42": {"stimulus": 76, "trial": 42, "rt": 1329, "response": "Beta"}, "48": {"stimulus": 28, "trial": 48, "rt": 989, "response": "Alpha"}, "43": {"stimulus": 45, "trial": 43, "rt": 5574, "response": "Alpha"}, "60": {"stimulus": 56, "trial": 60, "rt": 599, "response": "Beta"}, "61": {"stimulus": 48, "trial": 61, "rt": 1317, "response": "Alpha"}, "62": {"stimulus": 40, "trial": 62, "rt": 954, "response": "Alpha"}, "63": {"stimulus": 1, "trial": 63, "rt": 1926, "response": "Beta"}, "64": {"stimulus": 29, "trial": 64, "rt": 4709, "response": "Alpha"}, "49": {"stimulus": 57, "trial": 49, "rt": 999, "response": "Beta"}, "66": {"stimulus": 59, "trial": 66, "rt": 734, "response": "Beta"}, "67": {"stimulus": 70, "trial": 67, "rt": 494, "response": "Beta"}, "68": {"stimulus": 60, "trial": 68, "rt": 459, "response": "Beta"}, "69": {"stimulus": 20, "trial": 69, "rt": 984, "response": "Alpha"}, "80": {"stimulus": 11, "trial": 80, "rt": 1200, "response": "Alpha"}, "52": {"stimulus": 41, "trial": 52, "rt": 2020, "response": "Alpha"}, "53": {"stimulus": 74, "trial": 53, "rt": 1146, "response": "Beta"}, "24": {"stimulus": 36, "trial": 24, "rt": 1293, "response": "Beta"}, "25": {"stimulus": 71, "trial": 25, "rt": 806, "response": "Beta"}, "26": {"stimulus": 23, "trial": 26, "rt": 431, "response": "Beta"}, "27": {"stimulus": 33, "trial": 27, "rt": 2927, "response": "Alpha"}, "20": {"stimulus": 77, "trial": 20, "rt": 1246, "response": "Beta"}, "21": {"stimulus": 39, "trial": 21, "rt": 1109, "response": "Alpha"}, "22": {"stimulus": 15, "trial": 22, "rt": 1049, "response": "Beta"}, "23": {"stimulus": 10, "trial": 23, "rt": 2578, "response": "Alpha"}, "46": {"stimulus": 47, "trial": 46, "rt": 1873, "response": "Alpha"}, "47": {"stimulus": 30, "trial": 47, "rt": 585, "response": "Alpha"}, "44": {"stimulus": 58, "trial": 44, "rt": 1199, "response": "Beta"}, "45": {"stimulus": 17, "trial": 45, "rt": 659, "response": "Beta"}, "28": {"stimulus": 27, "trial": 28, "rt": 2928, "response": "Beta"}, "29": {"stimulus": 14, "trial": 29, "rt": 1610, "response": "Alpha"}, "40": {"stimulus": 19, "trial": 40, "rt": 966, "response": "Alpha"}, "41": {"stimulus": 24, "trial": 41, "rt": 5381, "response": "Alpha"}, "1": {"stimulus": 3, "trial": 1, "rt": 1342, "response": "Alpha"}, "0": {"stimulus": 61, "trial": 0, "rt": 2076, "response": "Beta"}, "3": {"stimulus": 34, "trial": 3, "rt": 1011, "response": "Beta"}, "2": {"stimulus": 75, "trial": 2, "rt": 3481, "response": "Beta"}, "5": {"stimulus": 35, "trial": 5, "rt": 424, "response": "Beta"}, "4": {"stimulus": 52, "trial": 4, "rt": 473, "response": "Beta"}, "7": {"stimulus": 68, "trial": 7, "rt": 740, "response": "Beta"}, "6": {"stimulus": 38, "trial": 6, "rt": 1090, "response": "Alpha"}, "9": {"stimulus": 0, "trial": 9, "rt": 1899, "response": "Beta"}, "8": {"stimulus": 72, "trial": 8, "rt": 500, "response": "Beta"}, "78": {"stimulus": 69, "trial": 78, "rt": 696, "response": "Beta"}, "51": {"stimulus": 63, "trial": 51, "rt": 1334, "response": "Beta"}, "39": {"stimulus": 18, "trial": 39, "rt": 1414, "response": "Beta"}, "65": {"stimulus": 12, "trial": 65, "rt": 1164, "response": "Alpha"}, "76": {"stimulus": 9, "trial": 76, "rt": 1107, "response": "Beta"}, "75": {"stimulus": 37, "trial": 75, "rt": 1218, "response": "Alpha"}, "38": {"stimulus": 54, "trial": 38, "rt": 863, "response": "Beta"}, "73": {"stimulus": 13, "trial": 73, "rt": 1060, "response": "Alpha"}, "72": {"stimulus": 67, "trial": 72, "rt": 761, "response": "Beta"}, "71": {"stimulus": 8, "trial": 71, "rt": 815, "response": "Beta"}, "70": {"stimulus": 2, "trial": 70, "rt": 1618, "response": "Alpha"}, "59": {"stimulus": 51, "trial": 59, "rt": 481, "response": "Beta"}, "79": {"stimulus": 49, "trial": 79, "rt": 527, "response": "Beta"}, "58": {"stimulus": 62, "trial": 58, "rt": 680, "response": "Beta"}, "11": {"stimulus": 79, "trial": 11, "rt": 554, "response": "Beta"}, "10": {"stimulus": 80, "trial": 10, "rt": 681, "response": "Beta"}, "13": {"stimulus": 44, "trial": 13, "rt": 409, "response": "Beta"}, "12": {"stimulus": 25, "trial": 12, "rt": 413, "response": "Beta"}, "15": {"stimulus": 73, "trial": 15, "rt": 1336, "response": "Beta"}, "14": {"stimulus": 16, "trial": 14, "rt": 406, "response": "Beta"}, "17": {"stimulus": 7, "trial": 17, "rt": 654, "response": "Beta"}, "16": {"stimulus": 65, "trial": 16, "rt": 710, "response": "Beta"}, "19": {"stimulus": 66, "trial": 19, "rt": 1211, "response": "Beta"}, "18": {"stimulus": 64, "trial": 18, "rt": 1152, "response": "Beta"}, "31": {"stimulus": 55, "trial": 31, "rt": 1475, "response": "Beta"}, "30": {"stimulus": 31, "trial": 30, "rt": 916, "response": "Alpha"}, "37": {"stimulus": 46, "trial": 37, "rt": 2216, "response": "Alpha"}, "36": {"stimulus": 42, "trial": 36, "rt": 447, "response": "Beta"}, "35": {"stimulus": 6, "trial": 35, "rt": 459, "response": "Beta"}, "34": {"stimulus": 43, "trial": 34, "rt": 815, "response": "Beta"}, "33": {"stimulus": 32, "trial": 33, "rt": 2114, "response": "Alpha"}, "55": {"stimulus": 50, "trial": 55, "rt": 798, "response": "Beta"}, "74": {"stimulus": 78, "trial": 74, "rt": 833, "response": "Beta"}, "32": {"stimulus": 21, "trial": 32, "rt": 1047, "response": "Alpha"}, "57": {"stimulus": 4, "trial": 57, "rt": 1899, "response": "Alpha"}, "50": {"stimulus": 22, "trial": 50, "rt": 1195, "response": "Alpha"}}, "experiment": {"Paradigm": "TACL", "Stimuli": "Size-Color Squares", "Experiment": "Generating-Multiple-Categories"}, "submit": {"timeTotal": 359965, "age": "43", "comments": "I found I had trouble remembering just how dark/light the alpha group went.", "sex": "female"}}