{"info": {"finish": 1534981954393, "participant": 16, "exposed": true, "lab": false, "start": 1534981510756, "counterbalance": 3, "gentype": 0, "condition": "Bottom", "browser": {"platform": "Win32", "userAgent": "Mozilla/5.0 (Windows NT 10.0; Win64; x64) AppleWebKit/537.36 (KHTML, like Gecko) Chrome/68.0.3440.106 Safari/537.36"}}, "observation": {"11": {"stimulus": 30, "trial": 11, "rt": 2327}, "10": {"stimulus": 32, "trial": 10, "rt": 2457}, "1": {"stimulus": 32, "trial": 1, "rt": 3462}, "0": {"stimulus": 14, "trial": 0, "rt": 4724}, "3": {"stimulus": 30, "trial": 3, "rt": 3131}, "2": {"stimulus": 12, "trial": 2, "rt": 1991}, "5": {"stimulus": 14, "trial": 5, "rt": 1991}, "4": {"stimulus": 30, "trial": 4, "rt": 2015}, "7": {"stimulus": 32, "trial": 7, "rt": 1817}, "6": {"stimulus": 12, "trial": 6, "rt": 2086}, "9": {"stimulus": 14, "trial": 9, "rt": 1760}, "8": {"stimulus": 12, "trial": 8, "rt": 1838}}, "generation": {"1": {"category": "Not-Alpha", "trial": 1, "stimulus": 80, "rt": 19897}, "0": {"category": "Not-Alpha", "trial": 0, "stimulus": 44, "rt": 25598}, "3": {"category": "Not-Alpha", "trial": 3, "stimulus": 53, "rt": 8526}, "2": {"category": "Not-Alpha", "trial": 2, "stimulus": 47, "rt": 11663}, "5": {"category": "Not-Alpha", "trial": 5, "stimulus": 52, "rt": 18544}, "4": {"category": "Not-Alpha", "trial": 4, "stimulus": 45, "rt": 9878}, "7": {"category": "Not-Alpha", "trial": 7, "stimulus": 42, "rt": 9693}, "6": {"category": "Not-Alpha", "trial": 6, "stimulus": 19, "rt": 8655}}, "generalization": {"56": {"stimulus": 80, "trial": 56, "rt": 1118, "response": "Beta"}, "77": {"stimulus": 4, "trial": 77, "rt": 1576, "response": "Alpha"}, "54": {"stimulus": 17, "trial": 54, "rt": 1200, "response": "Alpha"}, "42": {"stimulus": 7, "trial": 42, "rt": 1439, "response": "Alpha"}, "48": {"stimulus": 62, "trial": 48, "rt": 1198, "response": "Beta"}, "43": {"stimulus": 25, "trial": 43, "rt": 1248, "response": "Alpha"}, "60": {"stimulus": 15, "trial": 60, "rt": 913, "response": "Alpha"}, "61": {"stimulus": 46, "trial": 61, "rt": 785, "response": "Alpha"}, "62": {"stimulus": 61, "trial": 62, "rt": 1175, "response": "Beta"}, "63": {"stimulus": 37, "trial": 63, "rt": 2006, "response": "Beta"}, "64": {"stimulus": 53, "trial": 64, "rt": 1720, "response": "Beta"}, "49": {"stimulus": 55, "trial": 49, "rt": 1232, "response": "Beta"}, "66": {"stimulus": 69, "trial": 66, "rt": 1081, "response": "Beta"}, "67": {"stimulus": 26, "trial": 67, "rt": 873, "response": "Alpha"}, "68": {"stimulus": 43, "trial": 68, "rt": 871, "response": "Alpha"}, "69": {"stimulus": 36, "trial": 69, "rt": 1907, "response": "Beta"}, "80": {"stimulus": 47, "trial": 80, "rt": 1061, "response": "Beta"}, "52": {"stimulus": 64, "trial": 52, "rt": 1312, "response": "Beta"}, "53": {"stimulus": 75, "trial": 53, "rt": 1328, "response": "Beta"}, "24": {"stimulus": 72, "trial": 24, "rt": 1286, "response": "Beta"}, "25": {"stimulus": 0, "trial": 25, "rt": 1757, "response": "Alpha"}, "26": {"stimulus": 30, "trial": 26, "rt": 1399, "response": "Alpha"}, "27": {"stimulus": 78, "trial": 27, "rt": 863, "response": "Beta"}, "20": {"stimulus": 79, "trial": 20, "rt": 1662, "response": "Beta"}, "21": {"stimulus": 32, "trial": 21, "rt": 1553, "response": "Alpha"}, "22": {"stimulus": 67, "trial": 22, "rt": 1448, "response": "Beta"}, "23": {"stimulus": 65, "trial": 23, "rt": 1176, "response": "Beta"}, "46": {"stimulus": 73, "trial": 46, "rt": 1286, "response": "Beta"}, "47": {"stimulus": 42, "trial": 47, "rt": 1866, "response": "Beta"}, "44": {"stimulus": 19, "trial": 44, "rt": 2895, "response": "Beta"}, "45": {"stimulus": 71, "trial": 45, "rt": 1824, "response": "Beta"}, "28": {"stimulus": 66, "trial": 28, "rt": 938, "response": "Beta"}, "29": {"stimulus": 51, "trial": 29, "rt": 1220, "response": "Beta"}, "40": {"stimulus": 20, "trial": 40, "rt": 1895, "response": "Beta"}, "41": {"stimulus": 59, "trial": 41, "rt": 1863, "response": "Beta"}, "1": {"stimulus": 49, "trial": 1, "rt": 1935, "response": "Beta"}, "0": {"stimulus": 1, "trial": 0, "rt": 4703, "response": "Beta"}, "3": {"stimulus": 50, "trial": 3, "rt": 1549, "response": "Beta"}, "2": {"stimulus": 9, "trial": 2, "rt": 1567, "response": "Alpha"}, "5": {"stimulus": 52, "trial": 5, "rt": 1592, "response": "Beta"}, "4": {"stimulus": 12, "trial": 4, "rt": 2553, "response": "Beta"}, "7": {"stimulus": 34, "trial": 7, "rt": 2635, "response": "Beta"}, "6": {"stimulus": 45, "trial": 6, "rt": 1520, "response": "Beta"}, "9": {"stimulus": 28, "trial": 9, "rt": 1155, "response": "Alpha"}, "8": {"stimulus": 44, "trial": 8, "rt": 1689, "response": "Beta"}, "78": {"stimulus": 31, "trial": 78, "rt": 907, "response": "Beta"}, "51": {"stimulus": 74, "trial": 51, "rt": 1397, "response": "Beta"}, "39": {"stimulus": 58, "trial": 39, "rt": 1055, "response": "Beta"}, "65": {"stimulus": 24, "trial": 65, "rt": 816, "response": "Alpha"}, "76": {"stimulus": 27, "trial": 76, "rt": 3547, "response": "Alpha"}, "75": {"stimulus": 22, "trial": 75, "rt": 1787, "response": "Alpha"}, "38": {"stimulus": 8, "trial": 38, "rt": 3791, "response": "Alpha"}, "73": {"stimulus": 13, "trial": 73, "rt": 1342, "response": "Alpha"}, "72": {"stimulus": 2, "trial": 72, "rt": 1320, "response": "Alpha"}, "71": {"stimulus": 10, "trial": 71, "rt": 1214, "response": "Alpha"}, "70": {"stimulus": 18, "trial": 70, "rt": 1615, "response": "Alpha"}, "59": {"stimulus": 57, "trial": 59, "rt": 1500, "response": "Beta"}, "79": {"stimulus": 54, "trial": 79, "rt": 1073, "response": "Beta"}, "58": {"stimulus": 5, "trial": 58, "rt": 1065, "response": "Alpha"}, "11": {"stimulus": 40, "trial": 11, "rt": 1485, "response": "Beta"}, "10": {"stimulus": 14, "trial": 10, "rt": 1304, "response": "Alpha"}, "13": {"stimulus": 16, "trial": 13, "rt": 1570, "response": "Alpha"}, "12": {"stimulus": 68, "trial": 12, "rt": 1640, "response": "Beta"}, "15": {"stimulus": 41, "trial": 15, "rt": 3003, "response": "Beta"}, "14": {"stimulus": 38, "trial": 14, "rt": 2830, "response": "Beta"}, "17": {"stimulus": 70, "trial": 17, "rt": 1499, "response": "Beta"}, "16": {"stimulus": 21, "trial": 16, "rt": 1643, "response": "Alpha"}, "19": {"stimulus": 39, "trial": 19, "rt": 1490, "response": "Alpha"}, "18": {"stimulus": 76, "trial": 18, "rt": 1536, "response": "Beta"}, "31": {"stimulus": 29, "trial": 31, "rt": 1228, "response": "Alpha"}, "30": {"stimulus": 56, "trial": 30, "rt": 1342, "response": "Beta"}, "37": {"stimulus": 3, "trial": 37, "rt": 1736, "response": "Alpha"}, "36": {"stimulus": 6, "trial": 36, "rt": 1598, "response": "Alpha"}, "35": {"stimulus": 60, "trial": 35, "rt": 840, "response": "Beta"}, "34": {"stimulus": 35, "trial": 34, "rt": 1232, "response": "Alpha"}, "33": {"stimulus": 11, "trial": 33, "rt": 1183, "response": "Alpha"}, "55": {"stimulus": 48, "trial": 55, "rt": 1931, "response": "Beta"}, "74": {"stimulus": 23, "trial": 74, "rt": 1155, "response": "Alpha"}, "32": {"stimulus": 63, "trial": 32, "rt": 1200, "response": "Beta"}, "57": {"stimulus": 77, "trial": 57, "rt": 1040, "response": "Beta"}, "50": {"stimulus": 33, "trial": 50, "rt": 1216, "response": "Alpha"}}, "experiment": {"Paradigm": "TACL", "Stimuli": "Size-Color Squares", "Experiment": "Generating-Multiple-Categories"}, "submit": {"timeTotal": 444229, "age": "61", "comments": "I am not sure what to think about it. It was very unique.", "sex": "male"}}