{"info": {"finish": 1535396771595, "participant": 163, "exposed": true, "lab": false, "start": 1535396398921, "counterbalance": 1, "gentype": 0, "condition": "Bottom", "browser": {"platform": "Win32", "userAgent": "Mozilla/5.0 (Windows NT 10.0; Win64; x64) AppleWebKit/537.36 (KHTML, like Gecko) Chrome/68.0.3440.106 Safari/537.36"}}, "observation": {"11": {"stimulus": 32, "trial": 11, "rt": 2610}, "10": {"stimulus": 12, "trial": 10, "rt": 46083}, "1": {"stimulus": 12, "trial": 1, "rt": 7586}, "0": {"stimulus": 14, "trial": 0, "rt": 6954}, "3": {"stimulus": 32, "trial": 3, "rt": 4018}, "2": {"stimulus": 30, "trial": 2, "rt": 2470}, "5": {"stimulus": 12, "trial": 5, "rt": 2249}, "4": {"stimulus": 30, "trial": 4, "rt": 1979}, "7": {"stimulus": 14, "trial": 7, "rt": 2324}, "6": {"stimulus": 32, "trial": 6, "rt": 2777}, "9": {"stimulus": 14, "trial": 9, "rt": 4169}, "8": {"stimulus": 30, "trial": 8, "rt": 5679}}, "generation": {"1": {"category": "Not-Alpha", "trial": 1, "stimulus": 5, "rt": 3160}, "0": {"category": "Not-Alpha", "trial": 0, "stimulus": 23, "rt": 5941}, "3": {"category": "Not-Alpha", "trial": 3, "stimulus": 30, "rt": 5601}, "2": {"category": "Not-Alpha", "trial": 2, "stimulus": 41, "rt": 5941}, "5": {"category": "Not-Alpha", "trial": 5, "stimulus": 63, "rt": 2864}, "4": {"category": "Not-Alpha", "trial": 4, "stimulus": 68, "rt": 2686}, "7": {"category": "Not-Alpha", "trial": 7, "stimulus": 1, "rt": 4631}, "6": {"category": "Not-Alpha", "trial": 6, "stimulus": 8, "rt": 4001}}, "generalization": {"56": {"stimulus": 13, "trial": 56, "rt": 1882, "response": "Alpha"}, "77": {"stimulus": 49, "trial": 77, "rt": 715, "response": "Beta"}, "54": {"stimulus": 43, "trial": 54, "rt": 885, "response": "Beta"}, "42": {"stimulus": 54, "trial": 42, "rt": 769, "response": "Beta"}, "48": {"stimulus": 55, "trial": 48, "rt": 1162, "response": "Beta"}, "43": {"stimulus": 78, "trial": 43, "rt": 817, "response": "Beta"}, "60": {"stimulus": 58, "trial": 60, "rt": 1105, "response": "Beta"}, "61": {"stimulus": 75, "trial": 61, "rt": 708, "response": "Beta"}, "62": {"stimulus": 61, "trial": 62, "rt": 4416, "response": "Beta"}, "63": {"stimulus": 77, "trial": 63, "rt": 1049, "response": "Beta"}, "64": {"stimulus": 63, "trial": 64, "rt": 1217, "response": "Beta"}, "49": {"stimulus": 67, "trial": 49, "rt": 1352, "response": "Beta"}, "66": {"stimulus": 76, "trial": 66, "rt": 2222, "response": "Beta"}, "67": {"stimulus": 20, "trial": 67, "rt": 1323, "response": "Beta"}, "68": {"stimulus": 38, "trial": 68, "rt": 652, "response": "Beta"}, "69": {"stimulus": 33, "trial": 69, "rt": 1655, "response": "Beta"}, "80": {"stimulus": 50, "trial": 80, "rt": 3143, "response": "Beta"}, "52": {"stimulus": 14, "trial": 52, "rt": 1438, "response": "Alpha"}, "53": {"stimulus": 40, "trial": 53, "rt": 2435, "response": "Alpha"}, "24": {"stimulus": 23, "trial": 24, "rt": 1009, "response": "Alpha"}, "25": {"stimulus": 7, "trial": 25, "rt": 1028, "response": "Beta"}, "26": {"stimulus": 73, "trial": 26, "rt": 811, "response": "Beta"}, "27": {"stimulus": 15, "trial": 27, "rt": 1082, "response": "Alpha"}, "20": {"stimulus": 35, "trial": 20, "rt": 1589, "response": "Beta"}, "21": {"stimulus": 70, "trial": 21, "rt": 1057, "response": "Beta"}, "22": {"stimulus": 56, "trial": 22, "rt": 1431, "response": "Beta"}, "23": {"stimulus": 59, "trial": 23, "rt": 2668, "response": "Beta"}, "46": {"stimulus": 32, "trial": 46, "rt": 1900, "response": "Alpha"}, "47": {"stimulus": 60, "trial": 47, "rt": 744, "response": "Beta"}, "44": {"stimulus": 18, "trial": 44, "rt": 786, "response": "Beta"}, "45": {"stimulus": 72, "trial": 45, "rt": 598, "response": "Beta"}, "28": {"stimulus": 69, "trial": 28, "rt": 1435, "response": "Beta"}, "29": {"stimulus": 45, "trial": 29, "rt": 932, "response": "Beta"}, "40": {"stimulus": 80, "trial": 40, "rt": 1069, "response": "Beta"}, "41": {"stimulus": 47, "trial": 41, "rt": 3808, "response": "Beta"}, "1": {"stimulus": 24, "trial": 1, "rt": 831, "response": "Alpha"}, "0": {"stimulus": 44, "trial": 0, "rt": 1379, "response": "Alpha"}, "3": {"stimulus": 66, "trial": 3, "rt": 941, "response": "Beta"}, "2": {"stimulus": 31, "trial": 2, "rt": 653, "response": "Alpha"}, "5": {"stimulus": 41, "trial": 5, "rt": 628, "response": "Alpha"}, "4": {"stimulus": 1, "trial": 4, "rt": 1600, "response": "Alpha"}, "7": {"stimulus": 64, "trial": 7, "rt": 1210, "response": "Beta"}, "6": {"stimulus": 71, "trial": 6, "rt": 946, "response": "Beta"}, "9": {"stimulus": 57, "trial": 9, "rt": 1112, "response": "Beta"}, "8": {"stimulus": 34, "trial": 8, "rt": 1524, "response": "Alpha"}, "78": {"stimulus": 30, "trial": 78, "rt": 1132, "response": "Alpha"}, "51": {"stimulus": 5, "trial": 51, "rt": 1198, "response": "Alpha"}, "39": {"stimulus": 22, "trial": 39, "rt": 1033, "response": "Alpha"}, "65": {"stimulus": 17, "trial": 65, "rt": 1546, "response": "Beta"}, "76": {"stimulus": 16, "trial": 76, "rt": 3283, "response": "Beta"}, "75": {"stimulus": 53, "trial": 75, "rt": 848, "response": "Beta"}, "38": {"stimulus": 8, "trial": 38, "rt": 1316, "response": "Beta"}, "73": {"stimulus": 74, "trial": 73, "rt": 891, "response": "Beta"}, "72": {"stimulus": 21, "trial": 72, "rt": 1382, "response": "Alpha"}, "71": {"stimulus": 4, "trial": 71, "rt": 1480, "response": "Alpha"}, "70": {"stimulus": 9, "trial": 70, "rt": 821, "response": "Beta"}, "59": {"stimulus": 0, "trial": 59, "rt": 672, "response": "Beta"}, "79": {"stimulus": 3, "trial": 79, "rt": 1173, "response": "Beta"}, "58": {"stimulus": 26, "trial": 58, "rt": 768, "response": "Beta"}, "11": {"stimulus": 48, "trial": 11, "rt": 20081, "response": "Beta"}, "10": {"stimulus": 11, "trial": 10, "rt": 536, "response": "Beta"}, "13": {"stimulus": 10, "trial": 13, "rt": 2015, "response": "Beta"}, "12": {"stimulus": 27, "trial": 12, "rt": 1551, "response": "Beta"}, "15": {"stimulus": 37, "trial": 15, "rt": 624, "response": "Beta"}, "14": {"stimulus": 2, "trial": 14, "rt": 1127, "response": "Beta"}, "17": {"stimulus": 28, "trial": 17, "rt": 593, "response": "Beta"}, "16": {"stimulus": 36, "trial": 16, "rt": 579, "response": "Beta"}, "19": {"stimulus": 62, "trial": 19, "rt": 1011, "response": "Beta"}, "18": {"stimulus": 46, "trial": 18, "rt": 1426, "response": "Beta"}, "31": {"stimulus": 68, "trial": 31, "rt": 1226, "response": "Beta"}, "30": {"stimulus": 79, "trial": 30, "rt": 1311, "response": "Beta"}, "37": {"stimulus": 51, "trial": 37, "rt": 1638, "response": "Beta"}, "36": {"stimulus": 25, "trial": 36, "rt": 1610, "response": "Beta"}, "35": {"stimulus": 6, "trial": 35, "rt": 1585, "response": "Beta"}, "34": {"stimulus": 39, "trial": 34, "rt": 673, "response": "Beta"}, "33": {"stimulus": 52, "trial": 33, "rt": 4104, "response": "Beta"}, "55": {"stimulus": 12, "trial": 55, "rt": 2238, "response": "Beta"}, "74": {"stimulus": 42, "trial": 74, "rt": 656, "response": "Beta"}, "32": {"stimulus": 19, "trial": 32, "rt": 803, "response": "Beta"}, "57": {"stimulus": 65, "trial": 57, "rt": 743, "response": "Beta"}, "50": {"stimulus": 29, "trial": 50, "rt": 993, "response": "Beta"}}, "experiment": {"Paradigm": "TACL", "Stimuli": "Size-Color Squares", "Experiment": "Generating-Multiple-Categories"}, "submit": {"timeTotal": 372915, "age": "25", "comments": "sometimes the first slider would not work", "sex": "female"}}