{"info": {"finish": 1535397345851, "participant": 165, "exposed": true, "lab": false, "start": 1535396563403, "counterbalance": 1, "gentype": 0, "condition": "Middle", "browser": {"platform": "Win32", "userAgent": "Mozilla/5.0 (Windows NT 10.0; Win64; x64) AppleWebKit/537.36 (KHTML, like Gecko) Chrome/68.0.3440.106 Safari/537.36"}}, "observation": {"11": {"stimulus": 48, "trial": 11, "rt": 1568}, "10": {"stimulus": 50, "trial": 10, "rt": 1422}, "1": {"stimulus": 30, "trial": 1, "rt": 1749}, "0": {"stimulus": 50, "trial": 0, "rt": 2062}, "3": {"stimulus": 32, "trial": 3, "rt": 1462}, "2": {"stimulus": 48, "trial": 2, "rt": 1512}, "5": {"stimulus": 30, "trial": 5, "rt": 1522}, "4": {"stimulus": 48, "trial": 4, "rt": 1950}, "7": {"stimulus": 32, "trial": 7, "rt": 1744}, "6": {"stimulus": 50, "trial": 6, "rt": 1528}, "9": {"stimulus": 32, "trial": 9, "rt": 1528}, "8": {"stimulus": 30, "trial": 8, "rt": 1463}}, "generation": {"1": {"category": "Not-Alpha", "trial": 1, "stimulus": 80, "rt": 5300}, "0": {"category": "Not-Alpha", "trial": 0, "stimulus": 72, "rt": 8874}, "3": {"category": "Not-Alpha", "trial": 3, "stimulus": 8, "rt": 3022}, "2": {"category": "Not-Alpha", "trial": 2, "stimulus": 0, "rt": 4406}, "5": {"category": "Not-Alpha", "trial": 5, "stimulus": 63, "rt": 4614}, "4": {"category": "Not-Alpha", "trial": 4, "stimulus": 9, "rt": 5468}, "7": {"category": "Not-Alpha", "trial": 7, "stimulus": 17, "rt": 4870}, "6": {"category": "Not-Alpha", "trial": 6, "stimulus": 71, "rt": 4743}}, "generalization": {"56": {"stimulus": 10, "trial": 56, "rt": 798, "response": "Beta"}, "77": {"stimulus": 56, "trial": 77, "rt": 576, "response": "Beta"}, "54": {"stimulus": 15, "trial": 54, "rt": 943, "response": "Alpha"}, "42": {"stimulus": 9, "trial": 42, "rt": 1357, "response": "Beta"}, "48": {"stimulus": 64, "trial": 48, "rt": 1030, "response": "Alpha"}, "43": {"stimulus": 67, "trial": 43, "rt": 654, "response": "Beta"}, "60": {"stimulus": 75, "trial": 60, "rt": 1182, "response": "Beta"}, "61": {"stimulus": 47, "trial": 61, "rt": 903, "response": "Beta"}, "62": {"stimulus": 36, "trial": 62, "rt": 1526, "response": "Beta"}, "63": {"stimulus": 72, "trial": 63, "rt": 1294, "response": "Beta"}, "64": {"stimulus": 18, "trial": 64, "rt": 870, "response": "Beta"}, "49": {"stimulus": 27, "trial": 49, "rt": 1087, "response": "Beta"}, "66": {"stimulus": 0, "trial": 66, "rt": 1648, "response": "Beta"}, "67": {"stimulus": 58, "trial": 67, "rt": 1071, "response": "Alpha"}, "68": {"stimulus": 8, "trial": 68, "rt": 2375, "response": "Beta"}, "69": {"stimulus": 7, "trial": 69, "rt": 8303, "response": "Beta"}, "80": {"stimulus": 61, "trial": 80, "rt": 2758, "response": "Alpha"}, "52": {"stimulus": 38, "trial": 52, "rt": 927, "response": "Beta"}, "53": {"stimulus": 13, "trial": 53, "rt": 1903, "response": "Alpha"}, "24": {"stimulus": 17, "trial": 24, "rt": 1974, "response": "Beta"}, "25": {"stimulus": 5, "trial": 25, "rt": 1495, "response": "Beta"}, "26": {"stimulus": 52, "trial": 26, "rt": 1965, "response": "Beta"}, "27": {"stimulus": 69, "trial": 27, "rt": 934, "response": "Beta"}, "20": {"stimulus": 39, "trial": 20, "rt": 1246, "response": "Alpha"}, "21": {"stimulus": 16, "trial": 21, "rt": 1495, "response": "Beta"}, "22": {"stimulus": 45, "trial": 22, "rt": 887, "response": "Alpha"}, "23": {"stimulus": 46, "trial": 23, "rt": 911, "response": "Beta"}, "46": {"stimulus": 62, "trial": 46, "rt": 1800, "response": "Beta"}, "47": {"stimulus": 2, "trial": 47, "rt": 3038, "response": "Beta"}, "44": {"stimulus": 54, "trial": 44, "rt": 1462, "response": "Alpha"}, "45": {"stimulus": 20, "trial": 45, "rt": 2671, "response": "Beta"}, "28": {"stimulus": 77, "trial": 28, "rt": 504, "response": "Beta"}, "29": {"stimulus": 49, "trial": 29, "rt": 1483, "response": "Alpha"}, "40": {"stimulus": 25, "trial": 40, "rt": 911, "response": "Alpha"}, "41": {"stimulus": 3, "trial": 41, "rt": 1172, "response": "Beta"}, "1": {"stimulus": 42, "trial": 1, "rt": 887, "response": "Alpha"}, "0": {"stimulus": 63, "trial": 0, "rt": 1846, "response": "Beta"}, "3": {"stimulus": 34, "trial": 3, "rt": 989, "response": "Alpha"}, "2": {"stimulus": 53, "trial": 2, "rt": 1165, "response": "Beta"}, "5": {"stimulus": 51, "trial": 5, "rt": 1182, "response": "Beta"}, "4": {"stimulus": 31, "trial": 4, "rt": 1000, "response": "Alpha"}, "7": {"stimulus": 23, "trial": 7, "rt": 989, "response": "Alpha"}, "6": {"stimulus": 35, "trial": 6, "rt": 1095, "response": "Beta"}, "9": {"stimulus": 60, "trial": 9, "rt": 943, "response": "Beta"}, "8": {"stimulus": 55, "trial": 8, "rt": 1046, "response": "Beta"}, "78": {"stimulus": 33, "trial": 78, "rt": 415, "response": "Beta"}, "51": {"stimulus": 22, "trial": 51, "rt": 1086, "response": "Alpha"}, "39": {"stimulus": 50, "trial": 39, "rt": 1078, "response": "Alpha"}, "65": {"stimulus": 6, "trial": 65, "rt": 2655, "response": "Beta"}, "76": {"stimulus": 65, "trial": 76, "rt": 430, "response": "Beta"}, "75": {"stimulus": 59, "trial": 75, "rt": 4367, "response": "Beta"}, "38": {"stimulus": 76, "trial": 38, "rt": 807, "response": "Beta"}, "73": {"stimulus": 41, "trial": 73, "rt": 4455, "response": "Alpha"}, "72": {"stimulus": 48, "trial": 72, "rt": 2624, "response": "Beta"}, "71": {"stimulus": 14, "trial": 71, "rt": 1784, "response": "Alpha"}, "70": {"stimulus": 37, "trial": 70, "rt": 158085, "response": "Alpha"}, "59": {"stimulus": 44, "trial": 59, "rt": 1518, "response": "Beta"}, "79": {"stimulus": 74, "trial": 79, "rt": 967, "response": "Alpha"}, "58": {"stimulus": 29, "trial": 58, "rt": 2511, "response": "Beta"}, "11": {"stimulus": 26, "trial": 11, "rt": 1094, "response": "Alpha"}, "10": {"stimulus": 79, "trial": 10, "rt": 1021, "response": "Beta"}, "13": {"stimulus": 24, "trial": 13, "rt": 1104, "response": "Alpha"}, "12": {"stimulus": 19, "trial": 12, "rt": 1583, "response": "Beta"}, "15": {"stimulus": 71, "trial": 15, "rt": 22889, "response": "Beta"}, "14": {"stimulus": 57, "trial": 14, "rt": 1517, "response": "Beta"}, "17": {"stimulus": 11, "trial": 17, "rt": 13570, "response": "Alpha"}, "16": {"stimulus": 12, "trial": 16, "rt": 2436, "response": "Alpha"}, "19": {"stimulus": 78, "trial": 19, "rt": 1183, "response": "Beta"}, "18": {"stimulus": 73, "trial": 18, "rt": 758, "response": "Beta"}, "31": {"stimulus": 80, "trial": 31, "rt": 1534, "response": "Beta"}, "30": {"stimulus": 1, "trial": 30, "rt": 2657, "response": "Beta"}, "37": {"stimulus": 40, "trial": 37, "rt": 795, "response": "Alpha"}, "36": {"stimulus": 32, "trial": 36, "rt": 1230, "response": "Alpha"}, "35": {"stimulus": 21, "trial": 35, "rt": 414, "response": "Beta"}, "34": {"stimulus": 4, "trial": 34, "rt": 3295, "response": "Beta"}, "33": {"stimulus": 28, "trial": 33, "rt": 1439, "response": "Alpha"}, "55": {"stimulus": 30, "trial": 55, "rt": 934, "response": "Beta"}, "74": {"stimulus": 70, "trial": 74, "rt": 2916, "response": "Beta"}, "32": {"stimulus": 68, "trial": 32, "rt": 598, "response": "Beta"}, "57": {"stimulus": 66, "trial": 57, "rt": 2175, "response": "Beta"}, "50": {"stimulus": 43, "trial": 50, "rt": 1150, "response": "Beta"}}, "experiment": {"Paradigm": "TACL", "Stimuli": "Size-Color Squares", "Experiment": "Generating-Multiple-Categories"}, "submit": {"timeTotal": 783051, "age": "37", "comments": "This was interesting, thanks.", "sex": "Male"}}