{"info": {"finish": 1535398704028, "participant": 169, "exposed": true, "lab": false, "start": 1535398204677, "counterbalance": 2, "gentype": 2, "condition": "Bottom", "browser": {"platform": "Win32", "userAgent": "Mozilla/5.0 (Windows NT 6.1) AppleWebKit/537.36 (KHTML, like Gecko) Chrome/68.0.3440.106 Safari/537.36"}}, "observation": {"11": {"stimulus": 12, "trial": 11, "rt": 1681}, "10": {"stimulus": 14, "trial": 10, "rt": 2159}, "1": {"stimulus": 30, "trial": 1, "rt": 30585}, "0": {"stimulus": 32, "trial": 0, "rt": 8134}, "3": {"stimulus": 14, "trial": 3, "rt": 4303}, "2": {"stimulus": 12, "trial": 2, "rt": 5450}, "5": {"stimulus": 14, "trial": 5, "rt": 2176}, "4": {"stimulus": 30, "trial": 4, "rt": 6470}, "7": {"stimulus": 12, "trial": 7, "rt": 1473}, "6": {"stimulus": 32, "trial": 6, "rt": 2014}, "9": {"stimulus": 32, "trial": 9, "rt": 2547}, "8": {"stimulus": 30, "trial": 8, "rt": 5819}}, "generation": {"1": {"category": "Beta", "trial": 1, "stimulus": 79, "rt": 11869}, "0": {"category": "Beta", "trial": 0, "stimulus": 80, "rt": 28191}, "3": {"category": "Beta", "trial": 3, "stimulus": 78, "rt": 5597}, "2": {"category": "Beta", "trial": 2, "stimulus": 71, "rt": 42222}, "5": {"category": "Gamma", "trial": 5, "stimulus": 40, "rt": 9636}, "4": {"category": "Gamma", "trial": 4, "stimulus": 29, "rt": 13403}, "7": {"category": "Gamma", "trial": 7, "stimulus": 22, "rt": 3847}, "6": {"category": "Gamma", "trial": 6, "stimulus": 38, "rt": 11383}}, "generalization": {"56": {"stimulus": 26, "trial": 56, "rt": 1008, "response": "Beta"}, "77": {"stimulus": 27, "trial": 77, "rt": 8049, "response": "Alpha"}, "54": {"stimulus": 56, "trial": 54, "rt": 834, "response": "Alpha"}, "42": {"stimulus": 3, "trial": 42, "rt": 1245, "response": "Alpha"}, "48": {"stimulus": 61, "trial": 48, "rt": 452, "response": "Beta"}, "43": {"stimulus": 28, "trial": 43, "rt": 632, "response": "Alpha"}, "60": {"stimulus": 10, "trial": 60, "rt": 919, "response": "Alpha"}, "61": {"stimulus": 54, "trial": 61, "rt": 4983, "response": "Alpha"}, "62": {"stimulus": 60, "trial": 62, "rt": 863, "response": "Beta"}, "63": {"stimulus": 76, "trial": 63, "rt": 1581, "response": "Gamma"}, "64": {"stimulus": 69, "trial": 64, "rt": 912, "response": "Beta"}, "49": {"stimulus": 32, "trial": 49, "rt": 498, "response": "Beta"}, "66": {"stimulus": 58, "trial": 66, "rt": 2173, "response": "Gamma"}, "67": {"stimulus": 59, "trial": 67, "rt": 934, "response": "Beta"}, "68": {"stimulus": 7, "trial": 68, "rt": 1388, "response": "Beta"}, "69": {"stimulus": 73, "trial": 69, "rt": 1134, "response": "Gamma"}, "80": {"stimulus": 29, "trial": 80, "rt": 2030, "response": "Alpha"}, "52": {"stimulus": 23, "trial": 52, "rt": 543, "response": "Beta"}, "53": {"stimulus": 48, "trial": 53, "rt": 1615, "response": "Alpha"}, "24": {"stimulus": 75, "trial": 24, "rt": 1047, "response": "Gamma"}, "25": {"stimulus": 8, "trial": 25, "rt": 960, "response": "Beta"}, "26": {"stimulus": 46, "trial": 26, "rt": 1503, "response": "Alpha"}, "27": {"stimulus": 36, "trial": 27, "rt": 1207, "response": "Alpha"}, "20": {"stimulus": 31, "trial": 20, "rt": 1536, "response": "Alpha"}, "21": {"stimulus": 77, "trial": 21, "rt": 1523, "response": "Gamma"}, "22": {"stimulus": 18, "trial": 22, "rt": 3176, "response": "Alpha"}, "23": {"stimulus": 63, "trial": 23, "rt": 1574, "response": "Gamma"}, "46": {"stimulus": 80, "trial": 46, "rt": 726, "response": "Beta"}, "47": {"stimulus": 16, "trial": 47, "rt": 829, "response": "Alpha"}, "44": {"stimulus": 33, "trial": 44, "rt": 769, "response": "Beta"}, "45": {"stimulus": 20, "trial": 45, "rt": 690, "response": "Alpha"}, "28": {"stimulus": 24, "trial": 28, "rt": 1062, "response": "Beta"}, "29": {"stimulus": 49, "trial": 29, "rt": 1231, "response": "Beta"}, "40": {"stimulus": 78, "trial": 40, "rt": 1195, "response": "Beta"}, "41": {"stimulus": 40, "trial": 41, "rt": 889, "response": "Alpha"}, "1": {"stimulus": 68, "trial": 1, "rt": 1712, "response": "Beta"}, "0": {"stimulus": 67, "trial": 0, "rt": 3875, "response": "Beta"}, "3": {"stimulus": 50, "trial": 3, "rt": 1294, "response": "Alpha"}, "2": {"stimulus": 43, "trial": 2, "rt": 2568, "response": "Alpha"}, "5": {"stimulus": 52, "trial": 5, "rt": 8389, "response": "Beta"}, "4": {"stimulus": 66, "trial": 4, "rt": 5703, "response": "Gamma"}, "7": {"stimulus": 55, "trial": 7, "rt": 1088, "response": "Alpha"}, "6": {"stimulus": 72, "trial": 6, "rt": 5551, "response": "Alpha"}, "9": {"stimulus": 37, "trial": 9, "rt": 935, "response": "Alpha"}, "8": {"stimulus": 13, "trial": 8, "rt": 3928, "response": "Alpha"}, "78": {"stimulus": 47, "trial": 78, "rt": 10000, "response": "Alpha"}, "51": {"stimulus": 5, "trial": 51, "rt": 841, "response": "Beta"}, "39": {"stimulus": 9, "trial": 39, "rt": 1088, "response": "Alpha"}, "65": {"stimulus": 79, "trial": 65, "rt": 527, "response": "Beta"}, "76": {"stimulus": 2, "trial": 76, "rt": 776, "response": "Alpha"}, "75": {"stimulus": 44, "trial": 75, "rt": 830, "response": "Beta"}, "38": {"stimulus": 34, "trial": 38, "rt": 1488, "response": "Beta"}, "73": {"stimulus": 25, "trial": 73, "rt": 560, "response": "Beta"}, "72": {"stimulus": 57, "trial": 72, "rt": 829, "response": "Beta"}, "71": {"stimulus": 4, "trial": 71, "rt": 614, "response": "Alpha"}, "70": {"stimulus": 12, "trial": 70, "rt": 1311, "response": "Alpha"}, "59": {"stimulus": 17, "trial": 59, "rt": 954, "response": "Beta"}, "79": {"stimulus": 71, "trial": 79, "rt": 3336, "response": "Beta"}, "58": {"stimulus": 0, "trial": 58, "rt": 5793, "response": "Alpha"}, "11": {"stimulus": 65, "trial": 11, "rt": 1464, "response": "Gamma"}, "10": {"stimulus": 11, "trial": 10, "rt": 3372, "response": "Alpha"}, "13": {"stimulus": 1, "trial": 13, "rt": 702, "response": "Alpha"}, "12": {"stimulus": 6, "trial": 12, "rt": 1722, "response": "Alpha"}, "15": {"stimulus": 70, "trial": 15, "rt": 550, "response": "Beta"}, "14": {"stimulus": 42, "trial": 14, "rt": 1962, "response": "Beta"}, "17": {"stimulus": 39, "trial": 17, "rt": 2677, "response": "Alpha"}, "16": {"stimulus": 19, "trial": 16, "rt": 782, "response": "Alpha"}, "19": {"stimulus": 14, "trial": 19, "rt": 1222, "response": "Alpha"}, "18": {"stimulus": 35, "trial": 18, "rt": 961, "response": "Beta"}, "31": {"stimulus": 64, "trial": 31, "rt": 660, "response": "Gamma"}, "30": {"stimulus": 74, "trial": 30, "rt": 723, "response": "Beta"}, "37": {"stimulus": 30, "trial": 37, "rt": 2098, "response": "Alpha"}, "36": {"stimulus": 45, "trial": 36, "rt": 2045, "response": "Alpha"}, "35": {"stimulus": 62, "trial": 35, "rt": 951, "response": "Beta"}, "34": {"stimulus": 22, "trial": 34, "rt": 1200, "response": "Alpha"}, "33": {"stimulus": 41, "trial": 33, "rt": 1237, "response": "Alpha"}, "55": {"stimulus": 53, "trial": 55, "rt": 846, "response": "Beta"}, "74": {"stimulus": 51, "trial": 74, "rt": 1503, "response": "Beta"}, "32": {"stimulus": 38, "trial": 32, "rt": 1265, "response": "Gamma"}, "57": {"stimulus": 21, "trial": 57, "rt": 869, "response": "Alpha"}, "50": {"stimulus": 15, "trial": 50, "rt": 501, "response": "Beta"}}, "experiment": {"Paradigm": "TACL", "Stimuli": "Size-Color Squares", "Experiment": "Generating-Multiple-Categories"}, "submit": {"timeTotal": 501015, "age": "22", "comments": "None", "sex": "Male"}}