{"info": {"finish": 1535399409529, "participant": 172, "exposed": true, "lab": false, "start": 1535399213415, "counterbalance": 5, "gentype": 1, "condition": "Bottom", "browser": {"platform": "Win32", "userAgent": "Mozilla/5.0 (Windows NT 10.0; Win64; x64) AppleWebKit/537.36 (KHTML, like Gecko) Chrome/68.0.3440.106 Safari/537.36"}}, "observation": {"11": {"stimulus": 30, "trial": 11, "rt": 1323}, "10": {"stimulus": 14, "trial": 10, "rt": 1494}, "1": {"stimulus": 32, "trial": 1, "rt": 2394}, "0": {"stimulus": 14, "trial": 0, "rt": 2050}, "3": {"stimulus": 12, "trial": 3, "rt": 2100}, "2": {"stimulus": 30, "trial": 2, "rt": 3048}, "5": {"stimulus": 14, "trial": 5, "rt": 1689}, "4": {"stimulus": 32, "trial": 4, "rt": 7292}, "7": {"stimulus": 30, "trial": 7, "rt": 2015}, "6": {"stimulus": 12, "trial": 6, "rt": 1447}, "9": {"stimulus": 12, "trial": 9, "rt": 1345}, "8": {"stimulus": 32, "trial": 8, "rt": 1760}}, "generation": {"1": {"category": "Beta", "trial": 1, "stimulus": 19, "rt": 2503}, "0": {"category": "Beta", "trial": 0, "stimulus": 48, "rt": 3739}, "3": {"category": "Beta", "trial": 3, "stimulus": 42, "rt": 1602}, "2": {"category": "Beta", "trial": 2, "stimulus": 59, "rt": 1839}, "5": {"category": "Beta", "trial": 5, "stimulus": 56, "rt": 1648}, "4": {"category": "Beta", "trial": 4, "stimulus": 28, "rt": 1599}, "7": {"category": "Beta", "trial": 7, "stimulus": 62, "rt": 5530}, "6": {"category": "Beta", "trial": 6, "stimulus": 29, "rt": 2165}}, "generalization": {"56": {"stimulus": 64, "trial": 56, "rt": 23, "response": "Alpha"}, "77": {"stimulus": 36, "trial": 77, "rt": 153, "response": "Alpha"}, "54": {"stimulus": 10, "trial": 54, "rt": 66, "response": "Alpha"}, "42": {"stimulus": 60, "trial": 42, "rt": 87, "response": "Beta"}, "48": {"stimulus": 35, "trial": 48, "rt": 53, "response": "Alpha"}, "43": {"stimulus": 15, "trial": 43, "rt": 132, "response": "Beta"}, "60": {"stimulus": 50, "trial": 60, "rt": 88, "response": "Alpha"}, "61": {"stimulus": 54, "trial": 61, "rt": 77, "response": "Beta"}, "62": {"stimulus": 26, "trial": 62, "rt": 130, "response": "Beta"}, "63": {"stimulus": 18, "trial": 63, "rt": 99, "response": "Alpha"}, "64": {"stimulus": 5, "trial": 64, "rt": 1, "response": "Beta"}, "49": {"stimulus": 32, "trial": 49, "rt": 13, "response": "Beta"}, "66": {"stimulus": 51, "trial": 66, "rt": 176, "response": "Alpha"}, "67": {"stimulus": 28, "trial": 67, "rt": 142, "response": "Alpha"}, "68": {"stimulus": 62, "trial": 68, "rt": 77, "response": "Beta"}, "69": {"stimulus": 21, "trial": 69, "rt": 22, "response": "Beta"}, "80": {"stimulus": 12, "trial": 80, "rt": 958, "response": "Beta"}, "52": {"stimulus": 43, "trial": 52, "rt": 131, "response": "Alpha"}, "53": {"stimulus": 27, "trial": 53, "rt": 12, "response": "Alpha"}, "24": {"stimulus": 69, "trial": 24, "rt": 623, "response": "Beta"}, "25": {"stimulus": 75, "trial": 25, "rt": 204, "response": "Beta"}, "26": {"stimulus": 76, "trial": 26, "rt": 153, "response": "Alpha"}, "27": {"stimulus": 52, "trial": 27, "rt": 198, "response": "Alpha"}, "20": {"stimulus": 13, "trial": 20, "rt": 130, "response": "Alpha"}, "21": {"stimulus": 4, "trial": 21, "rt": 99, "response": "Beta"}, "22": {"stimulus": 6, "trial": 22, "rt": 207, "response": "Alpha"}, "23": {"stimulus": 16, "trial": 23, "rt": 314, "response": "Beta"}, "46": {"stimulus": 66, "trial": 46, "rt": 65, "response": "Beta"}, "47": {"stimulus": 74, "trial": 47, "rt": 35, "response": "Alpha"}, "44": {"stimulus": 55, "trial": 44, "rt": 76, "response": "Alpha"}, "45": {"stimulus": 53, "trial": 45, "rt": 197, "response": "Alpha"}, "28": {"stimulus": 65, "trial": 28, "rt": 165, "response": "Beta"}, "29": {"stimulus": 3, "trial": 29, "rt": 207, "response": "Alpha"}, "40": {"stimulus": 33, "trial": 40, "rt": 697, "response": "Alpha"}, "41": {"stimulus": 80, "trial": 41, "rt": 163, "response": "Beta"}, "1": {"stimulus": 73, "trial": 1, "rt": 412, "response": "Alpha"}, "0": {"stimulus": 19, "trial": 0, "rt": 1099, "response": "Alpha"}, "3": {"stimulus": 56, "trial": 3, "rt": 273, "response": "Beta"}, "2": {"stimulus": 68, "trial": 2, "rt": 317, "response": "Beta"}, "5": {"stimulus": 44, "trial": 5, "rt": 228, "response": "Alpha"}, "4": {"stimulus": 78, "trial": 4, "rt": 285, "response": "Beta"}, "7": {"stimulus": 31, "trial": 7, "rt": 251, "response": "Beta"}, "6": {"stimulus": 2, "trial": 6, "rt": 284, "response": "Beta"}, "9": {"stimulus": 45, "trial": 9, "rt": 142, "response": "Alpha"}, "8": {"stimulus": 42, "trial": 8, "rt": 252, "response": "Alpha"}, "78": {"stimulus": 25, "trial": 78, "rt": 218, "response": "Beta"}, "51": {"stimulus": 17, "trial": 51, "rt": 120, "response": "Beta"}, "39": {"stimulus": 79, "trial": 39, "rt": 665, "response": "Alpha"}, "65": {"stimulus": 59, "trial": 65, "rt": 120, "response": "Beta"}, "76": {"stimulus": 46, "trial": 76, "rt": 186, "response": "Alpha"}, "75": {"stimulus": 23, "trial": 75, "rt": 296, "response": "Alpha"}, "38": {"stimulus": 8, "trial": 38, "rt": 131, "response": "Beta"}, "73": {"stimulus": 22, "trial": 73, "rt": 130, "response": "Alpha"}, "72": {"stimulus": 70, "trial": 72, "rt": 119, "response": "Alpha"}, "71": {"stimulus": 14, "trial": 71, "rt": 1611, "response": "Alpha"}, "70": {"stimulus": 11, "trial": 70, "rt": 1, "response": "Alpha"}, "59": {"stimulus": 1, "trial": 59, "rt": 32, "response": "Alpha"}, "79": {"stimulus": 57, "trial": 79, "rt": 272, "response": "Beta"}, "58": {"stimulus": 0, "trial": 58, "rt": 52, "response": "Alpha"}, "11": {"stimulus": 58, "trial": 11, "rt": 220, "response": "Beta"}, "10": {"stimulus": 63, "trial": 10, "rt": 208, "response": "Alpha"}, "13": {"stimulus": 67, "trial": 13, "rt": 254, "response": "Alpha"}, "12": {"stimulus": 40, "trial": 12, "rt": 251, "response": "Beta"}, "15": {"stimulus": 71, "trial": 15, "rt": 208, "response": "Alpha"}, "14": {"stimulus": 49, "trial": 14, "rt": 96, "response": "Beta"}, "17": {"stimulus": 7, "trial": 17, "rt": 237, "response": "Beta"}, "16": {"stimulus": 41, "trial": 16, "rt": 154, "response": "Beta"}, "19": {"stimulus": 48, "trial": 19, "rt": 91, "response": "Alpha"}, "18": {"stimulus": 30, "trial": 18, "rt": 283, "response": "Alpha"}, "31": {"stimulus": 61, "trial": 31, "rt": 152, "response": "Beta"}, "30": {"stimulus": 72, "trial": 30, "rt": 109, "response": "Beta"}, "37": {"stimulus": 77, "trial": 37, "rt": 283, "response": "Beta"}, "36": {"stimulus": 38, "trial": 36, "rt": 24, "response": "Alpha"}, "35": {"stimulus": 9, "trial": 35, "rt": 118, "response": "Beta"}, "34": {"stimulus": 47, "trial": 34, "rt": 36, "response": "Beta"}, "33": {"stimulus": 37, "trial": 33, "rt": 229, "response": "Alpha"}, "55": {"stimulus": 24, "trial": 55, "rt": 55, "response": "Beta"}, "74": {"stimulus": 20, "trial": 74, "rt": 165, "response": "Beta"}, "32": {"stimulus": 39, "trial": 32, "rt": 186, "response": "Alpha"}, "57": {"stimulus": 29, "trial": 57, "rt": 524, "response": "Beta"}, "50": {"stimulus": 34, "trial": 50, "rt": 65, "response": "Beta"}}, "experiment": {"Paradigm": "TACL", "Stimuli": "Size-Color Squares", "Experiment": "Generating-Multiple-Categories"}, "submit": {"timeTotal": 196350, "age": "27", "comments": "Great study.", "sex": "Male"}}