{"info": {"finish": 1535402856902, "participant": 178, "exposed": true, "lab": false, "start": 1535402557268, "counterbalance": 0, "gentype": 0, "condition": "Bottom", "browser": {"platform": "Win32", "userAgent": "Mozilla/5.0 (Windows NT 6.1; Win64; x64) AppleWebKit/537.36 (KHTML, like Gecko) Chrome/68.0.3440.106 Safari/537.36"}}, "observation": {"11": {"stimulus": 30, "trial": 11, "rt": 1611}, "10": {"stimulus": 32, "trial": 10, "rt": 1432}, "1": {"stimulus": 32, "trial": 1, "rt": 1631}, "0": {"stimulus": 14, "trial": 0, "rt": 2512}, "3": {"stimulus": 30, "trial": 3, "rt": 2127}, "2": {"stimulus": 12, "trial": 2, "rt": 2217}, "5": {"stimulus": 30, "trial": 5, "rt": 1524}, "4": {"stimulus": 12, "trial": 4, "rt": 2454}, "7": {"stimulus": 14, "trial": 7, "rt": 1532}, "6": {"stimulus": 32, "trial": 6, "rt": 1522}, "9": {"stimulus": 12, "trial": 9, "rt": 1650}, "8": {"stimulus": 14, "trial": 8, "rt": 1550}}, "generation": {"1": {"category": "Not-Alpha", "trial": 1, "stimulus": 80, "rt": 13975}, "0": {"category": "Not-Alpha", "trial": 0, "stimulus": 72, "rt": 10540}, "3": {"category": "Not-Alpha", "trial": 3, "stimulus": 35, "rt": 3557}, "2": {"category": "Not-Alpha", "trial": 2, "stimulus": 53, "rt": 4649}, "5": {"category": "Not-Alpha", "trial": 5, "stimulus": 32, "rt": 2555}, "4": {"category": "Not-Alpha", "trial": 4, "stimulus": 5, "rt": 2365}, "7": {"category": "Not-Alpha", "trial": 7, "stimulus": 29, "rt": 2227}, "6": {"category": "Not-Alpha", "trial": 6, "stimulus": 40, "rt": 2565}}, "generalization": {"56": {"stimulus": 49, "trial": 56, "rt": 627, "response": "Beta"}, "77": {"stimulus": 11, "trial": 77, "rt": 1655, "response": "Alpha"}, "54": {"stimulus": 52, "trial": 54, "rt": 1442, "response": "Beta"}, "42": {"stimulus": 77, "trial": 42, "rt": 418, "response": "Beta"}, "48": {"stimulus": 64, "trial": 48, "rt": 1877, "response": "Beta"}, "43": {"stimulus": 37, "trial": 43, "rt": 1997, "response": "Alpha"}, "60": {"stimulus": 56, "trial": 60, "rt": 547, "response": "Alpha"}, "61": {"stimulus": 43, "trial": 61, "rt": 944, "response": "Beta"}, "62": {"stimulus": 42, "trial": 62, "rt": 618, "response": "Beta"}, "63": {"stimulus": 18, "trial": 63, "rt": 1133, "response": "Beta"}, "64": {"stimulus": 71, "trial": 64, "rt": 1412, "response": "Beta"}, "49": {"stimulus": 33, "trial": 49, "rt": 926, "response": "Beta"}, "66": {"stimulus": 76, "trial": 66, "rt": 966, "response": "Beta"}, "67": {"stimulus": 16, "trial": 67, "rt": 728, "response": "Beta"}, "68": {"stimulus": 38, "trial": 68, "rt": 1670, "response": "Alpha"}, "69": {"stimulus": 8, "trial": 69, "rt": 567, "response": "Alpha"}, "80": {"stimulus": 51, "trial": 80, "rt": 4202, "response": "Beta"}, "52": {"stimulus": 58, "trial": 52, "rt": 438, "response": "Beta"}, "53": {"stimulus": 20, "trial": 53, "rt": 965, "response": "Beta"}, "24": {"stimulus": 73, "trial": 24, "rt": 10145, "response": "Beta"}, "25": {"stimulus": 30, "trial": 25, "rt": 846, "response": "Beta"}, "26": {"stimulus": 5, "trial": 26, "rt": 618, "response": "Beta"}, "27": {"stimulus": 4, "trial": 27, "rt": 667, "response": "Alpha"}, "20": {"stimulus": 31, "trial": 20, "rt": 489, "response": "Alpha"}, "21": {"stimulus": 55, "trial": 21, "rt": 947, "response": "Beta"}, "22": {"stimulus": 74, "trial": 22, "rt": 1322, "response": "Beta"}, "23": {"stimulus": 0, "trial": 23, "rt": 4630, "response": "Beta"}, "46": {"stimulus": 32, "trial": 46, "rt": 746, "response": "Beta"}, "47": {"stimulus": 27, "trial": 47, "rt": 1184, "response": "Beta"}, "44": {"stimulus": 41, "trial": 44, "rt": 528, "response": "Alpha"}, "45": {"stimulus": 23, "trial": 45, "rt": 1730, "response": "Alpha"}, "28": {"stimulus": 54, "trial": 28, "rt": 866, "response": "Alpha"}, "29": {"stimulus": 1, "trial": 29, "rt": 1401, "response": "Alpha"}, "40": {"stimulus": 17, "trial": 40, "rt": 1096, "response": "Beta"}, "41": {"stimulus": 72, "trial": 41, "rt": 192, "response": "Beta"}, "1": {"stimulus": 62, "trial": 1, "rt": 1025, "response": "Beta"}, "0": {"stimulus": 10, "trial": 0, "rt": 1422, "response": "Alpha"}, "3": {"stimulus": 78, "trial": 3, "rt": 777, "response": "Beta"}, "2": {"stimulus": 66, "trial": 2, "rt": 1710, "response": "Beta"}, "5": {"stimulus": 36, "trial": 5, "rt": 1612, "response": "Alpha"}, "4": {"stimulus": 6, "trial": 4, "rt": 1015, "response": "Alpha"}, "7": {"stimulus": 22, "trial": 7, "rt": 518, "response": "Alpha"}, "6": {"stimulus": 9, "trial": 6, "rt": 877, "response": "Alpha"}, "9": {"stimulus": 26, "trial": 9, "rt": 811, "response": "Beta"}, "8": {"stimulus": 47, "trial": 8, "rt": 940, "response": "Beta"}, "78": {"stimulus": 29, "trial": 78, "rt": 1576, "response": "Beta"}, "51": {"stimulus": 45, "trial": 51, "rt": 847, "response": "Beta"}, "39": {"stimulus": 7, "trial": 39, "rt": 507, "response": "Alpha"}, "65": {"stimulus": 21, "trial": 65, "rt": 2464, "response": "Alpha"}, "76": {"stimulus": 35, "trial": 76, "rt": 4302, "response": "Beta"}, "75": {"stimulus": 53, "trial": 75, "rt": 756, "response": "Beta"}, "38": {"stimulus": 2, "trial": 38, "rt": 804, "response": "Alpha"}, "73": {"stimulus": 48, "trial": 73, "rt": 1719, "response": "Alpha"}, "72": {"stimulus": 50, "trial": 72, "rt": 1621, "response": "Beta"}, "71": {"stimulus": 70, "trial": 71, "rt": 1562, "response": "Beta"}, "70": {"stimulus": 34, "trial": 70, "rt": 725, "response": "Beta"}, "59": {"stimulus": 14, "trial": 59, "rt": 947, "response": "Alpha"}, "79": {"stimulus": 13, "trial": 79, "rt": 995, "response": "Beta"}, "58": {"stimulus": 61, "trial": 58, "rt": 1174, "response": "Beta"}, "11": {"stimulus": 59, "trial": 11, "rt": 1044, "response": "Alpha"}, "10": {"stimulus": 12, "trial": 10, "rt": 696, "response": "Beta"}, "13": {"stimulus": 39, "trial": 13, "rt": 5950, "response": "Beta"}, "12": {"stimulus": 40, "trial": 12, "rt": 994, "response": "Alpha"}, "15": {"stimulus": 57, "trial": 15, "rt": 1006, "response": "Alpha"}, "14": {"stimulus": 75, "trial": 14, "rt": 458, "response": "Beta"}, "17": {"stimulus": 79, "trial": 17, "rt": 1799, "response": "Beta"}, "16": {"stimulus": 68, "trial": 16, "rt": 2893, "response": "Beta"}, "19": {"stimulus": 28, "trial": 19, "rt": 627, "response": "Alpha"}, "18": {"stimulus": 19, "trial": 18, "rt": 1203, "response": "Alpha"}, "31": {"stimulus": 63, "trial": 31, "rt": 1013, "response": "Beta"}, "30": {"stimulus": 3, "trial": 30, "rt": 547, "response": "Alpha"}, "37": {"stimulus": 44, "trial": 37, "rt": 659, "response": "Beta"}, "36": {"stimulus": 67, "trial": 36, "rt": 698, "response": "Beta"}, "35": {"stimulus": 80, "trial": 35, "rt": 906, "response": "Beta"}, "34": {"stimulus": 69, "trial": 34, "rt": 1015, "response": "Alpha"}, "33": {"stimulus": 25, "trial": 33, "rt": 679, "response": "Beta"}, "55": {"stimulus": 60, "trial": 55, "rt": 627, "response": "Beta"}, "74": {"stimulus": 65, "trial": 74, "rt": 1184, "response": "Beta"}, "32": {"stimulus": 24, "trial": 32, "rt": 1194, "response": "Beta"}, "57": {"stimulus": 46, "trial": 57, "rt": 380, "response": "Alpha"}, "50": {"stimulus": 15, "trial": 50, "rt": 1353, "response": "Beta"}}, "experiment": {"Paradigm": "TACL", "Stimuli": "Size-Color Squares", "Experiment": "Generating-Multiple-Categories"}, "submit": {"timeTotal": 300260, "age": "29", "comments": "", "sex": "Female"}}