{"info": {"finish": 1534981993962, "participant": 18, "exposed": true, "lab": false, "start": 1534981512194, "counterbalance": 2, "gentype": 1, "condition": "Bottom", "browser": {"platform": "Win32", "userAgent": "Mozilla/5.0 (Windows NT 10.0; Win64; x64) AppleWebKit/537.36 (KHTML, like Gecko) Chrome/63.0.3239.109 Safari/537.36"}}, "observation": {"11": {"stimulus": 30, "trial": 11, "rt": 1440}, "10": {"stimulus": 14, "trial": 10, "rt": 1332}, "1": {"stimulus": 12, "trial": 1, "rt": 1926}, "0": {"stimulus": 30, "trial": 0, "rt": 2264}, "3": {"stimulus": 32, "trial": 3, "rt": 1393}, "2": {"stimulus": 14, "trial": 2, "rt": 25929}, "5": {"stimulus": 12, "trial": 5, "rt": 1329}, "4": {"stimulus": 14, "trial": 4, "rt": 1362}, "7": {"stimulus": 32, "trial": 7, "rt": 1338}, "6": {"stimulus": 30, "trial": 6, "rt": 1325}, "9": {"stimulus": 12, "trial": 9, "rt": 1352}, "8": {"stimulus": 32, "trial": 8, "rt": 1346}}, "generation": {"1": {"category": "Beta", "trial": 1, "stimulus": 64, "rt": 5857}, "0": {"category": "Beta", "trial": 0, "stimulus": 2, "rt": 11407}, "3": {"category": "Beta", "trial": 3, "stimulus": 76, "rt": 3188}, "2": {"category": "Beta", "trial": 2, "stimulus": 72, "rt": 3474}, "5": {"category": "Beta", "trial": 5, "stimulus": 71, "rt": 3395}, "4": {"category": "Beta", "trial": 4, "stimulus": 79, "rt": 2522}, "7": {"category": "Beta", "trial": 7, "stimulus": 77, "rt": 3775}, "6": {"category": "Beta", "trial": 6, "stimulus": 73, "rt": 4699}}, "generalization": {"56": {"stimulus": 62, "trial": 56, "rt": 611, "response": "Beta"}, "77": {"stimulus": 58, "trial": 77, "rt": 695, "response": "Beta"}, "54": {"stimulus": 22, "trial": 54, "rt": 688, "response": "Alpha"}, "42": {"stimulus": 71, "trial": 42, "rt": 685, "response": "Beta"}, "48": {"stimulus": 35, "trial": 48, "rt": 367, "response": "Alpha"}, "43": {"stimulus": 21, "trial": 43, "rt": 555, "response": "Alpha"}, "60": {"stimulus": 45, "trial": 60, "rt": 701, "response": "Beta"}, "61": {"stimulus": 52, "trial": 61, "rt": 856, "response": "Beta"}, "62": {"stimulus": 34, "trial": 62, "rt": 765, "response": "Alpha"}, "63": {"stimulus": 26, "trial": 63, "rt": 588, "response": "Alpha"}, "64": {"stimulus": 49, "trial": 64, "rt": 1144, "response": "Beta"}, "49": {"stimulus": 40, "trial": 49, "rt": 460, "response": "Alpha"}, "66": {"stimulus": 14, "trial": 66, "rt": 541, "response": "Alpha"}, "67": {"stimulus": 1, "trial": 67, "rt": 469, "response": "Alpha"}, "68": {"stimulus": 9, "trial": 68, "rt": 464, "response": "Alpha"}, "69": {"stimulus": 4, "trial": 69, "rt": 476, "response": "Alpha"}, "80": {"stimulus": 78, "trial": 80, "rt": 756, "response": "Beta"}, "52": {"stimulus": 25, "trial": 52, "rt": 424, "response": "Alpha"}, "53": {"stimulus": 70, "trial": 53, "rt": 741, "response": "Beta"}, "24": {"stimulus": 54, "trial": 24, "rt": 727, "response": "Beta"}, "25": {"stimulus": 10, "trial": 25, "rt": 818, "response": "Alpha"}, "26": {"stimulus": 32, "trial": 26, "rt": 789, "response": "Alpha"}, "27": {"stimulus": 76, "trial": 27, "rt": 548, "response": "Beta"}, "20": {"stimulus": 63, "trial": 20, "rt": 725, "response": "Beta"}, "21": {"stimulus": 65, "trial": 21, "rt": 657, "response": "Beta"}, "22": {"stimulus": 48, "trial": 22, "rt": 1004, "response": "Alpha"}, "23": {"stimulus": 28, "trial": 23, "rt": 532, "response": "Alpha"}, "46": {"stimulus": 12, "trial": 46, "rt": 356, "response": "Alpha"}, "47": {"stimulus": 6, "trial": 47, "rt": 358, "response": "Alpha"}, "44": {"stimulus": 8, "trial": 44, "rt": 457, "response": "Alpha"}, "45": {"stimulus": 33, "trial": 45, "rt": 369, "response": "Alpha"}, "28": {"stimulus": 59, "trial": 28, "rt": 464, "response": "Beta"}, "29": {"stimulus": 66, "trial": 29, "rt": 595, "response": "Beta"}, "40": {"stimulus": 80, "trial": 40, "rt": 601, "response": "Beta"}, "41": {"stimulus": 51, "trial": 41, "rt": 1309, "response": "Beta"}, "1": {"stimulus": 77, "trial": 1, "rt": 478, "response": "Beta"}, "0": {"stimulus": 79, "trial": 0, "rt": 1415, "response": "Beta"}, "3": {"stimulus": 60, "trial": 3, "rt": 508, "response": "Alpha"}, "2": {"stimulus": 7, "trial": 2, "rt": 656, "response": "Alpha"}, "5": {"stimulus": 20, "trial": 5, "rt": 632, "response": "Alpha"}, "4": {"stimulus": 72, "trial": 4, "rt": 719, "response": "Beta"}, "7": {"stimulus": 13, "trial": 7, "rt": 392, "response": "Alpha"}, "6": {"stimulus": 3, "trial": 6, "rt": 440, "response": "Alpha"}, "9": {"stimulus": 36, "trial": 9, "rt": 860, "response": "Alpha"}, "8": {"stimulus": 74, "trial": 8, "rt": 634, "response": "Beta"}, "78": {"stimulus": 16, "trial": 78, "rt": 687, "response": "Alpha"}, "51": {"stimulus": 2, "trial": 51, "rt": 455, "response": "Alpha"}, "39": {"stimulus": 73, "trial": 39, "rt": 937, "response": "Beta"}, "65": {"stimulus": 39, "trial": 65, "rt": 748, "response": "Alpha"}, "76": {"stimulus": 24, "trial": 76, "rt": 540, "response": "Alpha"}, "75": {"stimulus": 18, "trial": 75, "rt": 578, "response": "Alpha"}, "38": {"stimulus": 55, "trial": 38, "rt": 778, "response": "Beta"}, "73": {"stimulus": 27, "trial": 73, "rt": 782, "response": "Alpha"}, "72": {"stimulus": 67, "trial": 72, "rt": 674, "response": "Beta"}, "71": {"stimulus": 47, "trial": 71, "rt": 571, "response": "Beta"}, "70": {"stimulus": 64, "trial": 70, "rt": 664, "response": "Beta"}, "59": {"stimulus": 57, "trial": 59, "rt": 734, "response": "Beta"}, "79": {"stimulus": 41, "trial": 79, "rt": 1788, "response": "Alpha"}, "58": {"stimulus": 5, "trial": 58, "rt": 462, "response": "Alpha"}, "11": {"stimulus": 31, "trial": 11, "rt": 687, "response": "Alpha"}, "10": {"stimulus": 46, "trial": 10, "rt": 3878, "response": "Alpha"}, "13": {"stimulus": 29, "trial": 13, "rt": 788, "response": "Alpha"}, "12": {"stimulus": 69, "trial": 12, "rt": 703, "response": "Beta"}, "15": {"stimulus": 75, "trial": 15, "rt": 711, "response": "Beta"}, "14": {"stimulus": 23, "trial": 14, "rt": 565, "response": "Alpha"}, "17": {"stimulus": 44, "trial": 17, "rt": 710, "response": "Alpha"}, "16": {"stimulus": 56, "trial": 16, "rt": 633, "response": "Beta"}, "19": {"stimulus": 42, "trial": 19, "rt": 501, "response": "Alpha"}, "18": {"stimulus": 43, "trial": 18, "rt": 495, "response": "Alpha"}, "31": {"stimulus": 50, "trial": 31, "rt": 1307, "response": "Beta"}, "30": {"stimulus": 19, "trial": 30, "rt": 570, "response": "Alpha"}, "37": {"stimulus": 61, "trial": 37, "rt": 750, "response": "Beta"}, "36": {"stimulus": 11, "trial": 36, "rt": 610, "response": "Alpha"}, "35": {"stimulus": 53, "trial": 35, "rt": 876, "response": "Beta"}, "34": {"stimulus": 17, "trial": 34, "rt": 424, "response": "Alpha"}, "33": {"stimulus": 15, "trial": 33, "rt": 400, "response": "Alpha"}, "55": {"stimulus": 68, "trial": 55, "rt": 717, "response": "Beta"}, "74": {"stimulus": 38, "trial": 74, "rt": 1221, "response": "Alpha"}, "32": {"stimulus": 0, "trial": 32, "rt": 532, "response": "Alpha"}, "57": {"stimulus": 30, "trial": 57, "rt": 908, "response": "Alpha"}, "50": {"stimulus": 37, "trial": 50, "rt": 673, "response": "Alpha"}}, "experiment": {"Paradigm": "TACL", "Stimuli": "Size-Color Squares", "Experiment": "Generating-Multiple-Categories"}, "submit": {"timeTotal": 482140, "age": "35", "comments": "It was okay.", "sex": "male"}}