{"info": {"finish": 1535403475221, "participant": 180, "exposed": true, "lab": false, "start": 1535403231344, "counterbalance": 5, "gentype": 1, "condition": "Middle", "browser": {"platform": "Win32", "userAgent": "Mozilla/5.0 (Windows NT 10.0; Win64; x64) AppleWebKit/537.36 (KHTML, like Gecko) Chrome/68.0.3440.106 Safari/537.36"}}, "observation": {"11": {"stimulus": 32, "trial": 11, "rt": 1503}, "10": {"stimulus": 48, "trial": 10, "rt": 1559}, "1": {"stimulus": 50, "trial": 1, "rt": 1917}, "0": {"stimulus": 32, "trial": 0, "rt": 2268}, "3": {"stimulus": 30, "trial": 3, "rt": 1575}, "2": {"stimulus": 48, "trial": 2, "rt": 1751}, "5": {"stimulus": 50, "trial": 5, "rt": 1710}, "4": {"stimulus": 30, "trial": 4, "rt": 1663}, "7": {"stimulus": 32, "trial": 7, "rt": 2527}, "6": {"stimulus": 48, "trial": 6, "rt": 1830}, "9": {"stimulus": 30, "trial": 9, "rt": 1903}, "8": {"stimulus": 50, "trial": 8, "rt": 1639}}, "generation": {"1": {"category": "Beta", "trial": 1, "stimulus": 79, "rt": 7455}, "0": {"category": "Beta", "trial": 0, "stimulus": 53, "rt": 7751}, "3": {"category": "Beta", "trial": 3, "stimulus": 34, "rt": 3031}, "2": {"category": "Beta", "trial": 2, "stimulus": 71, "rt": 4101}, "5": {"category": "Beta", "trial": 5, "stimulus": 62, "rt": 6406}, "4": {"category": "Beta", "trial": 4, "stimulus": 35, "rt": 5655}, "7": {"category": "Beta", "trial": 7, "stimulus": 24, "rt": 4350}, "6": {"category": "Beta", "trial": 6, "stimulus": 80, "rt": 4783}}, "generalization": {"56": {"stimulus": 26, "trial": 56, "rt": 1022, "response": "Beta"}, "77": {"stimulus": 33, "trial": 77, "rt": 496, "response": "Beta"}, "54": {"stimulus": 30, "trial": 54, "rt": 519, "response": "Alpha"}, "42": {"stimulus": 75, "trial": 42, "rt": 583, "response": "Alpha"}, "48": {"stimulus": 14, "trial": 48, "rt": 470, "response": "Beta"}, "43": {"stimulus": 42, "trial": 43, "rt": 919, "response": "Beta"}, "60": {"stimulus": 25, "trial": 60, "rt": 847, "response": "Beta"}, "61": {"stimulus": 19, "trial": 61, "rt": 861, "response": "Alpha"}, "62": {"stimulus": 64, "trial": 62, "rt": 575, "response": "Alpha"}, "63": {"stimulus": 78, "trial": 63, "rt": 871, "response": "Beta"}, "64": {"stimulus": 2, "trial": 64, "rt": 895, "response": "Alpha"}, "49": {"stimulus": 23, "trial": 49, "rt": 710, "response": "Beta"}, "66": {"stimulus": 61, "trial": 66, "rt": 495, "response": "Beta"}, "67": {"stimulus": 50, "trial": 67, "rt": 775, "response": "Beta"}, "68": {"stimulus": 15, "trial": 68, "rt": 463, "response": "Beta"}, "69": {"stimulus": 68, "trial": 69, "rt": 927, "response": "Beta"}, "80": {"stimulus": 40, "trial": 80, "rt": 607, "response": "Alpha"}, "52": {"stimulus": 38, "trial": 52, "rt": 1117, "response": "Alpha"}, "53": {"stimulus": 11, "trial": 53, "rt": 535, "response": "Alpha"}, "24": {"stimulus": 58, "trial": 24, "rt": 638, "response": "Alpha"}, "25": {"stimulus": 52, "trial": 25, "rt": 799, "response": "Beta"}, "26": {"stimulus": 37, "trial": 26, "rt": 1246, "response": "Alpha"}, "27": {"stimulus": 45, "trial": 27, "rt": 591, "response": "Alpha"}, "20": {"stimulus": 51, "trial": 20, "rt": 543, "response": "Beta"}, "21": {"stimulus": 67, "trial": 21, "rt": 943, "response": "Alpha"}, "22": {"stimulus": 44, "trial": 22, "rt": 766, "response": "Beta"}, "23": {"stimulus": 21, "trial": 23, "rt": 1120, "response": "Alpha"}, "46": {"stimulus": 12, "trial": 46, "rt": 903, "response": "Alpha"}, "47": {"stimulus": 80, "trial": 47, "rt": 1071, "response": "Beta"}, "44": {"stimulus": 57, "trial": 44, "rt": 1008, "response": "Alpha"}, "45": {"stimulus": 41, "trial": 45, "rt": 1942, "response": "Beta"}, "28": {"stimulus": 27, "trial": 28, "rt": 559, "response": "Alpha"}, "29": {"stimulus": 60, "trial": 29, "rt": 1079, "response": "Beta"}, "40": {"stimulus": 73, "trial": 40, "rt": 544, "response": "Alpha"}, "41": {"stimulus": 10, "trial": 41, "rt": 511, "response": "Alpha"}, "1": {"stimulus": 0, "trial": 1, "rt": 935, "response": "Alpha"}, "0": {"stimulus": 17, "trial": 0, "rt": 1325, "response": "Beta"}, "3": {"stimulus": 28, "trial": 3, "rt": 647, "response": "Alpha"}, "2": {"stimulus": 31, "trial": 2, "rt": 695, "response": "Alpha"}, "5": {"stimulus": 22, "trial": 5, "rt": 565, "response": "Alpha"}, "4": {"stimulus": 3, "trial": 4, "rt": 623, "response": "Alpha"}, "7": {"stimulus": 35, "trial": 7, "rt": 911, "response": "Beta"}, "6": {"stimulus": 47, "trial": 6, "rt": 647, "response": "Alpha"}, "9": {"stimulus": 16, "trial": 9, "rt": 543, "response": "Beta"}, "8": {"stimulus": 5, "trial": 8, "rt": 487, "response": "Beta"}, "78": {"stimulus": 18, "trial": 78, "rt": 878, "response": "Alpha"}, "51": {"stimulus": 13, "trial": 51, "rt": 822, "response": "Beta"}, "39": {"stimulus": 74, "trial": 39, "rt": 543, "response": "Alpha"}, "65": {"stimulus": 24, "trial": 65, "rt": 855, "response": "Beta"}, "76": {"stimulus": 43, "trial": 76, "rt": 503, "response": "Beta"}, "75": {"stimulus": 70, "trial": 75, "rt": 886, "response": "Beta"}, "38": {"stimulus": 39, "trial": 38, "rt": 560, "response": "Alpha"}, "73": {"stimulus": 54, "trial": 73, "rt": 631, "response": "Alpha"}, "72": {"stimulus": 59, "trial": 72, "rt": 712, "response": "Alpha"}, "71": {"stimulus": 4, "trial": 71, "rt": 1176, "response": "Alpha"}, "70": {"stimulus": 32, "trial": 70, "rt": 520, "response": "Beta"}, "59": {"stimulus": 36, "trial": 59, "rt": 495, "response": "Alpha"}, "79": {"stimulus": 63, "trial": 79, "rt": 592, "response": "Alpha"}, "58": {"stimulus": 46, "trial": 58, "rt": 951, "response": "Alpha"}, "11": {"stimulus": 65, "trial": 11, "rt": 591, "response": "Alpha"}, "10": {"stimulus": 1, "trial": 10, "rt": 1031, "response": "Alpha"}, "13": {"stimulus": 9, "trial": 13, "rt": 1120, "response": "Alpha"}, "12": {"stimulus": 69, "trial": 12, "rt": 879, "response": "Beta"}, "15": {"stimulus": 29, "trial": 15, "rt": 1422, "response": "Alpha"}, "14": {"stimulus": 7, "trial": 14, "rt": 823, "response": "Beta"}, "17": {"stimulus": 8, "trial": 17, "rt": 520, "response": "Beta"}, "16": {"stimulus": 71, "trial": 16, "rt": 807, "response": "Beta"}, "19": {"stimulus": 62, "trial": 19, "rt": 815, "response": "Beta"}, "18": {"stimulus": 56, "trial": 18, "rt": 863, "response": "Alpha"}, "31": {"stimulus": 49, "trial": 31, "rt": 895, "response": "Alpha"}, "30": {"stimulus": 79, "trial": 30, "rt": 511, "response": "Beta"}, "37": {"stimulus": 55, "trial": 37, "rt": 1110, "response": "Alpha"}, "36": {"stimulus": 34, "trial": 36, "rt": 494, "response": "Beta"}, "35": {"stimulus": 53, "trial": 35, "rt": 1056, "response": "Beta"}, "34": {"stimulus": 20, "trial": 34, "rt": 551, "response": "Alpha"}, "33": {"stimulus": 48, "trial": 33, "rt": 551, "response": "Alpha"}, "55": {"stimulus": 66, "trial": 55, "rt": 535, "response": "Alpha"}, "74": {"stimulus": 76, "trial": 74, "rt": 558, "response": "Alpha"}, "32": {"stimulus": 72, "trial": 32, "rt": 543, "response": "Alpha"}, "57": {"stimulus": 6, "trial": 57, "rt": 455, "response": "Beta"}, "50": {"stimulus": 77, "trial": 50, "rt": 606, "response": "Beta"}}, "experiment": {"Paradigm": "TACL", "Stimuli": "Size-Color Squares", "Experiment": "Generating-Multiple-Categories"}, "submit": {"timeTotal": 244153, "age": "35", "comments": "Very interesting!", "sex": "Female"}}