{"info": {"finish": 1535403898023, "participant": 181, "exposed": true, "lab": false, "start": 1535403635824, "counterbalance": 0, "gentype": 0, "condition": "Bottom", "browser": {"platform": "Win32", "userAgent": "Mozilla/5.0 (Windows NT 10.0; WOW64) AppleWebKit/537.36 (KHTML, like Gecko) Chrome/62.0.3202.94 Safari/537.36"}}, "observation": {"11": {"stimulus": 30, "trial": 11, "rt": 1979}, "10": {"stimulus": 12, "trial": 10, "rt": 1886}, "1": {"stimulus": 32, "trial": 1, "rt": 1787}, "0": {"stimulus": 30, "trial": 0, "rt": 2487}, "3": {"stimulus": 12, "trial": 3, "rt": 1539}, "2": {"stimulus": 14, "trial": 2, "rt": 1831}, "5": {"stimulus": 14, "trial": 5, "rt": 2001}, "4": {"stimulus": 30, "trial": 4, "rt": 1741}, "7": {"stimulus": 32, "trial": 7, "rt": 1426}, "6": {"stimulus": 12, "trial": 6, "rt": 1600}, "9": {"stimulus": 14, "trial": 9, "rt": 1610}, "8": {"stimulus": 32, "trial": 8, "rt": 1942}}, "generation": {"1": {"category": "Not-Alpha", "trial": 1, "stimulus": 64, "rt": 3897}, "0": {"category": "Not-Alpha", "trial": 0, "stimulus": 72, "rt": 11185}, "3": {"category": "Not-Alpha", "trial": 3, "stimulus": 80, "rt": 4153}, "2": {"category": "Not-Alpha", "trial": 2, "stimulus": 54, "rt": 10031}, "5": {"category": "Not-Alpha", "trial": 5, "stimulus": 70, "rt": 4162}, "4": {"category": "Not-Alpha", "trial": 4, "stimulus": 69, "rt": 5731}, "7": {"category": "Not-Alpha", "trial": 7, "stimulus": 25, "rt": 2662}, "6": {"category": "Not-Alpha", "trial": 6, "stimulus": 8, "rt": 4465}}, "generalization": {"56": {"stimulus": 73, "trial": 56, "rt": 689, "response": "Beta"}, "77": {"stimulus": 8, "trial": 77, "rt": 650, "response": "Alpha"}, "54": {"stimulus": 44, "trial": 54, "rt": 1481, "response": "Alpha"}, "42": {"stimulus": 11, "trial": 42, "rt": 664, "response": "Alpha"}, "48": {"stimulus": 55, "trial": 48, "rt": 788, "response": "Beta"}, "43": {"stimulus": 13, "trial": 43, "rt": 618, "response": "Alpha"}, "60": {"stimulus": 69, "trial": 60, "rt": 587, "response": "Beta"}, "61": {"stimulus": 70, "trial": 61, "rt": 479, "response": "Beta"}, "62": {"stimulus": 31, "trial": 62, "rt": 988, "response": "Alpha"}, "63": {"stimulus": 35, "trial": 63, "rt": 547, "response": "Alpha"}, "64": {"stimulus": 0, "trial": 64, "rt": 586, "response": "Alpha"}, "49": {"stimulus": 1, "trial": 49, "rt": 692, "response": "Alpha"}, "66": {"stimulus": 36, "trial": 66, "rt": 547, "response": "Beta"}, "67": {"stimulus": 52, "trial": 67, "rt": 565, "response": "Beta"}, "68": {"stimulus": 29, "trial": 68, "rt": 692, "response": "Alpha"}, "69": {"stimulus": 50, "trial": 69, "rt": 819, "response": "Beta"}, "80": {"stimulus": 75, "trial": 80, "rt": 483, "response": "Beta"}, "52": {"stimulus": 56, "trial": 52, "rt": 834, "response": "Beta"}, "53": {"stimulus": 4, "trial": 53, "rt": 704, "response": "Alpha"}, "24": {"stimulus": 40, "trial": 24, "rt": 734, "response": "Alpha"}, "25": {"stimulus": 57, "trial": 25, "rt": 806, "response": "Beta"}, "26": {"stimulus": 32, "trial": 26, "rt": 796, "response": "Alpha"}, "27": {"stimulus": 14, "trial": 27, "rt": 781, "response": "Alpha"}, "20": {"stimulus": 12, "trial": 20, "rt": 729, "response": "Alpha"}, "21": {"stimulus": 80, "trial": 21, "rt": 921, "response": "Beta"}, "22": {"stimulus": 71, "trial": 22, "rt": 473, "response": "Beta"}, "23": {"stimulus": 39, "trial": 23, "rt": 772, "response": "Alpha"}, "46": {"stimulus": 7, "trial": 46, "rt": 784, "response": "Alpha"}, "47": {"stimulus": 5, "trial": 47, "rt": 643, "response": "Alpha"}, "44": {"stimulus": 28, "trial": 44, "rt": 734, "response": "Alpha"}, "45": {"stimulus": 60, "trial": 45, "rt": 771, "response": "Beta"}, "28": {"stimulus": 9, "trial": 28, "rt": 655, "response": "Alpha"}, "29": {"stimulus": 33, "trial": 29, "rt": 969, "response": "Beta"}, "40": {"stimulus": 18, "trial": 40, "rt": 748, "response": "Alpha"}, "41": {"stimulus": 19, "trial": 41, "rt": 709, "response": "Alpha"}, "1": {"stimulus": 15, "trial": 1, "rt": 1544, "response": "Alpha"}, "0": {"stimulus": 68, "trial": 0, "rt": 1789, "response": "Alpha"}, "3": {"stimulus": 6, "trial": 3, "rt": 906, "response": "Alpha"}, "2": {"stimulus": 37, "trial": 2, "rt": 1336, "response": "Alpha"}, "5": {"stimulus": 26, "trial": 5, "rt": 1640, "response": "Alpha"}, "4": {"stimulus": 22, "trial": 4, "rt": 1005, "response": "Beta"}, "7": {"stimulus": 27, "trial": 7, "rt": 397, "response": "Alpha"}, "6": {"stimulus": 2, "trial": 6, "rt": 705, "response": "Beta"}, "9": {"stimulus": 77, "trial": 9, "rt": 761, "response": "Beta"}, "8": {"stimulus": 58, "trial": 8, "rt": 1306, "response": "Beta"}, "78": {"stimulus": 21, "trial": 78, "rt": 612, "response": "Alpha"}, "51": {"stimulus": 10, "trial": 51, "rt": 622, "response": "Alpha"}, "39": {"stimulus": 61, "trial": 39, "rt": 445, "response": "Beta"}, "65": {"stimulus": 66, "trial": 65, "rt": 669, "response": "Beta"}, "76": {"stimulus": 67, "trial": 76, "rt": 531, "response": "Beta"}, "75": {"stimulus": 47, "trial": 75, "rt": 552, "response": "Beta"}, "38": {"stimulus": 51, "trial": 38, "rt": 479, "response": "Beta"}, "73": {"stimulus": 62, "trial": 73, "rt": 690, "response": "Beta"}, "72": {"stimulus": 23, "trial": 72, "rt": 699, "response": "Alpha"}, "71": {"stimulus": 38, "trial": 71, "rt": 669, "response": "Beta"}, "70": {"stimulus": 59, "trial": 70, "rt": 523, "response": "Beta"}, "59": {"stimulus": 41, "trial": 59, "rt": 778, "response": "Alpha"}, "79": {"stimulus": 16, "trial": 79, "rt": 678, "response": "Alpha"}, "58": {"stimulus": 3, "trial": 58, "rt": 740, "response": "Alpha"}, "11": {"stimulus": 78, "trial": 11, "rt": 647, "response": "Beta"}, "10": {"stimulus": 74, "trial": 10, "rt": 735, "response": "Beta"}, "13": {"stimulus": 63, "trial": 13, "rt": 969, "response": "Beta"}, "12": {"stimulus": 53, "trial": 12, "rt": 513, "response": "Beta"}, "15": {"stimulus": 64, "trial": 15, "rt": 531, "response": "Beta"}, "14": {"stimulus": 54, "trial": 14, "rt": 661, "response": "Beta"}, "17": {"stimulus": 65, "trial": 17, "rt": 972, "response": "Beta"}, "16": {"stimulus": 30, "trial": 16, "rt": 873, "response": "Alpha"}, "19": {"stimulus": 79, "trial": 19, "rt": 751, "response": "Beta"}, "18": {"stimulus": 45, "trial": 18, "rt": 641, "response": "Beta"}, "31": {"stimulus": 34, "trial": 31, "rt": 1033, "response": "Beta"}, "30": {"stimulus": 49, "trial": 30, "rt": 583, "response": "Beta"}, "37": {"stimulus": 48, "trial": 37, "rt": 510, "response": "Beta"}, "36": {"stimulus": 24, "trial": 36, "rt": 987, "response": "Alpha"}, "35": {"stimulus": 76, "trial": 35, "rt": 514, "response": "Beta"}, "34": {"stimulus": 20, "trial": 34, "rt": 702, "response": "Alpha"}, "33": {"stimulus": 43, "trial": 33, "rt": 843, "response": "Beta"}, "55": {"stimulus": 42, "trial": 55, "rt": 783, "response": "Alpha"}, "74": {"stimulus": 25, "trial": 74, "rt": 731, "response": "Alpha"}, "32": {"stimulus": 17, "trial": 32, "rt": 776, "response": "Alpha"}, "57": {"stimulus": 46, "trial": 57, "rt": 508, "response": "Beta"}, "50": {"stimulus": 72, "trial": 50, "rt": 837, "response": "Beta"}}, "experiment": {"Paradigm": "TACL", "Stimuli": "Size-Color Squares", "Experiment": "Generating-Multiple-Categories"}, "submit": {"timeTotal": 262471, "age": "34", "comments": "Everything worked great. i had no issues.", "sex": "male"}}