{"info": {"finish": 1535407963319, "participant": 184, "exposed": true, "lab": false, "start": 1535407596166, "counterbalance": 5, "gentype": 1, "condition": "Middle", "browser": {"platform": "Win32", "userAgent": "Mozilla/5.0 (Windows NT 6.3; Win64; x64) AppleWebKit/537.36 (KHTML, like Gecko) Chrome/68.0.3440.106 Safari/537.36"}}, "observation": {"11": {"stimulus": 48, "trial": 11, "rt": 2599}, "10": {"stimulus": 32, "trial": 10, "rt": 3357}, "1": {"stimulus": 32, "trial": 1, "rt": 3109}, "0": {"stimulus": 50, "trial": 0, "rt": 8049}, "3": {"stimulus": 48, "trial": 3, "rt": 2471}, "2": {"stimulus": 30, "trial": 2, "rt": 3847}, "5": {"stimulus": 32, "trial": 5, "rt": 2806}, "4": {"stimulus": 48, "trial": 4, "rt": 2296}, "7": {"stimulus": 30, "trial": 7, "rt": 2760}, "6": {"stimulus": 50, "trial": 6, "rt": 3342}, "9": {"stimulus": 30, "trial": 9, "rt": 2992}, "8": {"stimulus": 50, "trial": 8, "rt": 1104}}, "generation": {"1": {"category": "Beta", "trial": 1, "stimulus": 11, "rt": 18106}, "0": {"category": "Beta", "trial": 0, "stimulus": 56, "rt": 7459}, "3": {"category": "Beta", "trial": 3, "stimulus": 51, "rt": 4822}, "2": {"category": "Beta", "trial": 2, "stimulus": 57, "rt": 3796}, "5": {"category": "Beta", "trial": 5, "stimulus": 8, "rt": 4253}, "4": {"category": "Beta", "trial": 4, "stimulus": 34, "rt": 5468}, "7": {"category": "Beta", "trial": 7, "stimulus": 31, "rt": 6238}, "6": {"category": "Beta", "trial": 6, "stimulus": 72, "rt": 5334}}, "generalization": {"56": {"stimulus": 59, "trial": 56, "rt": 1534, "response": "Beta"}, "77": {"stimulus": 27, "trial": 77, "rt": 1168, "response": "Beta"}, "54": {"stimulus": 69, "trial": 54, "rt": 788, "response": "Beta"}, "42": {"stimulus": 8, "trial": 42, "rt": 1526, "response": "Beta"}, "48": {"stimulus": 21, "trial": 48, "rt": 1083, "response": "Beta"}, "43": {"stimulus": 53, "trial": 43, "rt": 799, "response": "Beta"}, "60": {"stimulus": 77, "trial": 60, "rt": 3382, "response": "Beta"}, "61": {"stimulus": 37, "trial": 61, "rt": 1120, "response": "Beta"}, "62": {"stimulus": 73, "trial": 62, "rt": 1367, "response": "Beta"}, "63": {"stimulus": 46, "trial": 63, "rt": 781, "response": "Beta"}, "64": {"stimulus": 24, "trial": 64, "rt": 1102, "response": "Beta"}, "49": {"stimulus": 12, "trial": 49, "rt": 804, "response": "Beta"}, "66": {"stimulus": 34, "trial": 66, "rt": 815, "response": "Beta"}, "67": {"stimulus": 54, "trial": 67, "rt": 879, "response": "Beta"}, "68": {"stimulus": 67, "trial": 68, "rt": 1046, "response": "Beta"}, "69": {"stimulus": 36, "trial": 69, "rt": 1622, "response": "Beta"}, "80": {"stimulus": 75, "trial": 80, "rt": 615, "response": "Beta"}, "52": {"stimulus": 78, "trial": 52, "rt": 1631, "response": "Beta"}, "53": {"stimulus": 4, "trial": 53, "rt": 1224, "response": "Beta"}, "24": {"stimulus": 70, "trial": 24, "rt": 1656, "response": "Beta"}, "25": {"stimulus": 79, "trial": 25, "rt": 1359, "response": "Beta"}, "26": {"stimulus": 52, "trial": 26, "rt": 2041, "response": "Beta"}, "27": {"stimulus": 2, "trial": 27, "rt": 1774, "response": "Beta"}, "20": {"stimulus": 56, "trial": 20, "rt": 1523, "response": "Alpha"}, "21": {"stimulus": 9, "trial": 21, "rt": 1172, "response": "Beta"}, "22": {"stimulus": 43, "trial": 22, "rt": 1250, "response": "Beta"}, "23": {"stimulus": 10, "trial": 23, "rt": 166, "response": "Beta"}, "46": {"stimulus": 25, "trial": 46, "rt": 1137, "response": "Alpha"}, "47": {"stimulus": 42, "trial": 47, "rt": 1326, "response": "Beta"}, "44": {"stimulus": 19, "trial": 44, "rt": 1392, "response": "Alpha"}, "45": {"stimulus": 38, "trial": 45, "rt": 1406, "response": "Alpha"}, "28": {"stimulus": 11, "trial": 28, "rt": 2735, "response": "Beta"}, "29": {"stimulus": 3, "trial": 29, "rt": 1095, "response": "Beta"}, "40": {"stimulus": 17, "trial": 40, "rt": 2167, "response": "Beta"}, "41": {"stimulus": 7, "trial": 41, "rt": 1673, "response": "Beta"}, "1": {"stimulus": 20, "trial": 1, "rt": 1670, "response": "Beta"}, "0": {"stimulus": 55, "trial": 0, "rt": 6217, "response": "Alpha"}, "3": {"stimulus": 35, "trial": 3, "rt": 986, "response": "Beta"}, "2": {"stimulus": 63, "trial": 2, "rt": 1719, "response": "Beta"}, "5": {"stimulus": 18, "trial": 5, "rt": 2078, "response": "Beta"}, "4": {"stimulus": 6, "trial": 4, "rt": 996, "response": "Beta"}, "7": {"stimulus": 32, "trial": 7, "rt": 894, "response": "Beta"}, "6": {"stimulus": 5, "trial": 6, "rt": 1474, "response": "Beta"}, "9": {"stimulus": 0, "trial": 9, "rt": 1477, "response": "Alpha"}, "8": {"stimulus": 30, "trial": 8, "rt": 1201, "response": "Beta"}, "78": {"stimulus": 33, "trial": 78, "rt": 1944, "response": "Beta"}, "51": {"stimulus": 23, "trial": 51, "rt": 14960, "response": "Beta"}, "39": {"stimulus": 71, "trial": 39, "rt": 2342, "response": "Beta"}, "65": {"stimulus": 58, "trial": 65, "rt": 752, "response": "Beta"}, "76": {"stimulus": 13, "trial": 76, "rt": 470, "response": "Beta"}, "75": {"stimulus": 28, "trial": 75, "rt": 1192, "response": "Beta"}, "38": {"stimulus": 14, "trial": 38, "rt": 1116, "response": "Beta"}, "73": {"stimulus": 61, "trial": 73, "rt": 951, "response": "Alpha"}, "72": {"stimulus": 64, "trial": 72, "rt": 951, "response": "Alpha"}, "71": {"stimulus": 29, "trial": 71, "rt": 1393, "response": "Alpha"}, "70": {"stimulus": 66, "trial": 70, "rt": 1470, "response": "Alpha"}, "59": {"stimulus": 51, "trial": 59, "rt": 229, "response": "Beta"}, "79": {"stimulus": 76, "trial": 79, "rt": 695, "response": "Beta"}, "58": {"stimulus": 80, "trial": 58, "rt": 838, "response": "Beta"}, "11": {"stimulus": 49, "trial": 11, "rt": 1929, "response": "Alpha"}, "10": {"stimulus": 68, "trial": 10, "rt": 33880, "response": "Beta"}, "13": {"stimulus": 1, "trial": 13, "rt": 1503, "response": "Beta"}, "12": {"stimulus": 48, "trial": 12, "rt": 1537, "response": "Beta"}, "15": {"stimulus": 26, "trial": 15, "rt": 910, "response": "Beta"}, "14": {"stimulus": 15, "trial": 14, "rt": 1078, "response": "Beta"}, "17": {"stimulus": 62, "trial": 17, "rt": 1175, "response": "Beta"}, "16": {"stimulus": 72, "trial": 16, "rt": 1727, "response": "Alpha"}, "19": {"stimulus": 40, "trial": 19, "rt": 1222, "response": "Beta"}, "18": {"stimulus": 16, "trial": 18, "rt": 1063, "response": "Beta"}, "31": {"stimulus": 41, "trial": 31, "rt": 1335, "response": "Beta"}, "30": {"stimulus": 22, "trial": 30, "rt": 1486, "response": "Beta"}, "37": {"stimulus": 39, "trial": 37, "rt": 3747, "response": "Beta"}, "36": {"stimulus": 44, "trial": 36, "rt": 2705, "response": "Beta"}, "35": {"stimulus": 57, "trial": 35, "rt": 2655, "response": "Beta"}, "34": {"stimulus": 31, "trial": 34, "rt": 1405, "response": "Beta"}, "33": {"stimulus": 60, "trial": 33, "rt": 1176, "response": "Beta"}, "55": {"stimulus": 74, "trial": 55, "rt": 1057, "response": "Beta"}, "74": {"stimulus": 45, "trial": 74, "rt": 750, "response": "Beta"}, "32": {"stimulus": 65, "trial": 32, "rt": 1986, "response": "Beta"}, "57": {"stimulus": 50, "trial": 57, "rt": 1951, "response": "Beta"}, "50": {"stimulus": 47, "trial": 50, "rt": 1966, "response": "Beta"}}, "experiment": {"Paradigm": "TACL", "Stimuli": "Size-Color Squares", "Experiment": "Generating-Multiple-Categories"}, "submit": {"timeTotal": 367329, "age": "32", "comments": "STUDY IS GOOD", "sex": "MALE"}}