{"info": {"finish": 1535406979295, "participant": 185, "exposed": true, "lab": false, "start": 1535406592446, "counterbalance": 1, "gentype": 2, "condition": "Middle", "browser": {"platform": "Win32", "userAgent": "Mozilla/5.0 (Windows NT 6.1; Win64; x64) AppleWebKit/537.36 (KHTML, like Gecko) Chrome/68.0.3440.106 Safari/537.36"}}, "observation": {"11": {"stimulus": 32, "trial": 11, "rt": 1401}, "10": {"stimulus": 30, "trial": 10, "rt": 1422}, "1": {"stimulus": 32, "trial": 1, "rt": 1552}, "0": {"stimulus": 48, "trial": 0, "rt": 2716}, "3": {"stimulus": 30, "trial": 3, "rt": 1366}, "2": {"stimulus": 50, "trial": 2, "rt": 1431}, "5": {"stimulus": 32, "trial": 5, "rt": 1581}, "4": {"stimulus": 48, "trial": 4, "rt": 1878}, "7": {"stimulus": 30, "trial": 7, "rt": 1393}, "6": {"stimulus": 50, "trial": 6, "rt": 1408}, "9": {"stimulus": 48, "trial": 9, "rt": 1380}, "8": {"stimulus": 50, "trial": 8, "rt": 1411}}, "generation": {"1": {"category": "Beta", "trial": 1, "stimulus": 7, "rt": 6331}, "0": {"category": "Beta", "trial": 0, "stimulus": 8, "rt": 13382}, "3": {"category": "Beta", "trial": 3, "stimulus": 72, "rt": 4349}, "2": {"category": "Beta", "trial": 2, "stimulus": 6, "rt": 6075}, "5": {"category": "Gamma", "trial": 5, "stimulus": 73, "rt": 5563}, "4": {"category": "Gamma", "trial": 4, "stimulus": 72, "rt": 3921}, "7": {"category": "Gamma", "trial": 7, "stimulus": 64, "rt": 4210}, "6": {"category": "Gamma", "trial": 6, "stimulus": 63, "rt": 4095}}, "generalization": {"56": {"stimulus": 52, "trial": 56, "rt": 736, "response": "Alpha"}, "77": {"stimulus": 45, "trial": 77, "rt": 1228, "response": "Gamma"}, "54": {"stimulus": 5, "trial": 54, "rt": 1364, "response": "Alpha"}, "42": {"stimulus": 50, "trial": 42, "rt": 711, "response": "Alpha"}, "48": {"stimulus": 16, "trial": 48, "rt": 1045, "response": "Alpha"}, "43": {"stimulus": 36, "trial": 43, "rt": 1526, "response": "Gamma"}, "60": {"stimulus": 37, "trial": 60, "rt": 680, "response": "Gamma"}, "61": {"stimulus": 6, "trial": 61, "rt": 2568, "response": "Beta"}, "62": {"stimulus": 18, "trial": 62, "rt": 1157, "response": "Gamma"}, "63": {"stimulus": 27, "trial": 63, "rt": 928, "response": "Gamma"}, "64": {"stimulus": 25, "trial": 64, "rt": 1075, "response": "Beta"}, "49": {"stimulus": 77, "trial": 49, "rt": 850, "response": "Alpha"}, "66": {"stimulus": 31, "trial": 66, "rt": 687, "response": "Alpha"}, "67": {"stimulus": 30, "trial": 67, "rt": 1257, "response": "Alpha"}, "68": {"stimulus": 48, "trial": 68, "rt": 748, "response": "Alpha"}, "69": {"stimulus": 43, "trial": 69, "rt": 2311, "response": "Beta"}, "80": {"stimulus": 7, "trial": 80, "rt": 1754, "response": "Beta"}, "52": {"stimulus": 63, "trial": 52, "rt": 1213, "response": "Gamma"}, "53": {"stimulus": 2, "trial": 53, "rt": 1110, "response": "Gamma"}, "24": {"stimulus": 75, "trial": 24, "rt": 1504, "response": "Gamma"}, "25": {"stimulus": 42, "trial": 25, "rt": 4774, "response": "Beta"}, "26": {"stimulus": 78, "trial": 26, "rt": 1268, "response": "Beta"}, "27": {"stimulus": 21, "trial": 27, "rt": 1355, "response": "Alpha"}, "20": {"stimulus": 41, "trial": 20, "rt": 913, "response": "Alpha"}, "21": {"stimulus": 76, "trial": 21, "rt": 2086, "response": "Alpha"}, "22": {"stimulus": 23, "trial": 22, "rt": 2695, "response": "Beta"}, "23": {"stimulus": 51, "trial": 23, "rt": 1622, "response": "Alpha"}, "46": {"stimulus": 19, "trial": 46, "rt": 1771, "response": "Gamma"}, "47": {"stimulus": 34, "trial": 47, "rt": 1601, "response": "Alpha"}, "44": {"stimulus": 39, "trial": 44, "rt": 1367, "response": "Alpha"}, "45": {"stimulus": 0, "trial": 45, "rt": 661, "response": "Alpha"}, "28": {"stimulus": 13, "trial": 28, "rt": 589, "response": "Alpha"}, "29": {"stimulus": 15, "trial": 29, "rt": 609, "response": "Alpha"}, "40": {"stimulus": 55, "trial": 40, "rt": 677, "response": "Gamma"}, "41": {"stimulus": 22, "trial": 41, "rt": 1267, "response": "Alpha"}, "1": {"stimulus": 47, "trial": 1, "rt": 1254, "response": "Alpha"}, "0": {"stimulus": 38, "trial": 0, "rt": 2922, "response": "Alpha"}, "3": {"stimulus": 74, "trial": 3, "rt": 1851, "response": "Gamma"}, "2": {"stimulus": 9, "trial": 2, "rt": 3995, "response": "Gamma"}, "5": {"stimulus": 56, "trial": 5, "rt": 1965, "response": "Gamma"}, "4": {"stimulus": 73, "trial": 4, "rt": 703, "response": "Gamma"}, "7": {"stimulus": 59, "trial": 7, "rt": 1716, "response": "Beta"}, "6": {"stimulus": 70, "trial": 6, "rt": 2480, "response": "Beta"}, "9": {"stimulus": 54, "trial": 9, "rt": 2405, "response": "Gamma"}, "8": {"stimulus": 58, "trial": 8, "rt": 999, "response": "Beta"}, "78": {"stimulus": 1, "trial": 78, "rt": 650, "response": "Gamma"}, "51": {"stimulus": 44, "trial": 51, "rt": 1403, "response": "Beta"}, "39": {"stimulus": 28, "trial": 39, "rt": 574, "response": "Gamma"}, "65": {"stimulus": 66, "trial": 65, "rt": 945, "response": "Alpha"}, "76": {"stimulus": 17, "trial": 76, "rt": 1323, "response": "Beta"}, "75": {"stimulus": 29, "trial": 75, "rt": 2802, "response": "Gamma"}, "38": {"stimulus": 46, "trial": 38, "rt": 1218, "response": "Gamma"}, "73": {"stimulus": 33, "trial": 73, "rt": 811, "response": "Alpha"}, "72": {"stimulus": 69, "trial": 72, "rt": 881, "response": "Alpha"}, "71": {"stimulus": 67, "trial": 71, "rt": 1949, "response": "Alpha"}, "70": {"stimulus": 65, "trial": 70, "rt": 2500, "response": "Alpha"}, "59": {"stimulus": 11, "trial": 59, "rt": 630, "response": "Gamma"}, "79": {"stimulus": 49, "trial": 79, "rt": 1322, "response": "Alpha"}, "58": {"stimulus": 20, "trial": 58, "rt": 660, "response": "Gamma"}, "11": {"stimulus": 12, "trial": 11, "rt": 1219, "response": "Alpha"}, "10": {"stimulus": 60, "trial": 10, "rt": 945, "response": "Alpha"}, "13": {"stimulus": 14, "trial": 13, "rt": 991, "response": "Beta"}, "12": {"stimulus": 35, "trial": 12, "rt": 1685, "response": "Beta"}, "15": {"stimulus": 68, "trial": 15, "rt": 619, "response": "Beta"}, "14": {"stimulus": 80, "trial": 14, "rt": 914, "response": "Beta"}, "17": {"stimulus": 32, "trial": 17, "rt": 614, "response": "Alpha"}, "16": {"stimulus": 72, "trial": 16, "rt": 1103, "response": "Gamma"}, "19": {"stimulus": 4, "trial": 19, "rt": 1349, "response": "Alpha"}, "18": {"stimulus": 26, "trial": 18, "rt": 3162, "response": "Beta"}, "31": {"stimulus": 62, "trial": 31, "rt": 1979, "response": "Beta"}, "30": {"stimulus": 40, "trial": 30, "rt": 1063, "response": "Alpha"}, "37": {"stimulus": 71, "trial": 37, "rt": 688, "response": "Beta"}, "36": {"stimulus": 61, "trial": 36, "rt": 1650, "response": "Beta"}, "35": {"stimulus": 10, "trial": 35, "rt": 846, "response": "Gamma"}, "34": {"stimulus": 57, "trial": 34, "rt": 1470, "response": "Alpha"}, "33": {"stimulus": 24, "trial": 33, "rt": 1493, "response": "Alpha"}, "55": {"stimulus": 79, "trial": 55, "rt": 1330, "response": "Alpha"}, "74": {"stimulus": 53, "trial": 74, "rt": 905, "response": "Beta"}, "32": {"stimulus": 8, "trial": 32, "rt": 843, "response": "Beta"}, "57": {"stimulus": 64, "trial": 57, "rt": 1022, "response": "Gamma"}, "50": {"stimulus": 3, "trial": 50, "rt": 1598, "response": "Alpha"}}, "experiment": {"Paradigm": "TACL", "Stimuli": "Size-Color Squares", "Experiment": "Generating-Multiple-Categories"}, "submit": {"timeTotal": 387548, "age": "37", "comments": "it was a strange but interesting experiment", "sex": "male"}}