{"info": {"finish": 1535410967032, "participant": 186, "exposed": true, "lab": false, "start": 1535410489689, "counterbalance": 7, "gentype": 1, "condition": "Middle", "browser": {"platform": "Win32", "userAgent": "Mozilla/5.0 (Windows NT 10.0; Win64; x64) AppleWebKit/537.36 (KHTML, like Gecko) Chrome/68.0.3440.106 Safari/537.36"}}, "observation": {"11": {"stimulus": 30, "trial": 11, "rt": 1680}, "10": {"stimulus": 50, "trial": 10, "rt": 1716}, "1": {"stimulus": 30, "trial": 1, "rt": 2586}, "0": {"stimulus": 32, "trial": 0, "rt": 4585}, "3": {"stimulus": 50, "trial": 3, "rt": 1898}, "2": {"stimulus": 48, "trial": 2, "rt": 2364}, "5": {"stimulus": 48, "trial": 5, "rt": 2007}, "4": {"stimulus": 30, "trial": 4, "rt": 2082}, "7": {"stimulus": 32, "trial": 7, "rt": 1966}, "6": {"stimulus": 50, "trial": 6, "rt": 2012}, "9": {"stimulus": 32, "trial": 9, "rt": 1937}, "8": {"stimulus": 48, "trial": 8, "rt": 2416}}, "generation": {"1": {"category": "Beta", "trial": 1, "stimulus": 73, "rt": 8963}, "0": {"category": "Beta", "trial": 0, "stimulus": 72, "rt": 22831}, "3": {"category": "Beta", "trial": 3, "stimulus": 75, "rt": 6793}, "2": {"category": "Beta", "trial": 2, "stimulus": 74, "rt": 9576}, "5": {"category": "Beta", "trial": 5, "stimulus": 77, "rt": 11195}, "4": {"category": "Beta", "trial": 4, "stimulus": 76, "rt": 6965}, "7": {"category": "Beta", "trial": 7, "stimulus": 79, "rt": 9476}, "6": {"category": "Beta", "trial": 6, "stimulus": 78, "rt": 12127}}, "generalization": {"56": {"stimulus": 32, "trial": 56, "rt": 5075, "response": "Alpha"}, "77": {"stimulus": 43, "trial": 77, "rt": 1113, "response": "Beta"}, "54": {"stimulus": 49, "trial": 54, "rt": 768, "response": "Beta"}, "42": {"stimulus": 38, "trial": 42, "rt": 728, "response": "Beta"}, "48": {"stimulus": 75, "trial": 48, "rt": 1156, "response": "Beta"}, "43": {"stimulus": 68, "trial": 43, "rt": 766, "response": "Beta"}, "60": {"stimulus": 20, "trial": 60, "rt": 1611, "response": "Beta"}, "61": {"stimulus": 67, "trial": 61, "rt": 1013, "response": "Beta"}, "62": {"stimulus": 9, "trial": 62, "rt": 1152, "response": "Alpha"}, "63": {"stimulus": 33, "trial": 63, "rt": 1776, "response": "Beta"}, "64": {"stimulus": 19, "trial": 64, "rt": 1022, "response": "Beta"}, "49": {"stimulus": 39, "trial": 49, "rt": 1075, "response": "Beta"}, "66": {"stimulus": 12, "trial": 66, "rt": 1891, "response": "Alpha"}, "67": {"stimulus": 14, "trial": 67, "rt": 1944, "response": "Beta"}, "68": {"stimulus": 7, "trial": 68, "rt": 1423, "response": "Alpha"}, "69": {"stimulus": 63, "trial": 69, "rt": 1463, "response": "Beta"}, "80": {"stimulus": 4, "trial": 80, "rt": 1137, "response": "Alpha"}, "52": {"stimulus": 51, "trial": 52, "rt": 1782, "response": "Beta"}, "53": {"stimulus": 79, "trial": 53, "rt": 656, "response": "Beta"}, "24": {"stimulus": 2, "trial": 24, "rt": 1263, "response": "Alpha"}, "25": {"stimulus": 80, "trial": 25, "rt": 1759, "response": "Beta"}, "26": {"stimulus": 50, "trial": 26, "rt": 5211, "response": "Beta"}, "27": {"stimulus": 13, "trial": 27, "rt": 1835, "response": "Alpha"}, "20": {"stimulus": 62, "trial": 20, "rt": 2841, "response": "Beta"}, "21": {"stimulus": 10, "trial": 21, "rt": 1131, "response": "Alpha"}, "22": {"stimulus": 72, "trial": 22, "rt": 959, "response": "Beta"}, "23": {"stimulus": 29, "trial": 23, "rt": 1533, "response": "Alpha"}, "46": {"stimulus": 21, "trial": 46, "rt": 1217, "response": "Beta"}, "47": {"stimulus": 1, "trial": 47, "rt": 1036, "response": "Alpha"}, "44": {"stimulus": 46, "trial": 44, "rt": 873, "response": "Beta"}, "45": {"stimulus": 30, "trial": 45, "rt": 1642, "response": "Beta"}, "28": {"stimulus": 78, "trial": 28, "rt": 1123, "response": "Beta"}, "29": {"stimulus": 73, "trial": 29, "rt": 1952, "response": "Beta"}, "40": {"stimulus": 17, "trial": 40, "rt": 1247, "response": "Alpha"}, "41": {"stimulus": 55, "trial": 41, "rt": 1332, "response": "Beta"}, "1": {"stimulus": 5, "trial": 1, "rt": 1327, "response": "Alpha"}, "0": {"stimulus": 25, "trial": 0, "rt": 1874, "response": "Alpha"}, "3": {"stimulus": 59, "trial": 3, "rt": 1392, "response": "Beta"}, "2": {"stimulus": 54, "trial": 2, "rt": 1620, "response": "Beta"}, "5": {"stimulus": 64, "trial": 5, "rt": 1349, "response": "Beta"}, "4": {"stimulus": 18, "trial": 4, "rt": 1721, "response": "Alpha"}, "7": {"stimulus": 27, "trial": 7, "rt": 1222, "response": "Alpha"}, "6": {"stimulus": 34, "trial": 6, "rt": 983, "response": "Alpha"}, "9": {"stimulus": 35, "trial": 9, "rt": 1503, "response": "Alpha"}, "8": {"stimulus": 48, "trial": 8, "rt": 1349, "response": "Beta"}, "78": {"stimulus": 8, "trial": 78, "rt": 1719, "response": "Alpha"}, "51": {"stimulus": 37, "trial": 51, "rt": 841, "response": "Beta"}, "39": {"stimulus": 66, "trial": 39, "rt": 827, "response": "Beta"}, "65": {"stimulus": 23, "trial": 65, "rt": 829, "response": "Beta"}, "76": {"stimulus": 71, "trial": 76, "rt": 1255, "response": "Beta"}, "75": {"stimulus": 74, "trial": 75, "rt": 1945, "response": "Beta"}, "38": {"stimulus": 45, "trial": 38, "rt": 2424, "response": "Beta"}, "73": {"stimulus": 36, "trial": 73, "rt": 783, "response": "Beta"}, "72": {"stimulus": 53, "trial": 72, "rt": 983, "response": "Beta"}, "71": {"stimulus": 26, "trial": 71, "rt": 1270, "response": "Beta"}, "70": {"stimulus": 42, "trial": 70, "rt": 867, "response": "Beta"}, "59": {"stimulus": 60, "trial": 59, "rt": 659, "response": "Beta"}, "79": {"stimulus": 61, "trial": 79, "rt": 969, "response": "Beta"}, "58": {"stimulus": 44, "trial": 58, "rt": 549, "response": "Beta"}, "11": {"stimulus": 24, "trial": 11, "rt": 556, "response": "Alpha"}, "10": {"stimulus": 16, "trial": 10, "rt": 1107, "response": "Alpha"}, "13": {"stimulus": 76, "trial": 13, "rt": 923, "response": "Beta"}, "12": {"stimulus": 22, "trial": 12, "rt": 946, "response": "Alpha"}, "15": {"stimulus": 11, "trial": 15, "rt": 904, "response": "Alpha"}, "14": {"stimulus": 56, "trial": 14, "rt": 891, "response": "Beta"}, "17": {"stimulus": 65, "trial": 17, "rt": 1767, "response": "Beta"}, "16": {"stimulus": 57, "trial": 16, "rt": 1681, "response": "Beta"}, "19": {"stimulus": 70, "trial": 19, "rt": 1255, "response": "Beta"}, "18": {"stimulus": 6, "trial": 18, "rt": 1178, "response": "Alpha"}, "31": {"stimulus": 69, "trial": 31, "rt": 872, "response": "Beta"}, "30": {"stimulus": 58, "trial": 30, "rt": 1288, "response": "Beta"}, "37": {"stimulus": 28, "trial": 37, "rt": 1758, "response": "Alpha"}, "36": {"stimulus": 15, "trial": 36, "rt": 3966, "response": "Alpha"}, "35": {"stimulus": 77, "trial": 35, "rt": 1348, "response": "Beta"}, "34": {"stimulus": 3, "trial": 34, "rt": 3132, "response": "Alpha"}, "33": {"stimulus": 47, "trial": 33, "rt": 2897, "response": "Beta"}, "55": {"stimulus": 0, "trial": 55, "rt": 4608, "response": "Alpha"}, "74": {"stimulus": 31, "trial": 74, "rt": 742, "response": "Beta"}, "32": {"stimulus": 41, "trial": 32, "rt": 5458, "response": "Beta"}, "57": {"stimulus": 40, "trial": 57, "rt": 1587, "response": "Beta"}, "50": {"stimulus": 52, "trial": 50, "rt": 2619, "response": "Beta"}}, "experiment": {"Paradigm": "TACL", "Stimuli": "Size-Color Squares", "Experiment": "Generating-Multiple-Categories"}, "submit": {"timeTotal": 477772, "age": "55", "comments": "I've got no idea what that was about\n\nI thought a lot were outside the alpha-beta categorization. ", "sex": "male"}}