{"info": {"finish": 1534981883729, "participant": 21, "exposed": true, "lab": false, "start": 1534981526911, "counterbalance": 3, "gentype": 2, "condition": "Middle", "browser": {"platform": "Win32", "userAgent": "Mozilla/5.0 (Windows NT 10.0; Win64; x64) AppleWebKit/537.36 (KHTML, like Gecko) Chrome/68.0.3440.106 Safari/537.36"}}, "observation": {"11": {"stimulus": 48, "trial": 11, "rt": 1583}, "10": {"stimulus": 30, "trial": 10, "rt": 1644}, "1": {"stimulus": 50, "trial": 1, "rt": 1735}, "0": {"stimulus": 32, "trial": 0, "rt": 3429}, "3": {"stimulus": 48, "trial": 3, "rt": 2571}, "2": {"stimulus": 30, "trial": 2, "rt": 2758}, "5": {"stimulus": 30, "trial": 5, "rt": 1895}, "4": {"stimulus": 50, "trial": 4, "rt": 1639}, "7": {"stimulus": 48, "trial": 7, "rt": 1679}, "6": {"stimulus": 32, "trial": 6, "rt": 1767}, "9": {"stimulus": 32, "trial": 9, "rt": 1479}, "8": {"stimulus": 50, "trial": 8, "rt": 1519}}, "generation": {"1": {"category": "Beta", "trial": 1, "stimulus": 7, "rt": 8991}, "0": {"category": "Beta", "trial": 0, "stimulus": 8, "rt": 29805}, "3": {"category": "Beta", "trial": 3, "stimulus": 80, "rt": 9303}, "2": {"category": "Beta", "trial": 2, "stimulus": 6, "rt": 12279}, "5": {"category": "Gamma", "trial": 5, "stimulus": 63, "rt": 6901}, "4": {"category": "Gamma", "trial": 4, "stimulus": 72, "rt": 6119}, "7": {"category": "Gamma", "trial": 7, "stimulus": 45, "rt": 19030}, "6": {"category": "Gamma", "trial": 6, "stimulus": 54, "rt": 12621}}, "generalization": {"56": {"stimulus": 50, "trial": 56, "rt": 1919, "response": "Beta"}, "77": {"stimulus": 68, "trial": 77, "rt": 1301, "response": "Alpha"}, "54": {"stimulus": 75, "trial": 54, "rt": 1167, "response": "Alpha"}, "42": {"stimulus": 27, "trial": 42, "rt": 742, "response": "Gamma"}, "48": {"stimulus": 77, "trial": 48, "rt": 1558, "response": "Alpha"}, "43": {"stimulus": 37, "trial": 43, "rt": 501, "response": "Gamma"}, "60": {"stimulus": 2, "trial": 60, "rt": 909, "response": "Alpha"}, "61": {"stimulus": 11, "trial": 61, "rt": 423, "response": "Alpha"}, "62": {"stimulus": 3, "trial": 62, "rt": 587, "response": "Alpha"}, "63": {"stimulus": 73, "trial": 63, "rt": 487, "response": "Alpha"}, "64": {"stimulus": 12, "trial": 64, "rt": 606, "response": "Alpha"}, "49": {"stimulus": 14, "trial": 49, "rt": 575, "response": "Alpha"}, "66": {"stimulus": 80, "trial": 66, "rt": 680, "response": "Beta"}, "67": {"stimulus": 36, "trial": 67, "rt": 1261, "response": "Gamma"}, "68": {"stimulus": 20, "trial": 68, "rt": 1207, "response": "Gamma"}, "69": {"stimulus": 15, "trial": 69, "rt": 1017, "response": "Beta"}, "80": {"stimulus": 69, "trial": 80, "rt": 654, "response": "Alpha"}, "52": {"stimulus": 25, "trial": 52, "rt": 733, "response": "Beta"}, "53": {"stimulus": 67, "trial": 53, "rt": 752, "response": "Alpha"}, "24": {"stimulus": 38, "trial": 24, "rt": 1319, "response": "Gamma"}, "25": {"stimulus": 63, "trial": 25, "rt": 671, "response": "Gamma"}, "26": {"stimulus": 54, "trial": 26, "rt": 646, "response": "Gamma"}, "27": {"stimulus": 52, "trial": 27, "rt": 1302, "response": "Beta"}, "20": {"stimulus": 55, "trial": 20, "rt": 821, "response": "Gamma"}, "21": {"stimulus": 10, "trial": 21, "rt": 631, "response": "Gamma"}, "22": {"stimulus": 45, "trial": 22, "rt": 838, "response": "Gamma"}, "23": {"stimulus": 24, "trial": 23, "rt": 1287, "response": "Beta"}, "46": {"stimulus": 31, "trial": 46, "rt": 616, "response": "Alpha"}, "47": {"stimulus": 74, "trial": 47, "rt": 575, "response": "Alpha"}, "44": {"stimulus": 59, "trial": 44, "rt": 831, "response": "Beta"}, "45": {"stimulus": 41, "trial": 45, "rt": 1958, "response": "Alpha"}, "28": {"stimulus": 26, "trial": 28, "rt": 526, "response": "Beta"}, "29": {"stimulus": 48, "trial": 29, "rt": 989, "response": "Alpha"}, "40": {"stimulus": 43, "trial": 40, "rt": 918, "response": "Beta"}, "41": {"stimulus": 33, "trial": 41, "rt": 511, "response": "Beta"}, "1": {"stimulus": 16, "trial": 1, "rt": 1302, "response": "Beta"}, "0": {"stimulus": 62, "trial": 0, "rt": 2023, "response": "Beta"}, "3": {"stimulus": 13, "trial": 3, "rt": 2001, "response": "Gamma"}, "2": {"stimulus": 34, "trial": 2, "rt": 1100, "response": "Beta"}, "5": {"stimulus": 39, "trial": 5, "rt": 989, "response": "Alpha"}, "4": {"stimulus": 0, "trial": 4, "rt": 727, "response": "Gamma"}, "7": {"stimulus": 42, "trial": 7, "rt": 1133, "response": "Beta"}, "6": {"stimulus": 29, "trial": 6, "rt": 710, "response": "Alpha"}, "9": {"stimulus": 65, "trial": 9, "rt": 1111, "response": "Gamma"}, "8": {"stimulus": 6, "trial": 8, "rt": 742, "response": "Beta"}, "78": {"stimulus": 4, "trial": 78, "rt": 990, "response": "Alpha"}, "51": {"stimulus": 57, "trial": 51, "rt": 1011, "response": "Alpha"}, "39": {"stimulus": 58, "trial": 39, "rt": 1495, "response": "Alpha"}, "65": {"stimulus": 78, "trial": 65, "rt": 1095, "response": "Beta"}, "76": {"stimulus": 71, "trial": 76, "rt": 918, "response": "Beta"}, "75": {"stimulus": 46, "trial": 75, "rt": 896, "response": "Gamma"}, "38": {"stimulus": 28, "trial": 38, "rt": 583, "response": "Gamma"}, "73": {"stimulus": 35, "trial": 73, "rt": 510, "response": "Beta"}, "72": {"stimulus": 8, "trial": 72, "rt": 927, "response": "Beta"}, "71": {"stimulus": 47, "trial": 71, "rt": 1015, "response": "Gamma"}, "70": {"stimulus": 18, "trial": 70, "rt": 796, "response": "Gamma"}, "59": {"stimulus": 17, "trial": 59, "rt": 519, "response": "Beta"}, "79": {"stimulus": 76, "trial": 79, "rt": 496, "response": "Alpha"}, "58": {"stimulus": 51, "trial": 58, "rt": 519, "response": "Beta"}, "11": {"stimulus": 40, "trial": 11, "rt": 720, "response": "Alpha"}, "10": {"stimulus": 23, "trial": 10, "rt": 997, "response": "Alpha"}, "13": {"stimulus": 53, "trial": 13, "rt": 879, "response": "Beta"}, "12": {"stimulus": 66, "trial": 12, "rt": 2046, "response": "Gamma"}, "15": {"stimulus": 30, "trial": 15, "rt": 799, "response": "Alpha"}, "14": {"stimulus": 9, "trial": 14, "rt": 1095, "response": "Gamma"}, "17": {"stimulus": 61, "trial": 17, "rt": 638, "response": "Beta"}, "16": {"stimulus": 7, "trial": 16, "rt": 830, "response": "Beta"}, "19": {"stimulus": 5, "trial": 19, "rt": 759, "response": "Beta"}, "18": {"stimulus": 21, "trial": 18, "rt": 879, "response": "Alpha"}, "31": {"stimulus": 44, "trial": 31, "rt": 1039, "response": "Beta"}, "30": {"stimulus": 49, "trial": 30, "rt": 486, "response": "Alpha"}, "37": {"stimulus": 19, "trial": 37, "rt": 941, "response": "Gamma"}, "36": {"stimulus": 70, "trial": 36, "rt": 669, "response": "Beta"}, "35": {"stimulus": 79, "trial": 35, "rt": 790, "response": "Beta"}, "34": {"stimulus": 1, "trial": 34, "rt": 2190, "response": "Alpha"}, "33": {"stimulus": 72, "trial": 33, "rt": 1463, "response": "Gamma"}, "55": {"stimulus": 64, "trial": 55, "rt": 1120, "response": "Gamma"}, "74": {"stimulus": 56, "trial": 74, "rt": 1081, "response": "Alpha"}, "32": {"stimulus": 60, "trial": 32, "rt": 494, "response": "Beta"}, "57": {"stimulus": 32, "trial": 57, "rt": 605, "response": "Beta"}, "50": {"stimulus": 22, "trial": 50, "rt": 546, "response": "Alpha"}}, "experiment": {"Paradigm": "TACL", "Stimuli": "Size-Color Squares", "Experiment": "Generating-Multiple-Categories"}, "submit": {"timeTotal": 357133, "age": "45", "comments": "Interesting", "sex": "female"}}