{"info": {"finish": 1534982330385, "participant": 23, "exposed": true, "lab": false, "start": 1534981536084, "counterbalance": 6, "gentype": 2, "condition": "Bottom", "browser": {"platform": "Win32", "userAgent": "Mozilla/5.0 (Windows NT 10.0; Win64; x64) AppleWebKit/537.36 (KHTML, like Gecko) Chrome/68.0.3440.106 Safari/537.36"}}, "observation": {"11": {"stimulus": 30, "trial": 11, "rt": 1613}, "10": {"stimulus": 32, "trial": 10, "rt": 1422}, "1": {"stimulus": 32, "trial": 1, "rt": 2069}, "0": {"stimulus": 12, "trial": 0, "rt": 5804}, "3": {"stimulus": 30, "trial": 3, "rt": 1468}, "2": {"stimulus": 14, "trial": 2, "rt": 1722}, "5": {"stimulus": 12, "trial": 5, "rt": 1929}, "4": {"stimulus": 30, "trial": 4, "rt": 1965}, "7": {"stimulus": 14, "trial": 7, "rt": 2492}, "6": {"stimulus": 32, "trial": 6, "rt": 1782}, "9": {"stimulus": 14, "trial": 9, "rt": 1539}, "8": {"stimulus": 12, "trial": 8, "rt": 2008}}, "generation": {"1": {"category": "Beta", "trial": 1, "stimulus": 64, "rt": 5892}, "0": {"category": "Beta", "trial": 0, "stimulus": 72, "rt": 10975}, "3": {"category": "Beta", "trial": 3, "stimulus": 73, "rt": 4351}, "2": {"category": "Beta", "trial": 2, "stimulus": 74, "rt": 3240}, "5": {"category": "Gamma", "trial": 5, "stimulus": 14, "rt": 4954}, "4": {"category": "Gamma", "trial": 4, "stimulus": 15, "rt": 2466}, "7": {"category": "Gamma", "trial": 7, "stimulus": 25, "rt": 2919}, "6": {"category": "Gamma", "trial": 6, "stimulus": 22, "rt": 2118}}, "generalization": {"56": {"stimulus": 63, "trial": 56, "rt": 306, "response": "Beta"}, "77": {"stimulus": 15, "trial": 77, "rt": 309, "response": "Beta"}, "54": {"stimulus": 31, "trial": 54, "rt": 275, "response": "Beta"}, "42": {"stimulus": 29, "trial": 42, "rt": 344, "response": "Alpha"}, "48": {"stimulus": 16, "trial": 48, "rt": 300, "response": "Beta"}, "43": {"stimulus": 27, "trial": 43, "rt": 306, "response": "Beta"}, "60": {"stimulus": 1, "trial": 60, "rt": 298, "response": "Beta"}, "61": {"stimulus": 51, "trial": 61, "rt": 321, "response": "Alpha"}, "62": {"stimulus": 2, "trial": 62, "rt": 276, "response": "Beta"}, "63": {"stimulus": 66, "trial": 63, "rt": 296, "response": "Beta"}, "64": {"stimulus": 35, "trial": 64, "rt": 303, "response": "Gamma"}, "49": {"stimulus": 28, "trial": 49, "rt": 327, "response": "Alpha"}, "66": {"stimulus": 26, "trial": 66, "rt": 317, "response": "Beta"}, "67": {"stimulus": 18, "trial": 67, "rt": 293, "response": "Alpha"}, "68": {"stimulus": 24, "trial": 68, "rt": 259, "response": "Beta"}, "69": {"stimulus": 42, "trial": 69, "rt": 300, "response": "Beta"}, "80": {"stimulus": 21, "trial": 80, "rt": 270, "response": "Beta"}, "52": {"stimulus": 54, "trial": 52, "rt": 356, "response": "Gamma"}, "53": {"stimulus": 77, "trial": 53, "rt": 970, "response": "Beta"}, "24": {"stimulus": 7, "trial": 24, "rt": 342, "response": "Gamma"}, "25": {"stimulus": 12, "trial": 25, "rt": 301, "response": "Beta"}, "26": {"stimulus": 72, "trial": 26, "rt": 335, "response": "Beta"}, "27": {"stimulus": 50, "trial": 27, "rt": 362, "response": "Beta"}, "20": {"stimulus": 58, "trial": 20, "rt": 268, "response": "Alpha"}, "21": {"stimulus": 30, "trial": 21, "rt": 133, "response": "Beta"}, "22": {"stimulus": 14, "trial": 22, "rt": 368, "response": "Beta"}, "23": {"stimulus": 70, "trial": 23, "rt": 430, "response": "Beta"}, "46": {"stimulus": 36, "trial": 46, "rt": 311, "response": "Gamma"}, "47": {"stimulus": 48, "trial": 47, "rt": 276, "response": "Beta"}, "44": {"stimulus": 69, "trial": 44, "rt": 298, "response": "Beta"}, "45": {"stimulus": 13, "trial": 45, "rt": 319, "response": "Beta"}, "28": {"stimulus": 34, "trial": 28, "rt": 280, "response": "Beta"}, "29": {"stimulus": 78, "trial": 29, "rt": 310, "response": "Beta"}, "40": {"stimulus": 20, "trial": 40, "rt": 303, "response": "Beta"}, "41": {"stimulus": 73, "trial": 41, "rt": 341, "response": "Beta"}, "1": {"stimulus": 33, "trial": 1, "rt": 1540, "response": "Gamma"}, "0": {"stimulus": 76, "trial": 0, "rt": 2489, "response": "Beta"}, "3": {"stimulus": 44, "trial": 3, "rt": 341, "response": "Beta"}, "2": {"stimulus": 80, "trial": 2, "rt": 842, "response": "Alpha"}, "5": {"stimulus": 52, "trial": 5, "rt": 317, "response": "Beta"}, "4": {"stimulus": 60, "trial": 4, "rt": 402, "response": "Gamma"}, "7": {"stimulus": 4, "trial": 7, "rt": 306, "response": "Alpha"}, "6": {"stimulus": 68, "trial": 6, "rt": 289, "response": "Beta"}, "9": {"stimulus": 47, "trial": 9, "rt": 256, "response": "Beta"}, "8": {"stimulus": 57, "trial": 8, "rt": 324, "response": "Beta"}, "78": {"stimulus": 59, "trial": 78, "rt": 296, "response": "Gamma"}, "51": {"stimulus": 79, "trial": 51, "rt": 103915, "response": "Beta"}, "39": {"stimulus": 10, "trial": 39, "rt": 337, "response": "Beta"}, "65": {"stimulus": 55, "trial": 65, "rt": 298, "response": "Beta"}, "76": {"stimulus": 71, "trial": 76, "rt": 284, "response": "Beta"}, "75": {"stimulus": 43, "trial": 75, "rt": 282, "response": "Beta"}, "38": {"stimulus": 53, "trial": 38, "rt": 304, "response": "Beta"}, "73": {"stimulus": 23, "trial": 73, "rt": 295, "response": "Beta"}, "72": {"stimulus": 49, "trial": 72, "rt": 316, "response": "Beta"}, "71": {"stimulus": 22, "trial": 71, "rt": 313, "response": "Beta"}, "70": {"stimulus": 46, "trial": 70, "rt": 302, "response": "Gamma"}, "59": {"stimulus": 61, "trial": 59, "rt": 274, "response": "Beta"}, "79": {"stimulus": 37, "trial": 79, "rt": 296, "response": "Beta"}, "58": {"stimulus": 38, "trial": 58, "rt": 291, "response": "Gamma"}, "11": {"stimulus": 32, "trial": 11, "rt": 327, "response": "Beta"}, "10": {"stimulus": 65, "trial": 10, "rt": 287, "response": "Gamma"}, "13": {"stimulus": 56, "trial": 13, "rt": 268, "response": "Alpha"}, "12": {"stimulus": 5, "trial": 12, "rt": 310, "response": "Beta"}, "15": {"stimulus": 17, "trial": 15, "rt": 284, "response": "Beta"}, "14": {"stimulus": 40, "trial": 14, "rt": 289, "response": "Beta"}, "17": {"stimulus": 74, "trial": 17, "rt": 240, "response": "Beta"}, "16": {"stimulus": 39, "trial": 16, "rt": 278, "response": "Gamma"}, "19": {"stimulus": 62, "trial": 19, "rt": 271, "response": "Beta"}, "18": {"stimulus": 64, "trial": 18, "rt": 203, "response": "Beta"}, "31": {"stimulus": 9, "trial": 31, "rt": 375, "response": "Beta"}, "30": {"stimulus": 6, "trial": 30, "rt": 303, "response": "Gamma"}, "37": {"stimulus": 45, "trial": 37, "rt": 306, "response": "Beta"}, "36": {"stimulus": 67, "trial": 36, "rt": 318, "response": "Gamma"}, "35": {"stimulus": 8, "trial": 35, "rt": 318, "response": "Beta"}, "34": {"stimulus": 11, "trial": 34, "rt": 361, "response": "Beta"}, "33": {"stimulus": 0, "trial": 33, "rt": 458, "response": "Alpha"}, "55": {"stimulus": 19, "trial": 55, "rt": 373, "response": "Alpha"}, "74": {"stimulus": 3, "trial": 74, "rt": 349, "response": "Alpha"}, "32": {"stimulus": 75, "trial": 32, "rt": 282, "response": "Beta"}, "57": {"stimulus": 25, "trial": 57, "rt": 257, "response": "Beta"}, "50": {"stimulus": 41, "trial": 50, "rt": 409032, "response": "Beta"}}, "experiment": {"Paradigm": "TACL", "Stimuli": "Size-Color Squares", "Experiment": "Generating-Multiple-Categories"}, "submit": {"timeTotal": 795170, "age": "23", "comments": "I don't know.", "sex": "male"}}