{"info": {"finish": 1534982396053, "participant": 25, "exposed": true, "lab": false, "start": 1534981846107, "counterbalance": 3, "gentype": 0, "condition": "Middle", "browser": {"platform": "Win32", "userAgent": "Mozilla/5.0 (Windows NT 6.1) AppleWebKit/537.36 (KHTML, like Gecko) Chrome/68.0.3440.106 Safari/537.36"}}, "observation": {"11": {"stimulus": 30, "trial": 11, "rt": 1785}, "10": {"stimulus": 48, "trial": 10, "rt": 2447}, "1": {"stimulus": 30, "trial": 1, "rt": 2136}, "0": {"stimulus": 48, "trial": 0, "rt": 4049}, "3": {"stimulus": 32, "trial": 3, "rt": 1727}, "2": {"stimulus": 50, "trial": 2, "rt": 1591}, "5": {"stimulus": 48, "trial": 5, "rt": 2093}, "4": {"stimulus": 32, "trial": 4, "rt": 3514}, "7": {"stimulus": 50, "trial": 7, "rt": 2711}, "6": {"stimulus": 30, "trial": 6, "rt": 3664}, "9": {"stimulus": 32, "trial": 9, "rt": 2103}, "8": {"stimulus": 50, "trial": 8, "rt": 4952}}, "generation": {"1": {"category": "Not-Alpha", "trial": 1, "stimulus": 29, "rt": 10114}, "0": {"category": "Not-Alpha", "trial": 0, "stimulus": 20, "rt": 12208}, "3": {"category": "Not-Alpha", "trial": 3, "stimulus": 12, "rt": 22754}, "2": {"category": "Not-Alpha", "trial": 2, "stimulus": 38, "rt": 11261}, "5": {"category": "Not-Alpha", "trial": 5, "stimulus": 50, "rt": 45241}, "4": {"category": "Not-Alpha", "trial": 4, "stimulus": 2, "rt": 14508}, "7": {"category": "Not-Alpha", "trial": 7, "stimulus": 19, "rt": 7079}, "6": {"category": "Not-Alpha", "trial": 6, "stimulus": 22, "rt": 5070}}, "generalization": {"56": {"stimulus": 13, "trial": 56, "rt": 720, "response": "Beta"}, "77": {"stimulus": 42, "trial": 77, "rt": 12064, "response": "Beta"}, "54": {"stimulus": 79, "trial": 54, "rt": 17743, "response": "Beta"}, "42": {"stimulus": 73, "trial": 42, "rt": 712, "response": "Beta"}, "48": {"stimulus": 65, "trial": 48, "rt": 1032, "response": "Alpha"}, "43": {"stimulus": 36, "trial": 43, "rt": 5025, "response": "Alpha"}, "60": {"stimulus": 35, "trial": 60, "rt": 760, "response": "Alpha"}, "61": {"stimulus": 48, "trial": 61, "rt": 990, "response": "Beta"}, "62": {"stimulus": 67, "trial": 62, "rt": 1840, "response": "Beta"}, "63": {"stimulus": 38, "trial": 63, "rt": 1167, "response": "Alpha"}, "64": {"stimulus": 11, "trial": 64, "rt": 603, "response": "Alpha"}, "49": {"stimulus": 25, "trial": 49, "rt": 1736, "response": "Beta"}, "66": {"stimulus": 32, "trial": 66, "rt": 561, "response": "Alpha"}, "67": {"stimulus": 1, "trial": 67, "rt": 743, "response": "Beta"}, "68": {"stimulus": 77, "trial": 68, "rt": 432, "response": "Alpha"}, "69": {"stimulus": 55, "trial": 69, "rt": 305, "response": "Beta"}, "80": {"stimulus": 60, "trial": 80, "rt": 2847, "response": "Beta"}, "52": {"stimulus": 8, "trial": 52, "rt": 263, "response": "Alpha"}, "53": {"stimulus": 24, "trial": 53, "rt": 471, "response": "Alpha"}, "24": {"stimulus": 80, "trial": 24, "rt": 1623, "response": "Beta"}, "25": {"stimulus": 71, "trial": 25, "rt": 2548, "response": "Alpha"}, "26": {"stimulus": 76, "trial": 26, "rt": 29983, "response": "Beta"}, "27": {"stimulus": 14, "trial": 27, "rt": 913, "response": "Alpha"}, "20": {"stimulus": 30, "trial": 20, "rt": 1199, "response": "Alpha"}, "21": {"stimulus": 45, "trial": 21, "rt": 511, "response": "Alpha"}, "22": {"stimulus": 34, "trial": 22, "rt": 1087, "response": "Alpha"}, "23": {"stimulus": 50, "trial": 23, "rt": 6368, "response": "Beta"}, "46": {"stimulus": 19, "trial": 46, "rt": 2285, "response": "Beta"}, "47": {"stimulus": 56, "trial": 47, "rt": 5711, "response": "Beta"}, "44": {"stimulus": 17, "trial": 44, "rt": 12862, "response": "Beta"}, "45": {"stimulus": 28, "trial": 45, "rt": 560, "response": "Alpha"}, "28": {"stimulus": 39, "trial": 28, "rt": 479, "response": "Alpha"}, "29": {"stimulus": 18, "trial": 29, "rt": 1884, "response": "Beta"}, "40": {"stimulus": 78, "trial": 40, "rt": 2039, "response": "Beta"}, "41": {"stimulus": 40, "trial": 41, "rt": 1088, "response": "Alpha"}, "1": {"stimulus": 66, "trial": 1, "rt": 929, "response": "Alpha"}, "0": {"stimulus": 3, "trial": 0, "rt": 2019, "response": "Alpha"}, "3": {"stimulus": 26, "trial": 3, "rt": 18433, "response": "Alpha"}, "2": {"stimulus": 58, "trial": 2, "rt": 1199, "response": "Alpha"}, "5": {"stimulus": 16, "trial": 5, "rt": 1544, "response": "Alpha"}, "4": {"stimulus": 10, "trial": 4, "rt": 1624, "response": "Alpha"}, "7": {"stimulus": 59, "trial": 7, "rt": 1102, "response": "Alpha"}, "6": {"stimulus": 68, "trial": 6, "rt": 1729, "response": "Alpha"}, "9": {"stimulus": 21, "trial": 9, "rt": 2744, "response": "Alpha"}, "8": {"stimulus": 31, "trial": 8, "rt": 721, "response": "Alpha"}, "78": {"stimulus": 57, "trial": 78, "rt": 1158, "response": "Beta"}, "51": {"stimulus": 5, "trial": 51, "rt": 1927, "response": "Beta"}, "39": {"stimulus": 70, "trial": 39, "rt": 1264, "response": "Beta"}, "65": {"stimulus": 33, "trial": 65, "rt": 2268, "response": "Beta"}, "76": {"stimulus": 64, "trial": 76, "rt": 5168, "response": "Beta"}, "75": {"stimulus": 52, "trial": 75, "rt": 7349, "response": "Beta"}, "38": {"stimulus": 62, "trial": 38, "rt": 224, "response": "Alpha"}, "73": {"stimulus": 43, "trial": 73, "rt": 1472, "response": "Beta"}, "72": {"stimulus": 47, "trial": 72, "rt": 2871, "response": "Beta"}, "71": {"stimulus": 0, "trial": 71, "rt": 573, "response": "Alpha"}, "70": {"stimulus": 6, "trial": 70, "rt": 458, "response": "Alpha"}, "59": {"stimulus": 2, "trial": 59, "rt": 1225, "response": "Beta"}, "79": {"stimulus": 27, "trial": 79, "rt": 1023, "response": "Alpha"}, "58": {"stimulus": 44, "trial": 58, "rt": 729, "response": "Beta"}, "11": {"stimulus": 72, "trial": 11, "rt": 968, "response": "Beta"}, "10": {"stimulus": 69, "trial": 10, "rt": 919, "response": "Beta"}, "13": {"stimulus": 22, "trial": 13, "rt": 2533, "response": "Alpha"}, "12": {"stimulus": 23, "trial": 12, "rt": 959, "response": "Alpha"}, "15": {"stimulus": 54, "trial": 15, "rt": 25484, "response": "Alpha"}, "14": {"stimulus": 41, "trial": 14, "rt": 633, "response": "Alpha"}, "17": {"stimulus": 53, "trial": 17, "rt": 1920, "response": "Alpha"}, "16": {"stimulus": 49, "trial": 16, "rt": 1376, "response": "Alpha"}, "19": {"stimulus": 75, "trial": 19, "rt": 3817, "response": "Beta"}, "18": {"stimulus": 63, "trial": 18, "rt": 425, "response": "Beta"}, "31": {"stimulus": 15, "trial": 31, "rt": 533, "response": "Alpha"}, "30": {"stimulus": 12, "trial": 30, "rt": 778, "response": "Alpha"}, "37": {"stimulus": 4, "trial": 37, "rt": 399, "response": "Alpha"}, "36": {"stimulus": 37, "trial": 36, "rt": 1087, "response": "Beta"}, "35": {"stimulus": 9, "trial": 35, "rt": 2083, "response": "Alpha"}, "34": {"stimulus": 20, "trial": 34, "rt": 1172, "response": "Alpha"}, "33": {"stimulus": 74, "trial": 33, "rt": 720, "response": "Alpha"}, "55": {"stimulus": 46, "trial": 55, "rt": 784, "response": "Alpha"}, "74": {"stimulus": 7, "trial": 74, "rt": 10041, "response": "Beta"}, "32": {"stimulus": 51, "trial": 32, "rt": 888, "response": "Alpha"}, "57": {"stimulus": 29, "trial": 57, "rt": 814, "response": "Alpha"}, "50": {"stimulus": 61, "trial": 50, "rt": 2158, "response": "Alpha"}}, "experiment": {"Paradigm": "TACL", "Stimuli": "Size-Color Squares", "Experiment": "Generating-Multiple-Categories"}, "submit": {"timeTotal": 551658, "age": "26", "comments": "NILL", "sex": "FEMALE"}}