{"info": {"finish": 1535051810231, "participant": 28, "exposed": true, "lab": false, "start": 1535051553093, "counterbalance": 4, "gentype": 1, "condition": "Bottom", "browser": {"platform": "Win32", "userAgent": "Mozilla/5.0 (Windows NT 10.0; Win64; x64) AppleWebKit/537.36 (KHTML, like Gecko) Chrome/68.0.3440.106 Safari/537.36"}}, "observation": {"11": {"stimulus": 14, "trial": 11, "rt": 1132}, "10": {"stimulus": 32, "trial": 10, "rt": 1391}, "1": {"stimulus": 14, "trial": 1, "rt": 1633}, "0": {"stimulus": 12, "trial": 0, "rt": 2190}, "3": {"stimulus": 30, "trial": 3, "rt": 1361}, "2": {"stimulus": 32, "trial": 2, "rt": 1574}, "5": {"stimulus": 12, "trial": 5, "rt": 1539}, "4": {"stimulus": 14, "trial": 4, "rt": 1399}, "7": {"stimulus": 30, "trial": 7, "rt": 1359}, "6": {"stimulus": 32, "trial": 6, "rt": 1592}, "9": {"stimulus": 12, "trial": 9, "rt": 1694}, "8": {"stimulus": 30, "trial": 8, "rt": 1859}}, "generation": {"1": {"category": "Beta", "trial": 1, "stimulus": 9, "rt": 5779}, "0": {"category": "Beta", "trial": 0, "stimulus": 0, "rt": 9375}, "3": {"category": "Beta", "trial": 3, "stimulus": 36, "rt": 3474}, "2": {"category": "Beta", "trial": 2, "stimulus": 27, "rt": 3608}, "5": {"category": "Beta", "trial": 5, "stimulus": 63, "rt": 5376}, "4": {"category": "Beta", "trial": 4, "stimulus": 54, "rt": 3842}, "7": {"category": "Beta", "trial": 7, "stimulus": 46, "rt": 5157}, "6": {"category": "Beta", "trial": 6, "stimulus": 72, "rt": 3551}}, "generalization": {"56": {"stimulus": 12, "trial": 56, "rt": 607, "response": "Alpha"}, "77": {"stimulus": 52, "trial": 77, "rt": 413, "response": "Alpha"}, "54": {"stimulus": 74, "trial": 54, "rt": 1726, "response": "Alpha"}, "42": {"stimulus": 56, "trial": 42, "rt": 1273, "response": "Alpha"}, "48": {"stimulus": 59, "trial": 48, "rt": 446, "response": "Alpha"}, "43": {"stimulus": 70, "trial": 43, "rt": 687, "response": "Alpha"}, "60": {"stimulus": 80, "trial": 60, "rt": 521, "response": "Alpha"}, "61": {"stimulus": 63, "trial": 61, "rt": 882, "response": "Beta"}, "62": {"stimulus": 67, "trial": 62, "rt": 759, "response": "Alpha"}, "63": {"stimulus": 15, "trial": 63, "rt": 443, "response": "Alpha"}, "64": {"stimulus": 34, "trial": 64, "rt": 445, "response": "Alpha"}, "49": {"stimulus": 6, "trial": 49, "rt": 404, "response": "Alpha"}, "66": {"stimulus": 32, "trial": 66, "rt": 430, "response": "Alpha"}, "67": {"stimulus": 40, "trial": 67, "rt": 443, "response": "Alpha"}, "68": {"stimulus": 49, "trial": 68, "rt": 397, "response": "Alpha"}, "69": {"stimulus": 23, "trial": 69, "rt": 413, "response": "Alpha"}, "80": {"stimulus": 42, "trial": 80, "rt": 484, "response": "Alpha"}, "52": {"stimulus": 36, "trial": 52, "rt": 928, "response": "Beta"}, "53": {"stimulus": 26, "trial": 53, "rt": 820, "response": "Alpha"}, "24": {"stimulus": 21, "trial": 24, "rt": 764, "response": "Alpha"}, "25": {"stimulus": 45, "trial": 25, "rt": 804, "response": "Beta"}, "26": {"stimulus": 41, "trial": 26, "rt": 499, "response": "Alpha"}, "27": {"stimulus": 14, "trial": 27, "rt": 491, "response": "Alpha"}, "20": {"stimulus": 33, "trial": 20, "rt": 490, "response": "Alpha"}, "21": {"stimulus": 30, "trial": 21, "rt": 2158, "response": "Alpha"}, "22": {"stimulus": 72, "trial": 22, "rt": 780, "response": "Beta"}, "23": {"stimulus": 1, "trial": 23, "rt": 852, "response": "Beta"}, "46": {"stimulus": 78, "trial": 46, "rt": 1085, "response": "Alpha"}, "47": {"stimulus": 62, "trial": 47, "rt": 438, "response": "Alpha"}, "44": {"stimulus": 25, "trial": 44, "rt": 523, "response": "Alpha"}, "45": {"stimulus": 55, "trial": 45, "rt": 926, "response": "Beta"}, "28": {"stimulus": 9, "trial": 28, "rt": 875, "response": "Beta"}, "29": {"stimulus": 5, "trial": 29, "rt": 623, "response": "Alpha"}, "40": {"stimulus": 76, "trial": 40, "rt": 477, "response": "Alpha"}, "41": {"stimulus": 16, "trial": 41, "rt": 554, "response": "Alpha"}, "1": {"stimulus": 43, "trial": 1, "rt": 913, "response": "Alpha"}, "0": {"stimulus": 10, "trial": 0, "rt": 2100, "response": "Beta"}, "3": {"stimulus": 50, "trial": 3, "rt": 771, "response": "Alpha"}, "2": {"stimulus": 18, "trial": 2, "rt": 1023, "response": "Beta"}, "5": {"stimulus": 2, "trial": 5, "rt": 929, "response": "Beta"}, "4": {"stimulus": 24, "trial": 4, "rt": 547, "response": "Alpha"}, "7": {"stimulus": 60, "trial": 7, "rt": 610, "response": "Alpha"}, "6": {"stimulus": 27, "trial": 6, "rt": 811, "response": "Beta"}, "9": {"stimulus": 22, "trial": 9, "rt": 821, "response": "Alpha"}, "8": {"stimulus": 17, "trial": 8, "rt": 538, "response": "Alpha"}, "78": {"stimulus": 7, "trial": 78, "rt": 429, "response": "Alpha"}, "51": {"stimulus": 31, "trial": 51, "rt": 553, "response": "Alpha"}, "39": {"stimulus": 57, "trial": 39, "rt": 983, "response": "Alpha"}, "65": {"stimulus": 79, "trial": 65, "rt": 462, "response": "Alpha"}, "76": {"stimulus": 71, "trial": 76, "rt": 477, "response": "Alpha"}, "75": {"stimulus": 66, "trial": 75, "rt": 530, "response": "Alpha"}, "38": {"stimulus": 0, "trial": 38, "rt": 642, "response": "Beta"}, "73": {"stimulus": 61, "trial": 73, "rt": 428, "response": "Alpha"}, "72": {"stimulus": 4, "trial": 72, "rt": 439, "response": "Alpha"}, "71": {"stimulus": 35, "trial": 71, "rt": 936, "response": "Alpha"}, "70": {"stimulus": 73, "trial": 70, "rt": 999, "response": "Beta"}, "59": {"stimulus": 64, "trial": 59, "rt": 836, "response": "Beta"}, "79": {"stimulus": 47, "trial": 79, "rt": 811, "response": "Alpha"}, "58": {"stimulus": 51, "trial": 58, "rt": 896, "response": "Alpha"}, "11": {"stimulus": 53, "trial": 11, "rt": 694, "response": "Alpha"}, "10": {"stimulus": 39, "trial": 10, "rt": 671, "response": "Alpha"}, "13": {"stimulus": 77, "trial": 13, "rt": 632, "response": "Alpha"}, "12": {"stimulus": 29, "trial": 12, "rt": 1076, "response": "Beta"}, "15": {"stimulus": 37, "trial": 15, "rt": 882, "response": "Beta"}, "14": {"stimulus": 44, "trial": 14, "rt": 506, "response": "Alpha"}, "17": {"stimulus": 75, "trial": 17, "rt": 2156, "response": "Alpha"}, "16": {"stimulus": 58, "trial": 16, "rt": 616, "response": "Alpha"}, "19": {"stimulus": 68, "trial": 19, "rt": 538, "response": "Alpha"}, "18": {"stimulus": 69, "trial": 18, "rt": 616, "response": "Alpha"}, "31": {"stimulus": 46, "trial": 31, "rt": 913, "response": "Beta"}, "30": {"stimulus": 20, "trial": 30, "rt": 741, "response": "Alpha"}, "37": {"stimulus": 54, "trial": 37, "rt": 989, "response": "Beta"}, "36": {"stimulus": 48, "trial": 36, "rt": 1147, "response": "Alpha"}, "35": {"stimulus": 28, "trial": 35, "rt": 507, "response": "Beta"}, "34": {"stimulus": 19, "trial": 34, "rt": 928, "response": "Beta"}, "33": {"stimulus": 3, "trial": 33, "rt": 548, "response": "Alpha"}, "55": {"stimulus": 38, "trial": 55, "rt": 717, "response": "Alpha"}, "74": {"stimulus": 8, "trial": 74, "rt": 405, "response": "Alpha"}, "32": {"stimulus": 13, "trial": 32, "rt": 896, "response": "Alpha"}, "57": {"stimulus": 65, "trial": 57, "rt": 1142, "response": "Alpha"}, "50": {"stimulus": 11, "trial": 50, "rt": 922, "response": "Alpha"}}, "experiment": {"Paradigm": "TACL", "Stimuli": "Size-Color Squares", "Experiment": "Generating-Multiple-Categories"}, "submit": {"timeTotal": 257492, "age": "36", "comments": "n/a", "sex": "male"}}