{"info": {"finish": 1535053287529, "participant": 29, "exposed": true, "lab": false, "start": 1535052021108, "counterbalance": 2, "gentype": 0, "condition": "Bottom", "browser": {"platform": "Win32", "userAgent": "Mozilla/5.0 (Windows NT 10.0; Win64; x64) AppleWebKit/537.36 (KHTML, like Gecko) Chrome/68.0.3440.106 Safari/537.36"}}, "observation": {"11": {"stimulus": 14, "trial": 11, "rt": 7400}, "10": {"stimulus": 32, "trial": 10, "rt": 13864}, "1": {"stimulus": 14, "trial": 1, "rt": 7823}, "0": {"stimulus": 32, "trial": 0, "rt": 8805}, "3": {"stimulus": 12, "trial": 3, "rt": 6991}, "2": {"stimulus": 30, "trial": 2, "rt": 10200}, "5": {"stimulus": 30, "trial": 5, "rt": 14327}, "4": {"stimulus": 14, "trial": 4, "rt": 10040}, "7": {"stimulus": 32, "trial": 7, "rt": 9024}, "6": {"stimulus": 12, "trial": 6, "rt": 9071}, "9": {"stimulus": 12, "trial": 9, "rt": 14848}, "8": {"stimulus": 30, "trial": 8, "rt": 8016}}, "generation": {"1": {"category": "Not-Alpha", "trial": 1, "stimulus": 80, "rt": 16599}, "0": {"category": "Not-Alpha", "trial": 0, "stimulus": 72, "rt": 40105}, "3": {"category": "Not-Alpha", "trial": 3, "stimulus": 63, "rt": 10897}, "2": {"category": "Not-Alpha", "trial": 2, "stimulus": 71, "rt": 43645}, "5": {"category": "Not-Alpha", "trial": 5, "stimulus": 62, "rt": 18360}, "4": {"category": "Not-Alpha", "trial": 4, "stimulus": 54, "rt": 26640}, "7": {"category": "Not-Alpha", "trial": 7, "stimulus": 53, "rt": 17392}, "6": {"category": "Not-Alpha", "trial": 6, "stimulus": 45, "rt": 38136}}, "generalization": {"56": {"stimulus": 57, "trial": 56, "rt": 2463, "response": "Beta"}, "77": {"stimulus": 30, "trial": 77, "rt": 10343, "response": "Alpha"}, "54": {"stimulus": 71, "trial": 54, "rt": 2096, "response": "Beta"}, "42": {"stimulus": 75, "trial": 42, "rt": 2919, "response": "Beta"}, "48": {"stimulus": 44, "trial": 48, "rt": 7008, "response": "Beta"}, "43": {"stimulus": 77, "trial": 43, "rt": 1721, "response": "Beta"}, "60": {"stimulus": 6, "trial": 60, "rt": 2256, "response": "Alpha"}, "61": {"stimulus": 24, "trial": 61, "rt": 9959, "response": "Alpha"}, "62": {"stimulus": 55, "trial": 62, "rt": 2176, "response": "Beta"}, "63": {"stimulus": 67, "trial": 63, "rt": 1760, "response": "Beta"}, "64": {"stimulus": 15, "trial": 64, "rt": 1894, "response": "Alpha"}, "49": {"stimulus": 32, "trial": 49, "rt": 6808, "response": "Alpha"}, "66": {"stimulus": 53, "trial": 66, "rt": 2400, "response": "Beta"}, "67": {"stimulus": 38, "trial": 67, "rt": 45175, "response": "Beta"}, "68": {"stimulus": 33, "trial": 68, "rt": 5216, "response": "Alpha"}, "69": {"stimulus": 34, "trial": 69, "rt": 8615, "response": "Beta"}, "80": {"stimulus": 36, "trial": 80, "rt": 9512, "response": "Beta"}, "52": {"stimulus": 72, "trial": 52, "rt": 4040, "response": "Beta"}, "53": {"stimulus": 31, "trial": 53, "rt": 29806, "response": "Alpha"}, "24": {"stimulus": 14, "trial": 24, "rt": 3416, "response": "Alpha"}, "25": {"stimulus": 64, "trial": 25, "rt": 2104, "response": "Beta"}, "26": {"stimulus": 0, "trial": 26, "rt": 2096, "response": "Alpha"}, "27": {"stimulus": 22, "trial": 27, "rt": 15134, "response": "Alpha"}, "20": {"stimulus": 54, "trial": 20, "rt": 11583, "response": "Beta"}, "21": {"stimulus": 28, "trial": 21, "rt": 5918, "response": "Alpha"}, "22": {"stimulus": 60, "trial": 22, "rt": 2480, "response": "Beta"}, "23": {"stimulus": 79, "trial": 23, "rt": 2119, "response": "Beta"}, "46": {"stimulus": 26, "trial": 46, "rt": 8361, "response": "Alpha"}, "47": {"stimulus": 9, "trial": 47, "rt": 16024, "response": "Beta"}, "44": {"stimulus": 13, "trial": 44, "rt": 2432, "response": "Alpha"}, "45": {"stimulus": 1, "trial": 45, "rt": 1752, "response": "Alpha"}, "28": {"stimulus": 73, "trial": 28, "rt": 1888, "response": "Beta"}, "29": {"stimulus": 70, "trial": 29, "rt": 2128, "response": "Beta"}, "40": {"stimulus": 47, "trial": 40, "rt": 3056, "response": "Beta"}, "41": {"stimulus": 63, "trial": 41, "rt": 3297, "response": "Beta"}, "1": {"stimulus": 27, "trial": 1, "rt": 7255, "response": "Beta"}, "0": {"stimulus": 50, "trial": 0, "rt": 14647, "response": "Beta"}, "3": {"stimulus": 43, "trial": 3, "rt": 8385, "response": "Beta"}, "2": {"stimulus": 56, "trial": 2, "rt": 6337, "response": "Beta"}, "5": {"stimulus": 41, "trial": 5, "rt": 17381, "response": "Beta"}, "4": {"stimulus": 61, "trial": 4, "rt": 3511, "response": "Beta"}, "7": {"stimulus": 78, "trial": 7, "rt": 4502, "response": "Beta"}, "6": {"stimulus": 40, "trial": 6, "rt": 8729, "response": "Beta"}, "9": {"stimulus": 69, "trial": 9, "rt": 5071, "response": "Beta"}, "8": {"stimulus": 4, "trial": 8, "rt": 10368, "response": "Alpha"}, "78": {"stimulus": 76, "trial": 78, "rt": 2030, "response": "Beta"}, "51": {"stimulus": 39, "trial": 51, "rt": 7992, "response": "Beta"}, "39": {"stimulus": 45, "trial": 39, "rt": 2848, "response": "Beta"}, "65": {"stimulus": 74, "trial": 65, "rt": 2167, "response": "Beta"}, "76": {"stimulus": 16, "trial": 76, "rt": 2249, "response": "Alpha"}, "75": {"stimulus": 49, "trial": 75, "rt": 7712, "response": "Beta"}, "38": {"stimulus": 10, "trial": 38, "rt": 6111, "response": "Alpha"}, "73": {"stimulus": 62, "trial": 73, "rt": 2159, "response": "Beta"}, "72": {"stimulus": 58, "trial": 72, "rt": 2071, "response": "Beta"}, "71": {"stimulus": 37, "trial": 71, "rt": 4838, "response": "Beta"}, "70": {"stimulus": 42, "trial": 70, "rt": 3080, "response": "Beta"}, "59": {"stimulus": 52, "trial": 59, "rt": 18394, "response": "Beta"}, "79": {"stimulus": 5, "trial": 79, "rt": 1623, "response": "Alpha"}, "58": {"stimulus": 12, "trial": 58, "rt": 1905, "response": "Alpha"}, "11": {"stimulus": 66, "trial": 11, "rt": 2894, "response": "Beta"}, "10": {"stimulus": 35, "trial": 10, "rt": 7632, "response": "Alpha"}, "13": {"stimulus": 23, "trial": 13, "rt": 9469, "response": "Alpha"}, "12": {"stimulus": 48, "trial": 12, "rt": 10985, "response": "Beta"}, "15": {"stimulus": 2, "trial": 15, "rt": 4145, "response": "Alpha"}, "14": {"stimulus": 25, "trial": 14, "rt": 15504, "response": "Alpha"}, "17": {"stimulus": 59, "trial": 17, "rt": 3584, "response": "Beta"}, "16": {"stimulus": 21, "trial": 16, "rt": 9823, "response": "Alpha"}, "19": {"stimulus": 8, "trial": 19, "rt": 4519, "response": "Alpha"}, "18": {"stimulus": 20, "trial": 18, "rt": 4039, "response": "Alpha"}, "31": {"stimulus": 46, "trial": 31, "rt": 18543, "response": "Beta"}, "30": {"stimulus": 18, "trial": 30, "rt": 11249, "response": "Alpha"}, "37": {"stimulus": 51, "trial": 37, "rt": 6440, "response": "Beta"}, "36": {"stimulus": 17, "trial": 36, "rt": 4047, "response": "Alpha"}, "35": {"stimulus": 65, "trial": 35, "rt": 9950, "response": "Beta"}, "34": {"stimulus": 7, "trial": 34, "rt": 2656, "response": "Alpha"}, "33": {"stimulus": 19, "trial": 33, "rt": 6992, "response": "Alpha"}, "55": {"stimulus": 29, "trial": 55, "rt": 8216, "response": "Alpha"}, "74": {"stimulus": 11, "trial": 74, "rt": 6664, "response": "Alpha"}, "32": {"stimulus": 80, "trial": 32, "rt": 2679, "response": "Beta"}, "57": {"stimulus": 3, "trial": 57, "rt": 6320, "response": "Alpha"}, "50": {"stimulus": 68, "trial": 50, "rt": 2215, "response": "Beta"}}, "experiment": {"Paradigm": "TACL", "Stimuli": "Size-Color Squares", "Experiment": "Generating-Multiple-Categories"}, "submit": {"timeTotal": 1266686, "age": "28", "comments": "I tried my best, and i wasn't sure if one color in alpha trial meant that all sizes that color would constitute as being considered as Alpha. The most easy ones to figure out were the light colors with any size of the shape.", "sex": "male"}}