{"info": {"finish": 1535054357266, "participant": 36, "exposed": true, "lab": false, "start": 1535053999615, "counterbalance": 4, "gentype": 2, "condition": "Middle", "browser": {"platform": "Win32", "userAgent": "Mozilla/5.0 (Windows NT 6.1; Win64; x64) AppleWebKit/537.36 (KHTML, like Gecko) Chrome/68.0.3440.106 Safari/537.36"}}, "observation": {"11": {"stimulus": 30, "trial": 11, "rt": 1567}, "10": {"stimulus": 32, "trial": 10, "rt": 1520}, "1": {"stimulus": 32, "trial": 1, "rt": 1816}, "0": {"stimulus": 48, "trial": 0, "rt": 2966}, "3": {"stimulus": 50, "trial": 3, "rt": 1508}, "2": {"stimulus": 30, "trial": 2, "rt": 2267}, "5": {"stimulus": 50, "trial": 5, "rt": 1503}, "4": {"stimulus": 30, "trial": 4, "rt": 1566}, "7": {"stimulus": 48, "trial": 7, "rt": 1438}, "6": {"stimulus": 32, "trial": 6, "rt": 1725}, "9": {"stimulus": 48, "trial": 9, "rt": 3039}, "8": {"stimulus": 50, "trial": 8, "rt": 2215}}, "generation": {"1": {"category": "Beta", "trial": 1, "stimulus": 80, "rt": 4385}, "0": {"category": "Beta", "trial": 0, "stimulus": 18, "rt": 14364}, "3": {"category": "Beta", "trial": 3, "stimulus": 0, "rt": 3751}, "2": {"category": "Beta", "trial": 2, "stimulus": 26, "rt": 4614}, "5": {"category": "Gamma", "trial": 5, "stimulus": 80, "rt": 3904}, "4": {"category": "Gamma", "trial": 4, "stimulus": 8, "rt": 6424}, "7": {"category": "Gamma", "trial": 7, "stimulus": 53, "rt": 5084}, "6": {"category": "Gamma", "trial": 6, "stimulus": 72, "rt": 10529}}, "generalization": {"56": {"stimulus": 12, "trial": 56, "rt": 854, "response": "Alpha"}, "77": {"stimulus": 14, "trial": 77, "rt": 856, "response": "Alpha"}, "54": {"stimulus": 56, "trial": 54, "rt": 740, "response": "Beta"}, "42": {"stimulus": 15, "trial": 42, "rt": 2527, "response": "Gamma"}, "48": {"stimulus": 11, "trial": 48, "rt": 1065, "response": "Beta"}, "43": {"stimulus": 40, "trial": 43, "rt": 1032, "response": "Alpha"}, "60": {"stimulus": 61, "trial": 60, "rt": 689, "response": "Gamma"}, "61": {"stimulus": 21, "trial": 61, "rt": 937, "response": "Alpha"}, "62": {"stimulus": 41, "trial": 62, "rt": 813, "response": "Alpha"}, "63": {"stimulus": 31, "trial": 63, "rt": 1424, "response": "Alpha"}, "64": {"stimulus": 79, "trial": 64, "rt": 1080, "response": "Gamma"}, "49": {"stimulus": 52, "trial": 49, "rt": 1091, "response": "Gamma"}, "66": {"stimulus": 35, "trial": 66, "rt": 1155, "response": "Gamma"}, "67": {"stimulus": 23, "trial": 67, "rt": 1743, "response": "Alpha"}, "68": {"stimulus": 67, "trial": 68, "rt": 623, "response": "Alpha"}, "69": {"stimulus": 38, "trial": 69, "rt": 788, "response": "Beta"}, "80": {"stimulus": 17, "trial": 80, "rt": 1903, "response": "Gamma"}, "52": {"stimulus": 69, "trial": 52, "rt": 3360, "response": "Alpha"}, "53": {"stimulus": 57, "trial": 53, "rt": 984, "response": "Alpha"}, "24": {"stimulus": 80, "trial": 24, "rt": 983, "response": "Gamma"}, "25": {"stimulus": 47, "trial": 25, "rt": 2646, "response": "Beta"}, "26": {"stimulus": 51, "trial": 26, "rt": 894, "response": "Gamma"}, "27": {"stimulus": 10, "trial": 27, "rt": 760, "response": "Beta"}, "20": {"stimulus": 26, "trial": 20, "rt": 1182, "response": "Gamma"}, "21": {"stimulus": 36, "trial": 21, "rt": 812, "response": "Beta"}, "22": {"stimulus": 70, "trial": 22, "rt": 975, "response": "Gamma"}, "23": {"stimulus": 29, "trial": 23, "rt": 914, "response": "Beta"}, "46": {"stimulus": 66, "trial": 46, "rt": 3584, "response": "Alpha"}, "47": {"stimulus": 24, "trial": 47, "rt": 1622, "response": "Gamma"}, "44": {"stimulus": 8, "trial": 44, "rt": 9750, "response": "Gamma"}, "45": {"stimulus": 71, "trial": 45, "rt": 903, "response": "Gamma"}, "28": {"stimulus": 55, "trial": 28, "rt": 713, "response": "Beta"}, "29": {"stimulus": 72, "trial": 29, "rt": 723, "response": "Beta"}, "40": {"stimulus": 48, "trial": 40, "rt": 985, "response": "Alpha"}, "41": {"stimulus": 2, "trial": 41, "rt": 864, "response": "Beta"}, "1": {"stimulus": 6, "trial": 1, "rt": 2088, "response": "Alpha"}, "0": {"stimulus": 68, "trial": 0, "rt": 3182, "response": "Alpha"}, "3": {"stimulus": 54, "trial": 3, "rt": 2178, "response": "Gamma"}, "2": {"stimulus": 5, "trial": 2, "rt": 777, "response": "Alpha"}, "5": {"stimulus": 43, "trial": 5, "rt": 5127, "response": "Beta"}, "4": {"stimulus": 64, "trial": 4, "rt": 828, "response": "Gamma"}, "7": {"stimulus": 53, "trial": 7, "rt": 1779, "response": "Beta"}, "6": {"stimulus": 25, "trial": 6, "rt": 2619, "response": "Gamma"}, "9": {"stimulus": 76, "trial": 9, "rt": 1074, "response": "Alpha"}, "8": {"stimulus": 73, "trial": 8, "rt": 2022, "response": "Gamma"}, "78": {"stimulus": 22, "trial": 78, "rt": 568, "response": "Alpha"}, "51": {"stimulus": 18, "trial": 51, "rt": 743, "response": "Beta"}, "39": {"stimulus": 77, "trial": 39, "rt": 1505, "response": "Alpha"}, "65": {"stimulus": 60, "trial": 65, "rt": 1261, "response": "Alpha"}, "76": {"stimulus": 42, "trial": 76, "rt": 831, "response": "Alpha"}, "75": {"stimulus": 45, "trial": 75, "rt": 896, "response": "Beta"}, "38": {"stimulus": 59, "trial": 38, "rt": 1612, "response": "Alpha"}, "73": {"stimulus": 13, "trial": 73, "rt": 1014, "response": "Alpha"}, "72": {"stimulus": 16, "trial": 72, "rt": 6112, "response": "Alpha"}, "71": {"stimulus": 4, "trial": 71, "rt": 1402, "response": "Alpha"}, "70": {"stimulus": 44, "trial": 70, "rt": 1136, "response": "Gamma"}, "59": {"stimulus": 32, "trial": 59, "rt": 1508, "response": "Alpha"}, "79": {"stimulus": 49, "trial": 79, "rt": 650, "response": "Alpha"}, "58": {"stimulus": 28, "trial": 58, "rt": 502, "response": "Beta"}, "11": {"stimulus": 65, "trial": 11, "rt": 5582, "response": "Beta"}, "10": {"stimulus": 3, "trial": 10, "rt": 2728, "response": "Alpha"}, "13": {"stimulus": 58, "trial": 13, "rt": 2284, "response": "Alpha"}, "12": {"stimulus": 20, "trial": 12, "rt": 1693, "response": "Beta"}, "15": {"stimulus": 0, "trial": 15, "rt": 866, "response": "Beta"}, "14": {"stimulus": 19, "trial": 14, "rt": 1305, "response": "Beta"}, "17": {"stimulus": 74, "trial": 17, "rt": 2120, "response": "Beta"}, "16": {"stimulus": 30, "trial": 16, "rt": 1411, "response": "Alpha"}, "19": {"stimulus": 78, "trial": 19, "rt": 1057, "response": "Gamma"}, "18": {"stimulus": 7, "trial": 18, "rt": 1071, "response": "Gamma"}, "31": {"stimulus": 27, "trial": 31, "rt": 715, "response": "Beta"}, "30": {"stimulus": 62, "trial": 30, "rt": 982, "response": "Gamma"}, "37": {"stimulus": 1, "trial": 37, "rt": 751, "response": "Beta"}, "36": {"stimulus": 46, "trial": 36, "rt": 823, "response": "Beta"}, "35": {"stimulus": 50, "trial": 35, "rt": 1503, "response": "Alpha"}, "34": {"stimulus": 9, "trial": 34, "rt": 792, "response": "Beta"}, "33": {"stimulus": 63, "trial": 33, "rt": 1448, "response": "Beta"}, "55": {"stimulus": 33, "trial": 55, "rt": 1684, "response": "Alpha"}, "74": {"stimulus": 75, "trial": 74, "rt": 1066, "response": "Alpha"}, "32": {"stimulus": 34, "trial": 32, "rt": 893, "response": "Gamma"}, "57": {"stimulus": 37, "trial": 57, "rt": 843, "response": "Beta"}, "50": {"stimulus": 39, "trial": 50, "rt": 1087, "response": "Alpha"}}, "experiment": {"Paradigm": "TACL", "Stimuli": "Size-Color Squares", "Experiment": "Generating-Multiple-Categories"}, "submit": {"timeTotal": 357877, "age": "36", "comments": "Interesting but I wish I knew a little more so i'd know if I was doing it right or not. ", "sex": "female"}}