{"info": {"finish": 1534886793026, "participant": 4, "exposed": true, "lab": true, "start": 1534886516311, "counterbalance": 4, "gentype": 1, "condition": "Middle", "browser": {"platform": "MacIntel", "userAgent": "Mozilla/5.0 (Macintosh; Intel Mac OS X 10.13; rv:61.0) Gecko/20100101 Firefox/61.0"}}, "observation": {"11": {"stimulus": 48, "trial": 11, "rt": 1281}, "10": {"stimulus": 50, "trial": 10, "rt": 1465}, "1": {"stimulus": 50, "trial": 1, "rt": 1522}, "0": {"stimulus": 48, "trial": 0, "rt": 1640}, "3": {"stimulus": 30, "trial": 3, "rt": 1403}, "2": {"stimulus": 32, "trial": 2, "rt": 1337}, "5": {"stimulus": 30, "trial": 5, "rt": 1523}, "4": {"stimulus": 32, "trial": 4, "rt": 1590}, "7": {"stimulus": 48, "trial": 7, "rt": 1334}, "6": {"stimulus": 50, "trial": 6, "rt": 1384}, "9": {"stimulus": 32, "trial": 9, "rt": 1379}, "8": {"stimulus": 30, "trial": 8, "rt": 1310}}, "generation": {"1": {"category": "Beta", "trial": 1, "stimulus": 47, "rt": 1277}, "0": {"category": "Beta", "trial": 0, "stimulus": 53, "rt": 1709}, "3": {"category": "Beta", "trial": 3, "stimulus": 20, "rt": 4651}, "2": {"category": "Beta", "trial": 2, "stimulus": 52, "rt": 2769}, "5": {"category": "Beta", "trial": 5, "stimulus": 23, "rt": 5495}, "4": {"category": "Beta", "trial": 4, "stimulus": 26, "rt": 8302}, "7": {"category": "Beta", "trial": 7, "stimulus": 28, "rt": 2418}, "6": {"category": "Beta", "trial": 6, "stimulus": 2, "rt": 14485}}, "generalization": {"56": {"stimulus": 40, "trial": 56, "rt": 274, "response": "Beta"}, "77": {"stimulus": 26, "trial": 77, "rt": 503, "response": "Beta"}, "54": {"stimulus": 35, "trial": 54, "rt": 443, "response": "Beta"}, "42": {"stimulus": 61, "trial": 42, "rt": 453, "response": "Beta"}, "48": {"stimulus": 29, "trial": 48, "rt": 447, "response": "Beta"}, "43": {"stimulus": 58, "trial": 43, "rt": 359, "response": "Beta"}, "60": {"stimulus": 12, "trial": 60, "rt": 285, "response": "Beta"}, "61": {"stimulus": 80, "trial": 61, "rt": 360, "response": "Beta"}, "62": {"stimulus": 1, "trial": 62, "rt": 385, "response": "Beta"}, "63": {"stimulus": 68, "trial": 63, "rt": 396, "response": "Beta"}, "64": {"stimulus": 76, "trial": 64, "rt": 505, "response": "Beta"}, "49": {"stimulus": 46, "trial": 49, "rt": 249, "response": "Beta"}, "66": {"stimulus": 2, "trial": 66, "rt": 368, "response": "Beta"}, "67": {"stimulus": 75, "trial": 67, "rt": 430, "response": "Beta"}, "68": {"stimulus": 38, "trial": 68, "rt": 608, "response": "Beta"}, "69": {"stimulus": 10, "trial": 69, "rt": 741, "response": "Beta"}, "80": {"stimulus": 0, "trial": 80, "rt": 399, "response": "Beta"}, "52": {"stimulus": 36, "trial": 52, "rt": 347, "response": "Beta"}, "53": {"stimulus": 48, "trial": 53, "rt": 456, "response": "Beta"}, "24": {"stimulus": 34, "trial": 24, "rt": 295, "response": "Beta"}, "25": {"stimulus": 65, "trial": 25, "rt": 360, "response": "Beta"}, "26": {"stimulus": 16, "trial": 26, "rt": 290, "response": "Beta"}, "27": {"stimulus": 69, "trial": 27, "rt": 359, "response": "Beta"}, "20": {"stimulus": 4, "trial": 20, "rt": 512, "response": "Beta"}, "21": {"stimulus": 62, "trial": 21, "rt": 344, "response": "Beta"}, "22": {"stimulus": 20, "trial": 22, "rt": 282, "response": "Beta"}, "23": {"stimulus": 3, "trial": 23, "rt": 346, "response": "Beta"}, "46": {"stimulus": 14, "trial": 46, "rt": 431, "response": "Beta"}, "47": {"stimulus": 6, "trial": 47, "rt": 515, "response": "Beta"}, "44": {"stimulus": 41, "trial": 44, "rt": 471, "response": "Beta"}, "45": {"stimulus": 28, "trial": 45, "rt": 567, "response": "Beta"}, "28": {"stimulus": 31, "trial": 28, "rt": 711, "response": "Beta"}, "29": {"stimulus": 33, "trial": 29, "rt": 314, "response": "Beta"}, "40": {"stimulus": 77, "trial": 40, "rt": 464, "response": "Beta"}, "41": {"stimulus": 45, "trial": 41, "rt": 493, "response": "Beta"}, "1": {"stimulus": 79, "trial": 1, "rt": 51685, "response": "Alpha"}, "0": {"stimulus": 30, "trial": 0, "rt": 1131, "response": "Alpha"}, "3": {"stimulus": 60, "trial": 3, "rt": 376, "response": "Alpha"}, "2": {"stimulus": 15, "trial": 2, "rt": 2478, "response": "Alpha"}, "5": {"stimulus": 11, "trial": 5, "rt": 486, "response": "Alpha"}, "4": {"stimulus": 24, "trial": 4, "rt": 268, "response": "Alpha"}, "7": {"stimulus": 78, "trial": 7, "rt": 337, "response": "Alpha"}, "6": {"stimulus": 13, "trial": 6, "rt": 358, "response": "Alpha"}, "9": {"stimulus": 51, "trial": 9, "rt": 279, "response": "Alpha"}, "8": {"stimulus": 53, "trial": 8, "rt": 228, "response": "Alpha"}, "78": {"stimulus": 55, "trial": 78, "rt": 373, "response": "Beta"}, "51": {"stimulus": 73, "trial": 51, "rt": 329, "response": "Beta"}, "39": {"stimulus": 49, "trial": 39, "rt": 415, "response": "Beta"}, "65": {"stimulus": 50, "trial": 65, "rt": 657, "response": "Beta"}, "76": {"stimulus": 52, "trial": 76, "rt": 391, "response": "Beta"}, "75": {"stimulus": 42, "trial": 75, "rt": 424, "response": "Beta"}, "38": {"stimulus": 5, "trial": 38, "rt": 371, "response": "Beta"}, "73": {"stimulus": 37, "trial": 73, "rt": 324, "response": "Beta"}, "72": {"stimulus": 63, "trial": 72, "rt": 505, "response": "Beta"}, "71": {"stimulus": 47, "trial": 71, "rt": 483, "response": "Beta"}, "70": {"stimulus": 74, "trial": 70, "rt": 394, "response": "Beta"}, "59": {"stimulus": 44, "trial": 59, "rt": 369, "response": "Beta"}, "79": {"stimulus": 7, "trial": 79, "rt": 395, "response": "Beta"}, "58": {"stimulus": 57, "trial": 58, "rt": 364, "response": "Beta"}, "11": {"stimulus": 9, "trial": 11, "rt": 429, "response": "Alpha"}, "10": {"stimulus": 54, "trial": 10, "rt": 358, "response": "Alpha"}, "13": {"stimulus": 56, "trial": 13, "rt": 2194, "response": "Alpha"}, "12": {"stimulus": 39, "trial": 12, "rt": 251, "response": "Alpha"}, "15": {"stimulus": 59, "trial": 15, "rt": 343, "response": "Alpha"}, "14": {"stimulus": 22, "trial": 14, "rt": 310, "response": "Beta"}, "17": {"stimulus": 19, "trial": 17, "rt": 208, "response": "Beta"}, "16": {"stimulus": 23, "trial": 16, "rt": 332, "response": "Beta"}, "19": {"stimulus": 66, "trial": 19, "rt": 268, "response": "Beta"}, "18": {"stimulus": 72, "trial": 18, "rt": 283, "response": "Beta"}, "31": {"stimulus": 8, "trial": 31, "rt": 442, "response": "Beta"}, "30": {"stimulus": 43, "trial": 30, "rt": 508, "response": "Beta"}, "37": {"stimulus": 32, "trial": 37, "rt": 911, "response": "Beta"}, "36": {"stimulus": 21, "trial": 36, "rt": 264, "response": "Beta"}, "35": {"stimulus": 18, "trial": 35, "rt": 354, "response": "Beta"}, "34": {"stimulus": 70, "trial": 34, "rt": 337, "response": "Beta"}, "33": {"stimulus": 64, "trial": 33, "rt": 386, "response": "Beta"}, "55": {"stimulus": 27, "trial": 55, "rt": 218, "response": "Beta"}, "74": {"stimulus": 25, "trial": 74, "rt": 320, "response": "Beta"}, "32": {"stimulus": 71, "trial": 32, "rt": 447, "response": "Beta"}, "57": {"stimulus": 17, "trial": 57, "rt": 456, "response": "Beta"}, "50": {"stimulus": 67, "trial": 50, "rt": 443, "response": "Beta"}}, "experiment": {"Paradigm": "TACL", "Stimuli": "Size-Color Squares", "Experiment": "Generating-Multiple-Categories"}, "submit": {}}