{"info": {"finish": 1535056166709, "participant": 42, "exposed": true, "lab": false, "start": 1535055813192, "counterbalance": 7, "gentype": 0, "condition": "Bottom", "browser": {"platform": "MacIntel", "userAgent": "Mozilla/5.0 (Macintosh; Intel Mac OS X 10_11_6) AppleWebKit/537.36 (KHTML, like Gecko) Chrome/68.0.3440.106 Safari/537.36"}}, "observation": {"11": {"stimulus": 12, "trial": 11, "rt": 90104}, "10": {"stimulus": 30, "trial": 10, "rt": 1717}, "1": {"stimulus": 14, "trial": 1, "rt": 3645}, "0": {"stimulus": 32, "trial": 0, "rt": 2680}, "3": {"stimulus": 12, "trial": 3, "rt": 1342}, "2": {"stimulus": 30, "trial": 2, "rt": 1848}, "5": {"stimulus": 32, "trial": 5, "rt": 1701}, "4": {"stimulus": 12, "trial": 4, "rt": 1363}, "7": {"stimulus": 30, "trial": 7, "rt": 1248}, "6": {"stimulus": 14, "trial": 6, "rt": 1756}, "9": {"stimulus": 14, "trial": 9, "rt": 1365}, "8": {"stimulus": 32, "trial": 8, "rt": 1414}}, "generation": {"1": {"category": "Not-Alpha", "trial": 1, "stimulus": 80, "rt": 5758}, "0": {"category": "Not-Alpha", "trial": 0, "stimulus": 76, "rt": 19147}, "3": {"category": "Not-Alpha", "trial": 3, "stimulus": 78, "rt": 3831}, "2": {"category": "Not-Alpha", "trial": 2, "stimulus": 72, "rt": 3671}, "5": {"category": "Not-Alpha", "trial": 5, "stimulus": 79, "rt": 4524}, "4": {"category": "Not-Alpha", "trial": 4, "stimulus": 74, "rt": 3868}, "7": {"category": "Not-Alpha", "trial": 7, "stimulus": 75, "rt": 7646}, "6": {"category": "Not-Alpha", "trial": 6, "stimulus": 77, "rt": 6656}}, "generalization": {"56": {"stimulus": 11, "trial": 56, "rt": 1374, "response": "Alpha"}, "77": {"stimulus": 10, "trial": 77, "rt": 848, "response": "Alpha"}, "54": {"stimulus": 21, "trial": 54, "rt": 916, "response": "Alpha"}, "42": {"stimulus": 15, "trial": 42, "rt": 708, "response": "Alpha"}, "48": {"stimulus": 7, "trial": 48, "rt": 770, "response": "Alpha"}, "43": {"stimulus": 29, "trial": 43, "rt": 590, "response": "Beta"}, "60": {"stimulus": 8, "trial": 60, "rt": 853, "response": "Alpha"}, "61": {"stimulus": 27, "trial": 61, "rt": 1838, "response": "Beta"}, "62": {"stimulus": 58, "trial": 62, "rt": 7589, "response": "Beta"}, "63": {"stimulus": 54, "trial": 63, "rt": 725, "response": "Beta"}, "64": {"stimulus": 71, "trial": 64, "rt": 847, "response": "Beta"}, "49": {"stimulus": 37, "trial": 49, "rt": 638, "response": "Beta"}, "66": {"stimulus": 2, "trial": 66, "rt": 821, "response": "Alpha"}, "67": {"stimulus": 19, "trial": 67, "rt": 1176, "response": "Alpha"}, "68": {"stimulus": 47, "trial": 68, "rt": 1230, "response": "Beta"}, "69": {"stimulus": 62, "trial": 69, "rt": 552, "response": "Beta"}, "80": {"stimulus": 36, "trial": 80, "rt": 469, "response": "Beta"}, "52": {"stimulus": 80, "trial": 52, "rt": 568, "response": "Beta"}, "53": {"stimulus": 78, "trial": 53, "rt": 452, "response": "Beta"}, "24": {"stimulus": 53, "trial": 24, "rt": 1503, "response": "Beta"}, "25": {"stimulus": 34, "trial": 25, "rt": 844, "response": "Alpha"}, "26": {"stimulus": 66, "trial": 26, "rt": 814, "response": "Beta"}, "27": {"stimulus": 20, "trial": 27, "rt": 808, "response": "Alpha"}, "20": {"stimulus": 69, "trial": 20, "rt": 830, "response": "Beta"}, "21": {"stimulus": 13, "trial": 21, "rt": 719, "response": "Alpha"}, "22": {"stimulus": 23, "trial": 22, "rt": 644, "response": "Alpha"}, "23": {"stimulus": 42, "trial": 23, "rt": 958, "response": "Beta"}, "46": {"stimulus": 5, "trial": 46, "rt": 989, "response": "Alpha"}, "47": {"stimulus": 63, "trial": 47, "rt": 1290, "response": "Beta"}, "44": {"stimulus": 67, "trial": 44, "rt": 534, "response": "Beta"}, "45": {"stimulus": 79, "trial": 45, "rt": 469, "response": "Beta"}, "28": {"stimulus": 77, "trial": 28, "rt": 422, "response": "Beta"}, "29": {"stimulus": 25, "trial": 29, "rt": 626, "response": "Alpha"}, "40": {"stimulus": 72, "trial": 40, "rt": 982, "response": "Alpha"}, "41": {"stimulus": 3, "trial": 41, "rt": 611, "response": "Alpha"}, "1": {"stimulus": 45, "trial": 1, "rt": 1143, "response": "Beta"}, "0": {"stimulus": 70, "trial": 0, "rt": 4748, "response": "Beta"}, "3": {"stimulus": 64, "trial": 3, "rt": 2067, "response": "Beta"}, "2": {"stimulus": 28, "trial": 2, "rt": 652, "response": "Beta"}, "5": {"stimulus": 61, "trial": 5, "rt": 804, "response": "Beta"}, "4": {"stimulus": 9, "trial": 4, "rt": 812, "response": "Alpha"}, "7": {"stimulus": 51, "trial": 7, "rt": 1132, "response": "Beta"}, "6": {"stimulus": 38, "trial": 6, "rt": 588, "response": "Alpha"}, "9": {"stimulus": 49, "trial": 9, "rt": 1492, "response": "Alpha"}, "8": {"stimulus": 52, "trial": 8, "rt": 1094, "response": "Alpha"}, "78": {"stimulus": 35, "trial": 78, "rt": 491, "response": "Beta"}, "51": {"stimulus": 57, "trial": 51, "rt": 1142, "response": "Beta"}, "39": {"stimulus": 75, "trial": 39, "rt": 790, "response": "Beta"}, "65": {"stimulus": 30, "trial": 65, "rt": 815, "response": "Alpha"}, "76": {"stimulus": 65, "trial": 76, "rt": 509, "response": "Beta"}, "75": {"stimulus": 56, "trial": 75, "rt": 552, "response": "Beta"}, "38": {"stimulus": 44, "trial": 38, "rt": 608, "response": "Beta"}, "73": {"stimulus": 74, "trial": 73, "rt": 695, "response": "Beta"}, "72": {"stimulus": 55, "trial": 72, "rt": 645, "response": "Beta"}, "71": {"stimulus": 12, "trial": 71, "rt": 926, "response": "Alpha"}, "70": {"stimulus": 41, "trial": 70, "rt": 603, "response": "Beta"}, "59": {"stimulus": 14, "trial": 59, "rt": 955, "response": "Alpha"}, "79": {"stimulus": 48, "trial": 79, "rt": 525, "response": "Beta"}, "58": {"stimulus": 39, "trial": 58, "rt": 490, "response": "Beta"}, "11": {"stimulus": 31, "trial": 11, "rt": 732, "response": "Alpha"}, "10": {"stimulus": 73, "trial": 10, "rt": 895, "response": "Beta"}, "13": {"stimulus": 6, "trial": 13, "rt": 663, "response": "Alpha"}, "12": {"stimulus": 18, "trial": 12, "rt": 733, "response": "Alpha"}, "15": {"stimulus": 17, "trial": 15, "rt": 790, "response": "Alpha"}, "14": {"stimulus": 24, "trial": 14, "rt": 677, "response": "Alpha"}, "17": {"stimulus": 59, "trial": 17, "rt": 464, "response": "Beta"}, "16": {"stimulus": 32, "trial": 16, "rt": 699, "response": "Alpha"}, "19": {"stimulus": 22, "trial": 19, "rt": 743, "response": "Alpha"}, "18": {"stimulus": 60, "trial": 18, "rt": 781, "response": "Beta"}, "31": {"stimulus": 40, "trial": 31, "rt": 735, "response": "Beta"}, "30": {"stimulus": 4, "trial": 30, "rt": 1132, "response": "Alpha"}, "37": {"stimulus": 26, "trial": 37, "rt": 860, "response": "Alpha"}, "36": {"stimulus": 46, "trial": 36, "rt": 648, "response": "Beta"}, "35": {"stimulus": 76, "trial": 35, "rt": 2810, "response": "Beta"}, "34": {"stimulus": 68, "trial": 34, "rt": 589, "response": "Beta"}, "33": {"stimulus": 1, "trial": 33, "rt": 796, "response": "Alpha"}, "55": {"stimulus": 50, "trial": 55, "rt": 542, "response": "Beta"}, "74": {"stimulus": 0, "trial": 74, "rt": 772, "response": "Alpha"}, "32": {"stimulus": 43, "trial": 32, "rt": 759, "response": "Beta"}, "57": {"stimulus": 16, "trial": 57, "rt": 793, "response": "Alpha"}, "50": {"stimulus": 33, "trial": 50, "rt": 486, "response": "Beta"}}, "experiment": {"Paradigm": "TACL", "Stimuli": "Size-Color Squares", "Experiment": "Generating-Multiple-Categories"}, "submit": {"timeTotal": 353796, "age": "40", "comments": "Interesting survey.  Thanks for posting :)", "sex": "Male"}}