{"info": {"finish": 1535060110286, "participant": 43, "exposed": true, "lab": false, "start": 1535059796832, "counterbalance": 0, "gentype": 2, "condition": "Middle", "browser": {"platform": "Win64", "userAgent": "Mozilla/5.0 (Windows NT 6.1; Win64; x64; rv:61.0) Gecko/20100101 Firefox/61.0"}}, "observation": {"11": {"stimulus": 50, "trial": 11, "rt": 1348}, "10": {"stimulus": 32, "trial": 10, "rt": 1345}, "1": {"stimulus": 32, "trial": 1, "rt": 1576}, "0": {"stimulus": 48, "trial": 0, "rt": 1893}, "3": {"stimulus": 50, "trial": 3, "rt": 1397}, "2": {"stimulus": 30, "trial": 2, "rt": 1429}, "5": {"stimulus": 30, "trial": 5, "rt": 1461}, "4": {"stimulus": 32, "trial": 4, "rt": 1503}, "7": {"stimulus": 50, "trial": 7, "rt": 1374}, "6": {"stimulus": 48, "trial": 6, "rt": 1383}, "9": {"stimulus": 48, "trial": 9, "rt": 1528}, "8": {"stimulus": 30, "trial": 8, "rt": 1245}}, "generation": {"1": {"category": "Beta", "trial": 1, "stimulus": 74, "rt": 7988}, "0": {"category": "Beta", "trial": 0, "stimulus": 75, "rt": 9692}, "3": {"category": "Beta", "trial": 3, "stimulus": 73, "rt": 3168}, "2": {"category": "Beta", "trial": 2, "stimulus": 72, "rt": 2766}, "5": {"category": "Gamma", "trial": 5, "stimulus": 48, "rt": 3865}, "4": {"category": "Gamma", "trial": 4, "stimulus": 47, "rt": 3585}, "7": {"category": "Gamma", "trial": 7, "stimulus": 4, "rt": 2608}, "6": {"category": "Gamma", "trial": 6, "stimulus": 12, "rt": 2587}}, "generalization": {"56": {"stimulus": 29, "trial": 56, "rt": 657, "response": "Alpha"}, "77": {"stimulus": 30, "trial": 77, "rt": 1288, "response": "Alpha"}, "54": {"stimulus": 72, "trial": 54, "rt": 617, "response": "Beta"}, "42": {"stimulus": 26, "trial": 42, "rt": 366, "response": "Alpha"}, "48": {"stimulus": 22, "trial": 48, "rt": 379, "response": "Alpha"}, "43": {"stimulus": 55, "trial": 43, "rt": 358, "response": "Alpha"}, "60": {"stimulus": 42, "trial": 60, "rt": 382, "response": "Alpha"}, "61": {"stimulus": 74, "trial": 61, "rt": 336, "response": "Alpha"}, "62": {"stimulus": 46, "trial": 62, "rt": 914, "response": "Alpha"}, "63": {"stimulus": 49, "trial": 63, "rt": 632, "response": "Alpha"}, "64": {"stimulus": 60, "trial": 64, "rt": 566, "response": "Alpha"}, "49": {"stimulus": 71, "trial": 49, "rt": 391, "response": "Alpha"}, "66": {"stimulus": 1, "trial": 66, "rt": 510, "response": "Alpha"}, "67": {"stimulus": 15, "trial": 67, "rt": 413, "response": "Alpha"}, "68": {"stimulus": 19, "trial": 68, "rt": 501, "response": "Alpha"}, "69": {"stimulus": 9, "trial": 69, "rt": 442, "response": "Alpha"}, "80": {"stimulus": 66, "trial": 80, "rt": 1069, "response": "Beta"}, "52": {"stimulus": 48, "trial": 52, "rt": 615, "response": "Alpha"}, "53": {"stimulus": 73, "trial": 53, "rt": 501, "response": "Beta"}, "24": {"stimulus": 44, "trial": 24, "rt": 713, "response": "Alpha"}, "25": {"stimulus": 33, "trial": 25, "rt": 424, "response": "Alpha"}, "26": {"stimulus": 57, "trial": 26, "rt": 554, "response": "Alpha"}, "27": {"stimulus": 70, "trial": 27, "rt": 629, "response": "Alpha"}, "20": {"stimulus": 4, "trial": 20, "rt": 460, "response": "Alpha"}, "21": {"stimulus": 14, "trial": 21, "rt": 441, "response": "Alpha"}, "22": {"stimulus": 51, "trial": 22, "rt": 1147, "response": "Alpha"}, "23": {"stimulus": 21, "trial": 23, "rt": 1022, "response": "Alpha"}, "46": {"stimulus": 68, "trial": 46, "rt": 397, "response": "Alpha"}, "47": {"stimulus": 23, "trial": 47, "rt": 367, "response": "Alpha"}, "44": {"stimulus": 80, "trial": 44, "rt": 368, "response": "Alpha"}, "45": {"stimulus": 27, "trial": 45, "rt": 519, "response": "Alpha"}, "28": {"stimulus": 69, "trial": 28, "rt": 423, "response": "Alpha"}, "29": {"stimulus": 63, "trial": 29, "rt": 439, "response": "Alpha"}, "40": {"stimulus": 0, "trial": 40, "rt": 408, "response": "Alpha"}, "41": {"stimulus": 47, "trial": 41, "rt": 257, "response": "Alpha"}, "1": {"stimulus": 34, "trial": 1, "rt": 1029, "response": "Alpha"}, "0": {"stimulus": 67, "trial": 0, "rt": 1846, "response": "Alpha"}, "3": {"stimulus": 32, "trial": 3, "rt": 604, "response": "Alpha"}, "2": {"stimulus": 40, "trial": 2, "rt": 685, "response": "Alpha"}, "5": {"stimulus": 18, "trial": 5, "rt": 1152, "response": "Alpha"}, "4": {"stimulus": 75, "trial": 4, "rt": 1276, "response": "Alpha"}, "7": {"stimulus": 31, "trial": 7, "rt": 553, "response": "Alpha"}, "6": {"stimulus": 62, "trial": 6, "rt": 737, "response": "Alpha"}, "9": {"stimulus": 77, "trial": 9, "rt": 671, "response": "Beta"}, "8": {"stimulus": 79, "trial": 8, "rt": 813, "response": "Beta"}, "78": {"stimulus": 5, "trial": 78, "rt": 980, "response": "Alpha"}, "51": {"stimulus": 20, "trial": 51, "rt": 431, "response": "Alpha"}, "39": {"stimulus": 25, "trial": 39, "rt": 4305, "response": "Alpha"}, "65": {"stimulus": 17, "trial": 65, "rt": 1039, "response": "Alpha"}, "76": {"stimulus": 58, "trial": 76, "rt": 1306, "response": "Alpha"}, "75": {"stimulus": 28, "trial": 75, "rt": 687, "response": "Alpha"}, "38": {"stimulus": 36, "trial": 38, "rt": 345, "response": "Alpha"}, "73": {"stimulus": 65, "trial": 73, "rt": 2375, "response": "Beta"}, "72": {"stimulus": 35, "trial": 72, "rt": 431, "response": "Alpha"}, "71": {"stimulus": 53, "trial": 71, "rt": 483, "response": "Alpha"}, "70": {"stimulus": 61, "trial": 70, "rt": 511, "response": "Alpha"}, "59": {"stimulus": 8, "trial": 59, "rt": 287, "response": "Alpha"}, "79": {"stimulus": 50, "trial": 79, "rt": 626, "response": "Alpha"}, "58": {"stimulus": 2, "trial": 58, "rt": 393, "response": "Alpha"}, "11": {"stimulus": 24, "trial": 11, "rt": 562, "response": "Alpha"}, "10": {"stimulus": 56, "trial": 10, "rt": 794, "response": "Alpha"}, "13": {"stimulus": 10, "trial": 13, "rt": 720, "response": "Alpha"}, "12": {"stimulus": 78, "trial": 12, "rt": 821, "response": "Beta"}, "15": {"stimulus": 52, "trial": 15, "rt": 1358, "response": "Alpha"}, "14": {"stimulus": 12, "trial": 14, "rt": 990, "response": "Gamma"}, "17": {"stimulus": 45, "trial": 17, "rt": 1393, "response": "Alpha"}, "16": {"stimulus": 3, "trial": 16, "rt": 686, "response": "Alpha"}, "19": {"stimulus": 13, "trial": 19, "rt": 581, "response": "Alpha"}, "18": {"stimulus": 6, "trial": 18, "rt": 952, "response": "Alpha"}, "31": {"stimulus": 16, "trial": 31, "rt": 452, "response": "Alpha"}, "30": {"stimulus": 39, "trial": 30, "rt": 598, "response": "Alpha"}, "37": {"stimulus": 11, "trial": 37, "rt": 403, "response": "Alpha"}, "36": {"stimulus": 41, "trial": 36, "rt": 334, "response": "Alpha"}, "35": {"stimulus": 7, "trial": 35, "rt": 270, "response": "Alpha"}, "34": {"stimulus": 38, "trial": 34, "rt": 433, "response": "Alpha"}, "33": {"stimulus": 59, "trial": 33, "rt": 402, "response": "Alpha"}, "55": {"stimulus": 76, "trial": 55, "rt": 563, "response": "Beta"}, "74": {"stimulus": 43, "trial": 74, "rt": 1216, "response": "Alpha"}, "32": {"stimulus": 64, "trial": 32, "rt": 809, "response": "Beta"}, "57": {"stimulus": 37, "trial": 57, "rt": 530, "response": "Alpha"}, "50": {"stimulus": 54, "trial": 50, "rt": 561, "response": "Alpha"}}, "experiment": {"Paradigm": "TACL", "Stimuli": "Size-Color Squares", "Experiment": "Generating-Multiple-Categories"}, "submit": {"timeTotal": 313798, "age": "36", "comments": "", "sex": "male"}}