{"info": {"finish": 1535060845250, "participant": 47, "exposed": true, "lab": false, "start": 1535059820452, "counterbalance": 2, "gentype": 0, "condition": "Middle", "browser": {"platform": "Win32", "userAgent": "Mozilla/5.0 (Windows NT 6.1; Win64; x64) AppleWebKit/537.36 (KHTML, like Gecko) Chrome/68.0.3440.106 Safari/537.36"}}, "observation": {"11": {"stimulus": 30, "trial": 11, "rt": 1380}, "10": {"stimulus": 50, "trial": 10, "rt": 1315}, "1": {"stimulus": 50, "trial": 1, "rt": 2036}, "0": {"stimulus": 30, "trial": 0, "rt": 2642}, "3": {"stimulus": 32, "trial": 3, "rt": 1859}, "2": {"stimulus": 48, "trial": 2, "rt": 3086}, "5": {"stimulus": 30, "trial": 5, "rt": 1700}, "4": {"stimulus": 32, "trial": 4, "rt": 2148}, "7": {"stimulus": 50, "trial": 7, "rt": 1426}, "6": {"stimulus": 48, "trial": 6, "rt": 1759}, "9": {"stimulus": 32, "trial": 9, "rt": 1651}, "8": {"stimulus": 48, "trial": 8, "rt": 1468}}, "generation": {"1": {"category": "Not-Alpha", "trial": 1, "stimulus": 0, "rt": 9259}, "0": {"category": "Not-Alpha", "trial": 0, "stimulus": 5, "rt": 16878}, "3": {"category": "Not-Alpha", "trial": 3, "stimulus": 8, "rt": 4030}, "2": {"category": "Not-Alpha", "trial": 2, "stimulus": 2, "rt": 3114}, "5": {"category": "Not-Alpha", "trial": 5, "stimulus": 4, "rt": 3946}, "4": {"category": "Not-Alpha", "trial": 4, "stimulus": 6, "rt": 12138}, "7": {"category": "Not-Alpha", "trial": 7, "stimulus": 12, "rt": 8679}, "6": {"category": "Not-Alpha", "trial": 6, "stimulus": 1, "rt": 5615}}, "generalization": {"56": {"stimulus": 72, "trial": 56, "rt": 1099, "response": "Beta"}, "77": {"stimulus": 63, "trial": 77, "rt": 2011, "response": "Beta"}, "54": {"stimulus": 62, "trial": 54, "rt": 759, "response": "Alpha"}, "42": {"stimulus": 67, "trial": 42, "rt": 995, "response": "Beta"}, "48": {"stimulus": 5, "trial": 48, "rt": 715, "response": "Beta"}, "43": {"stimulus": 52, "trial": 43, "rt": 935, "response": "Alpha"}, "60": {"stimulus": 11, "trial": 60, "rt": 2060, "response": "Beta"}, "61": {"stimulus": 48, "trial": 61, "rt": 852, "response": "Alpha"}, "62": {"stimulus": 17, "trial": 62, "rt": 1923, "response": "Beta"}, "63": {"stimulus": 25, "trial": 63, "rt": 5606, "response": "Alpha"}, "64": {"stimulus": 15, "trial": 64, "rt": 7836, "response": "Beta"}, "49": {"stimulus": 44, "trial": 49, "rt": 582, "response": "Alpha"}, "66": {"stimulus": 10, "trial": 66, "rt": 2020, "response": "Beta"}, "67": {"stimulus": 40, "trial": 67, "rt": 903, "response": "Alpha"}, "68": {"stimulus": 6, "trial": 68, "rt": 770, "response": "Beta"}, "69": {"stimulus": 50, "trial": 69, "rt": 1915, "response": "Alpha"}, "80": {"stimulus": 23, "trial": 80, "rt": 7698, "response": "Beta"}, "52": {"stimulus": 1, "trial": 52, "rt": 1605, "response": "Beta"}, "53": {"stimulus": 19, "trial": 53, "rt": 850, "response": "Beta"}, "24": {"stimulus": 54, "trial": 24, "rt": 1212, "response": "Alpha"}, "25": {"stimulus": 12, "trial": 25, "rt": 723, "response": "Beta"}, "26": {"stimulus": 30, "trial": 26, "rt": 1715, "response": "Alpha"}, "27": {"stimulus": 45, "trial": 27, "rt": 686, "response": "Alpha"}, "20": {"stimulus": 39, "trial": 20, "rt": 511, "response": "Beta"}, "21": {"stimulus": 31, "trial": 21, "rt": 538, "response": "Alpha"}, "22": {"stimulus": 55, "trial": 22, "rt": 659, "response": "Alpha"}, "23": {"stimulus": 34, "trial": 23, "rt": 1054, "response": "Alpha"}, "46": {"stimulus": 59, "trial": 46, "rt": 1095, "response": "Alpha"}, "47": {"stimulus": 32, "trial": 47, "rt": 996, "response": "Alpha"}, "44": {"stimulus": 42, "trial": 44, "rt": 940, "response": "Alpha"}, "45": {"stimulus": 75, "trial": 45, "rt": 892, "response": "Beta"}, "28": {"stimulus": 38, "trial": 28, "rt": 571, "response": "Alpha"}, "29": {"stimulus": 37, "trial": 29, "rt": 1291, "response": "Alpha"}, "40": {"stimulus": 56, "trial": 40, "rt": 9883, "response": "Beta"}, "41": {"stimulus": 43, "trial": 41, "rt": 1635, "response": "Alpha"}, "1": {"stimulus": 9, "trial": 1, "rt": 1410, "response": "Beta"}, "0": {"stimulus": 78, "trial": 0, "rt": 1206, "response": "Alpha"}, "3": {"stimulus": 13, "trial": 3, "rt": 431, "response": "Beta"}, "2": {"stimulus": 57, "trial": 2, "rt": 594, "response": "Alpha"}, "5": {"stimulus": 14, "trial": 5, "rt": 503, "response": "Beta"}, "4": {"stimulus": 66, "trial": 4, "rt": 627, "response": "Alpha"}, "7": {"stimulus": 29, "trial": 7, "rt": 608, "response": "Beta"}, "6": {"stimulus": 61, "trial": 6, "rt": 866, "response": "Alpha"}, "9": {"stimulus": 26, "trial": 9, "rt": 2033, "response": "Beta"}, "8": {"stimulus": 49, "trial": 8, "rt": 1756, "response": "Alpha"}, "78": {"stimulus": 36, "trial": 78, "rt": 821, "response": "Alpha"}, "51": {"stimulus": 22, "trial": 51, "rt": 927, "response": "Alpha"}, "39": {"stimulus": 35, "trial": 39, "rt": 1194, "response": "Alpha"}, "65": {"stimulus": 0, "trial": 65, "rt": 1091, "response": "Beta"}, "76": {"stimulus": 79, "trial": 76, "rt": 3027, "response": "Beta"}, "75": {"stimulus": 20, "trial": 75, "rt": 666528, "response": "Alpha"}, "38": {"stimulus": 69, "trial": 38, "rt": 795, "response": "Alpha"}, "73": {"stimulus": 46, "trial": 73, "rt": 911, "response": "Alpha"}, "72": {"stimulus": 41, "trial": 72, "rt": 1014, "response": "Alpha"}, "71": {"stimulus": 58, "trial": 71, "rt": 1963, "response": "Alpha"}, "70": {"stimulus": 2, "trial": 70, "rt": 4615, "response": "Beta"}, "59": {"stimulus": 68, "trial": 59, "rt": 1476, "response": "Alpha"}, "79": {"stimulus": 24, "trial": 79, "rt": 939, "response": "Beta"}, "58": {"stimulus": 28, "trial": 58, "rt": 1795, "response": "Alpha"}, "11": {"stimulus": 7, "trial": 11, "rt": 2371, "response": "Beta"}, "10": {"stimulus": 60, "trial": 10, "rt": 6500, "response": "Alpha"}, "13": {"stimulus": 27, "trial": 13, "rt": 3826, "response": "Alpha"}, "12": {"stimulus": 73, "trial": 12, "rt": 4183, "response": "Beta"}, "15": {"stimulus": 70, "trial": 15, "rt": 816, "response": "Alpha"}, "14": {"stimulus": 3, "trial": 14, "rt": 459, "response": "Beta"}, "17": {"stimulus": 21, "trial": 17, "rt": 6827, "response": "Alpha"}, "16": {"stimulus": 51, "trial": 16, "rt": 443, "response": "Beta"}, "19": {"stimulus": 71, "trial": 19, "rt": 1893, "response": "Alpha"}, "18": {"stimulus": 8, "trial": 18, "rt": 1022, "response": "Beta"}, "31": {"stimulus": 33, "trial": 31, "rt": 2283, "response": "Alpha"}, "30": {"stimulus": 64, "trial": 30, "rt": 3491, "response": "Beta"}, "37": {"stimulus": 16, "trial": 37, "rt": 1122, "response": "Beta"}, "36": {"stimulus": 76, "trial": 36, "rt": 487, "response": "Beta"}, "35": {"stimulus": 74, "trial": 35, "rt": 1370, "response": "Beta"}, "34": {"stimulus": 18, "trial": 34, "rt": 1083, "response": "Beta"}, "33": {"stimulus": 77, "trial": 33, "rt": 895, "response": "Beta"}, "55": {"stimulus": 47, "trial": 55, "rt": 1363, "response": "Alpha"}, "74": {"stimulus": 4, "trial": 74, "rt": 1627, "response": "Beta"}, "32": {"stimulus": 80, "trial": 32, "rt": 875, "response": "Beta"}, "57": {"stimulus": 53, "trial": 57, "rt": 567, "response": "Alpha"}, "50": {"stimulus": 65, "trial": 50, "rt": 779, "response": "Beta"}}, "experiment": {"Paradigm": "TACL", "Stimuli": "Size-Color Squares", "Experiment": "Generating-Multiple-Categories"}, "submit": {"timeTotal": 1025196, "age": "37", "comments": "not a bot, thanks.", "sex": "female"}}