{"info": {"finish": 1535060946613, "participant": 50, "exposed": true, "lab": false, "start": 1535060563654, "counterbalance": 6, "gentype": 2, "condition": "Middle", "browser": {"platform": "Win32", "userAgent": "Mozilla/5.0 (Windows NT 10.0; Win64; x64) AppleWebKit/537.36 (KHTML, like Gecko) Chrome/68.0.3440.106 Safari/537.36"}}, "observation": {"11": {"stimulus": 32, "trial": 11, "rt": 2091}, "10": {"stimulus": 48, "trial": 10, "rt": 1793}, "1": {"stimulus": 32, "trial": 1, "rt": 3813}, "0": {"stimulus": 50, "trial": 0, "rt": 2928}, "3": {"stimulus": 30, "trial": 3, "rt": 2084}, "2": {"stimulus": 48, "trial": 2, "rt": 2137}, "5": {"stimulus": 32, "trial": 5, "rt": 1823}, "4": {"stimulus": 48, "trial": 4, "rt": 1831}, "7": {"stimulus": 30, "trial": 7, "rt": 1556}, "6": {"stimulus": 50, "trial": 6, "rt": 1987}, "9": {"stimulus": 30, "trial": 9, "rt": 1276}, "8": {"stimulus": 50, "trial": 8, "rt": 1785}}, "generation": {"1": {"category": "Beta", "trial": 1, "stimulus": 0, "rt": 8748}, "0": {"category": "Beta", "trial": 0, "stimulus": 72, "rt": 10298}, "3": {"category": "Beta", "trial": 3, "stimulus": 8, "rt": 3029}, "2": {"category": "Beta", "trial": 2, "stimulus": 80, "rt": 9721}, "5": {"category": "Gamma", "trial": 5, "stimulus": 26, "rt": 12738}, "4": {"category": "Gamma", "trial": 4, "stimulus": 17, "rt": 19290}, "7": {"category": "Gamma", "trial": 7, "stimulus": 28, "rt": 3209}, "6": {"category": "Gamma", "trial": 6, "stimulus": 10, "rt": 7871}}, "generalization": {"56": {"stimulus": 22, "trial": 56, "rt": 1021, "response": "Gamma"}, "77": {"stimulus": 72, "trial": 77, "rt": 1552, "response": "Beta"}, "54": {"stimulus": 44, "trial": 54, "rt": 824, "response": "Alpha"}, "42": {"stimulus": 58, "trial": 42, "rt": 1163, "response": "Gamma"}, "48": {"stimulus": 59, "trial": 48, "rt": 2095, "response": "Alpha"}, "43": {"stimulus": 47, "trial": 43, "rt": 1499, "response": "Gamma"}, "60": {"stimulus": 25, "trial": 60, "rt": 1272, "response": "Gamma"}, "61": {"stimulus": 0, "trial": 61, "rt": 802, "response": "Gamma"}, "62": {"stimulus": 80, "trial": 62, "rt": 1882, "response": "Beta"}, "63": {"stimulus": 16, "trial": 63, "rt": 1803, "response": "Gamma"}, "64": {"stimulus": 2, "trial": 64, "rt": 598, "response": "Gamma"}, "49": {"stimulus": 65, "trial": 49, "rt": 1068, "response": "Beta"}, "66": {"stimulus": 28, "trial": 66, "rt": 1161, "response": "Gamma"}, "67": {"stimulus": 54, "trial": 67, "rt": 3286, "response": "Beta"}, "68": {"stimulus": 56, "trial": 68, "rt": 792, "response": "Beta"}, "69": {"stimulus": 9, "trial": 69, "rt": 1009, "response": "Gamma"}, "80": {"stimulus": 8, "trial": 80, "rt": 1232, "response": "Gamma"}, "52": {"stimulus": 33, "trial": 52, "rt": 1153, "response": "Beta"}, "53": {"stimulus": 60, "trial": 53, "rt": 1171, "response": "Alpha"}, "24": {"stimulus": 66, "trial": 24, "rt": 1532, "response": "Gamma"}, "25": {"stimulus": 62, "trial": 25, "rt": 1286, "response": "Alpha"}, "26": {"stimulus": 31, "trial": 26, "rt": 2094, "response": "Gamma"}, "27": {"stimulus": 63, "trial": 27, "rt": 1576, "response": "Beta"}, "20": {"stimulus": 5, "trial": 20, "rt": 888, "response": "Gamma"}, "21": {"stimulus": 71, "trial": 21, "rt": 2266, "response": "Alpha"}, "22": {"stimulus": 17, "trial": 22, "rt": 3124, "response": "Gamma"}, "23": {"stimulus": 32, "trial": 23, "rt": 1898, "response": "Alpha"}, "46": {"stimulus": 57, "trial": 46, "rt": 1499, "response": "Beta"}, "47": {"stimulus": 4, "trial": 47, "rt": 1318, "response": "Gamma"}, "44": {"stimulus": 15, "trial": 44, "rt": 1482, "response": "Gamma"}, "45": {"stimulus": 34, "trial": 45, "rt": 1265, "response": "Gamma"}, "28": {"stimulus": 21, "trial": 28, "rt": 1579, "response": "Gamma"}, "29": {"stimulus": 38, "trial": 29, "rt": 1152, "response": "Beta"}, "40": {"stimulus": 43, "trial": 40, "rt": 1044, "response": "Alpha"}, "41": {"stimulus": 77, "trial": 41, "rt": 1835, "response": "Gamma"}, "1": {"stimulus": 52, "trial": 1, "rt": 1037, "response": "Alpha"}, "0": {"stimulus": 51, "trial": 0, "rt": 1374, "response": "Alpha"}, "3": {"stimulus": 37, "trial": 3, "rt": 2276, "response": "Beta"}, "2": {"stimulus": 50, "trial": 2, "rt": 793, "response": "Alpha"}, "5": {"stimulus": 49, "trial": 5, "rt": 1327, "response": "Alpha"}, "4": {"stimulus": 68, "trial": 4, "rt": 2448, "response": "Gamma"}, "7": {"stimulus": 14, "trial": 7, "rt": 2290, "response": "Beta"}, "6": {"stimulus": 19, "trial": 6, "rt": 2275, "response": "Beta"}, "9": {"stimulus": 6, "trial": 9, "rt": 1387, "response": "Gamma"}, "8": {"stimulus": 40, "trial": 8, "rt": 3061, "response": "Alpha"}, "78": {"stimulus": 46, "trial": 78, "rt": 841, "response": "Gamma"}, "51": {"stimulus": 45, "trial": 51, "rt": 1296, "response": "Beta"}, "39": {"stimulus": 27, "trial": 39, "rt": 1758, "response": "Beta"}, "65": {"stimulus": 64, "trial": 65, "rt": 1186, "response": "Beta"}, "76": {"stimulus": 3, "trial": 76, "rt": 623, "response": "Gamma"}, "75": {"stimulus": 11, "trial": 75, "rt": 878, "response": "Gamma"}, "38": {"stimulus": 70, "trial": 38, "rt": 1303, "response": "Gamma"}, "73": {"stimulus": 36, "trial": 73, "rt": 935, "response": "Beta"}, "72": {"stimulus": 42, "trial": 72, "rt": 913, "response": "Alpha"}, "71": {"stimulus": 48, "trial": 71, "rt": 1412, "response": "Alpha"}, "70": {"stimulus": 79, "trial": 70, "rt": 1976, "response": "Beta"}, "59": {"stimulus": 13, "trial": 59, "rt": 669, "response": "Gamma"}, "79": {"stimulus": 41, "trial": 79, "rt": 1384, "response": "Alpha"}, "58": {"stimulus": 20, "trial": 58, "rt": 621, "response": "Gamma"}, "11": {"stimulus": 39, "trial": 11, "rt": 3609, "response": "Beta"}, "10": {"stimulus": 74, "trial": 10, "rt": 1524, "response": "Beta"}, "13": {"stimulus": 67, "trial": 13, "rt": 2074, "response": "Alpha"}, "12": {"stimulus": 73, "trial": 12, "rt": 1201, "response": "Gamma"}, "15": {"stimulus": 1, "trial": 15, "rt": 992, "response": "Gamma"}, "14": {"stimulus": 75, "trial": 14, "rt": 1553, "response": "Gamma"}, "17": {"stimulus": 24, "trial": 17, "rt": 1438, "response": "Gamma"}, "16": {"stimulus": 30, "trial": 16, "rt": 1294, "response": "Beta"}, "19": {"stimulus": 76, "trial": 19, "rt": 2253, "response": "Alpha"}, "18": {"stimulus": 55, "trial": 18, "rt": 1511, "response": "Beta"}, "31": {"stimulus": 18, "trial": 31, "rt": 975, "response": "Beta"}, "30": {"stimulus": 35, "trial": 30, "rt": 1422, "response": "Gamma"}, "37": {"stimulus": 23, "trial": 37, "rt": 2021, "response": "Alpha"}, "36": {"stimulus": 7, "trial": 36, "rt": 1052, "response": "Gamma"}, "35": {"stimulus": 10, "trial": 35, "rt": 1438, "response": "Beta"}, "34": {"stimulus": 26, "trial": 34, "rt": 1827, "response": "Gamma"}, "33": {"stimulus": 78, "trial": 33, "rt": 1611, "response": "Gamma"}, "55": {"stimulus": 69, "trial": 55, "rt": 1138, "response": "Beta"}, "74": {"stimulus": 53, "trial": 74, "rt": 1169, "response": "Alpha"}, "32": {"stimulus": 12, "trial": 32, "rt": 1396, "response": "Beta"}, "57": {"stimulus": 29, "trial": 57, "rt": 841, "response": "Gamma"}, "50": {"stimulus": 61, "trial": 50, "rt": 1028, "response": "Alpha"}}, "experiment": {"Paradigm": "TACL", "Stimuli": "Size-Color Squares", "Experiment": "Generating-Multiple-Categories"}, "submit": {"timeTotal": 383341, "age": "20", "comments": "", "sex": "female"}}