{"info": {"finish": 1535065529219, "participant": 56, "exposed": true, "lab": false, "start": 1535064817737, "counterbalance": 0, "gentype": 2, "condition": "Middle", "browser": {"platform": "Win32", "userAgent": "Mozilla/5.0 (Windows NT 6.1; Win64; x64) AppleWebKit/537.36 (KHTML, like Gecko) Chrome/68.0.3440.106 Safari/537.36"}}, "observation": {"11": {"stimulus": 50, "trial": 11, "rt": 1423}, "10": {"stimulus": 30, "trial": 10, "rt": 1643}, "1": {"stimulus": 48, "trial": 1, "rt": 2286}, "0": {"stimulus": 32, "trial": 0, "rt": 2641}, "3": {"stimulus": 30, "trial": 3, "rt": 1966}, "2": {"stimulus": 50, "trial": 2, "rt": 2487}, "5": {"stimulus": 48, "trial": 5, "rt": 1680}, "4": {"stimulus": 50, "trial": 4, "rt": 1555}, "7": {"stimulus": 32, "trial": 7, "rt": 3195}, "6": {"stimulus": 30, "trial": 6, "rt": 1822}, "9": {"stimulus": 48, "trial": 9, "rt": 1692}, "8": {"stimulus": 32, "trial": 8, "rt": 1593}}, "generation": {"1": {"category": "Beta", "trial": 1, "stimulus": 78, "rt": 5203}, "0": {"category": "Beta", "trial": 0, "stimulus": 4, "rt": 18271}, "3": {"category": "Beta", "trial": 3, "stimulus": 77, "rt": 3535}, "2": {"category": "Beta", "trial": 2, "stimulus": 0, "rt": 4445}, "5": {"category": "Gamma", "trial": 5, "stimulus": 17, "rt": 7962}, "4": {"category": "Gamma", "trial": 4, "stimulus": 27, "rt": 9064}, "7": {"category": "Gamma", "trial": 7, "stimulus": 8, "rt": 4664}, "6": {"category": "Gamma", "trial": 6, "stimulus": 10, "rt": 9623}}, "generalization": {"56": {"stimulus": 11, "trial": 56, "rt": 912, "response": "Gamma"}, "77": {"stimulus": 39, "trial": 77, "rt": 577, "response": "Alpha"}, "54": {"stimulus": 7, "trial": 54, "rt": 1338, "response": "Gamma"}, "42": {"stimulus": 72, "trial": 42, "rt": 1139, "response": "Beta"}, "48": {"stimulus": 64, "trial": 48, "rt": 1143, "response": "Beta"}, "43": {"stimulus": 4, "trial": 43, "rt": 863, "response": "Gamma"}, "60": {"stimulus": 42, "trial": 60, "rt": 1710, "response": "Alpha"}, "61": {"stimulus": 50, "trial": 61, "rt": 768, "response": "Alpha"}, "62": {"stimulus": 69, "trial": 62, "rt": 1889, "response": "Beta"}, "63": {"stimulus": 3, "trial": 63, "rt": 895, "response": "Gamma"}, "64": {"stimulus": 6, "trial": 64, "rt": 802, "response": "Gamma"}, "49": {"stimulus": 77, "trial": 49, "rt": 696, "response": "Beta"}, "66": {"stimulus": 0, "trial": 66, "rt": 751, "response": "Gamma"}, "67": {"stimulus": 12, "trial": 67, "rt": 662, "response": "Gamma"}, "68": {"stimulus": 13, "trial": 68, "rt": 551, "response": "Gamma"}, "69": {"stimulus": 41, "trial": 69, "rt": 1456, "response": "Alpha"}, "80": {"stimulus": 14, "trial": 80, "rt": 935, "response": "Gamma"}, "52": {"stimulus": 20, "trial": 52, "rt": 1097, "response": "Gamma"}, "53": {"stimulus": 47, "trial": 53, "rt": 1210, "response": "Alpha"}, "24": {"stimulus": 28, "trial": 24, "rt": 1698, "response": "Alpha"}, "25": {"stimulus": 38, "trial": 25, "rt": 613, "response": "Alpha"}, "26": {"stimulus": 33, "trial": 26, "rt": 2224, "response": "Alpha"}, "27": {"stimulus": 56, "trial": 27, "rt": 5505, "response": "Alpha"}, "20": {"stimulus": 16, "trial": 20, "rt": 4916, "response": "Gamma"}, "21": {"stimulus": 19, "trial": 21, "rt": 752, "response": "Gamma"}, "22": {"stimulus": 59, "trial": 22, "rt": 1439, "response": "Alpha"}, "23": {"stimulus": 51, "trial": 23, "rt": 779, "response": "Alpha"}, "46": {"stimulus": 29, "trial": 46, "rt": 1848, "response": "Alpha"}, "47": {"stimulus": 22, "trial": 47, "rt": 1209, "response": "Gamma"}, "44": {"stimulus": 31, "trial": 44, "rt": 2521, "response": "Alpha"}, "45": {"stimulus": 36, "trial": 45, "rt": 1231, "response": "Alpha"}, "28": {"stimulus": 17, "trial": 28, "rt": 2514, "response": "Gamma"}, "29": {"stimulus": 61, "trial": 29, "rt": 2520, "response": "Beta"}, "40": {"stimulus": 58, "trial": 40, "rt": 4149, "response": "Alpha"}, "41": {"stimulus": 15, "trial": 41, "rt": 1016, "response": "Gamma"}, "1": {"stimulus": 76, "trial": 1, "rt": 3259, "response": "Beta"}, "0": {"stimulus": 79, "trial": 0, "rt": 7149, "response": "Beta"}, "3": {"stimulus": 30, "trial": 3, "rt": 1269, "response": "Gamma"}, "2": {"stimulus": 67, "trial": 2, "rt": 1770, "response": "Beta"}, "5": {"stimulus": 27, "trial": 5, "rt": 718, "response": "Gamma"}, "4": {"stimulus": 34, "trial": 4, "rt": 962, "response": "Gamma"}, "7": {"stimulus": 49, "trial": 7, "rt": 681, "response": "Alpha"}, "6": {"stimulus": 45, "trial": 6, "rt": 1607, "response": "Alpha"}, "9": {"stimulus": 46, "trial": 9, "rt": 1779, "response": "Alpha"}, "8": {"stimulus": 75, "trial": 8, "rt": 1353, "response": "Beta"}, "78": {"stimulus": 8, "trial": 78, "rt": 955, "response": "Gamma"}, "51": {"stimulus": 73, "trial": 51, "rt": 1605, "response": "Beta"}, "39": {"stimulus": 53, "trial": 39, "rt": 2395, "response": "Alpha"}, "65": {"stimulus": 25, "trial": 65, "rt": 4651, "response": "Gamma"}, "76": {"stimulus": 55, "trial": 76, "rt": 1650, "response": "Alpha"}, "75": {"stimulus": 74, "trial": 75, "rt": 642, "response": "Beta"}, "38": {"stimulus": 68, "trial": 38, "rt": 2118, "response": "Alpha"}, "73": {"stimulus": 1, "trial": 73, "rt": 692, "response": "Gamma"}, "72": {"stimulus": 24, "trial": 72, "rt": 580, "response": "Gamma"}, "71": {"stimulus": 5, "trial": 71, "rt": 942, "response": "Gamma"}, "70": {"stimulus": 43, "trial": 70, "rt": 613, "response": "Alpha"}, "59": {"stimulus": 70, "trial": 59, "rt": 1287, "response": "Beta"}, "79": {"stimulus": 78, "trial": 79, "rt": 937, "response": "Beta"}, "58": {"stimulus": 65, "trial": 58, "rt": 813, "response": "Beta"}, "11": {"stimulus": 48, "trial": 11, "rt": 1653, "response": "Alpha"}, "10": {"stimulus": 52, "trial": 10, "rt": 1286, "response": "Alpha"}, "13": {"stimulus": 10, "trial": 13, "rt": 594, "response": "Gamma"}, "12": {"stimulus": 9, "trial": 12, "rt": 1758, "response": "Gamma"}, "15": {"stimulus": 66, "trial": 15, "rt": 1440, "response": "Beta"}, "14": {"stimulus": 44, "trial": 14, "rt": 2703, "response": "Alpha"}, "17": {"stimulus": 18, "trial": 17, "rt": 808, "response": "Gamma"}, "16": {"stimulus": 26, "trial": 16, "rt": 1179, "response": "Gamma"}, "19": {"stimulus": 40, "trial": 19, "rt": 976, "response": "Gamma"}, "18": {"stimulus": 35, "trial": 18, "rt": 914, "response": "Gamma"}, "31": {"stimulus": 57, "trial": 31, "rt": 1228, "response": "Alpha"}, "30": {"stimulus": 2, "trial": 30, "rt": 1327, "response": "Gamma"}, "37": {"stimulus": 60, "trial": 37, "rt": 1914, "response": "Alpha"}, "36": {"stimulus": 63, "trial": 36, "rt": 1708, "response": "Beta"}, "35": {"stimulus": 21, "trial": 35, "rt": 1054, "response": "Gamma"}, "34": {"stimulus": 71, "trial": 34, "rt": 853, "response": "Beta"}, "33": {"stimulus": 32, "trial": 33, "rt": 2548, "response": "Alpha"}, "55": {"stimulus": 54, "trial": 55, "rt": 1569, "response": "Alpha"}, "74": {"stimulus": 80, "trial": 74, "rt": 947, "response": "Beta"}, "32": {"stimulus": 23, "trial": 32, "rt": 3139, "response": "Alpha"}, "57": {"stimulus": 37, "trial": 57, "rt": 1369, "response": "Alpha"}, "50": {"stimulus": 62, "trial": 50, "rt": 1273, "response": "Alpha"}}, "experiment": {"Paradigm": "TACL", "Stimuli": "Size-Color Squares", "Experiment": "Generating-Multiple-Categories"}, "submit": {"timeTotal": 711694, "age": "27", "comments": "", "sex": "nonbinary"}}