{"info": {"finish": 1535345842209, "participant": 58, "exposed": true, "lab": false, "start": 1535345511523, "counterbalance": 1, "gentype": 1, "condition": "Bottom", "browser": {"platform": "Win32", "userAgent": "Mozilla/5.0 (Windows NT 10.0; Win64; x64) AppleWebKit/537.36 (KHTML, like Gecko) Chrome/68.0.3440.106 Safari/537.36"}}, "observation": {"11": {"stimulus": 12, "trial": 11, "rt": 1903}, "10": {"stimulus": 32, "trial": 10, "rt": 1739}, "1": {"stimulus": 14, "trial": 1, "rt": 3262}, "0": {"stimulus": 30, "trial": 0, "rt": 17392}, "3": {"stimulus": 12, "trial": 3, "rt": 1998}, "2": {"stimulus": 32, "trial": 2, "rt": 2699}, "5": {"stimulus": 30, "trial": 5, "rt": 1980}, "4": {"stimulus": 14, "trial": 4, "rt": 1875}, "7": {"stimulus": 12, "trial": 7, "rt": 2069}, "6": {"stimulus": 32, "trial": 6, "rt": 1629}, "9": {"stimulus": 14, "trial": 9, "rt": 1725}, "8": {"stimulus": 30, "trial": 8, "rt": 1713}}, "generation": {"1": {"category": "Beta", "trial": 1, "stimulus": 11, "rt": 7775}, "0": {"category": "Beta", "trial": 0, "stimulus": 29, "rt": 8098}, "3": {"category": "Beta", "trial": 3, "stimulus": 47, "rt": 5348}, "2": {"category": "Beta", "trial": 2, "stimulus": 21, "rt": 3978}, "5": {"category": "Beta", "trial": 5, "stimulus": 72, "rt": 5100}, "4": {"category": "Beta", "trial": 4, "stimulus": 74, "rt": 8503}, "7": {"category": "Beta", "trial": 7, "stimulus": 67, "rt": 3333}, "6": {"category": "Beta", "trial": 6, "stimulus": 64, "rt": 4239}}, "generalization": {"56": {"stimulus": 16, "trial": 56, "rt": 1223, "response": "Alpha"}, "77": {"stimulus": 17, "trial": 77, "rt": 638, "response": "Alpha"}, "54": {"stimulus": 25, "trial": 54, "rt": 923, "response": "Alpha"}, "42": {"stimulus": 34, "trial": 42, "rt": 911, "response": "Alpha"}, "48": {"stimulus": 37, "trial": 48, "rt": 969, "response": "Beta"}, "43": {"stimulus": 29, "trial": 43, "rt": 1734, "response": "Beta"}, "60": {"stimulus": 27, "trial": 60, "rt": 636, "response": "Beta"}, "61": {"stimulus": 65, "trial": 61, "rt": 587, "response": "Beta"}, "62": {"stimulus": 69, "trial": 62, "rt": 856, "response": "Alpha"}, "63": {"stimulus": 59, "trial": 63, "rt": 674, "response": "Alpha"}, "64": {"stimulus": 72, "trial": 64, "rt": 948, "response": "Beta"}, "49": {"stimulus": 8, "trial": 49, "rt": 4292, "response": "Alpha"}, "66": {"stimulus": 13, "trial": 66, "rt": 848, "response": "Alpha"}, "67": {"stimulus": 73, "trial": 67, "rt": 979, "response": "Beta"}, "68": {"stimulus": 48, "trial": 68, "rt": 1956, "response": "Beta"}, "69": {"stimulus": 11, "trial": 69, "rt": 794, "response": "Beta"}, "80": {"stimulus": 56, "trial": 80, "rt": 707, "response": "Beta"}, "52": {"stimulus": 38, "trial": 52, "rt": 1798, "response": "Beta"}, "53": {"stimulus": 50, "trial": 53, "rt": 807, "response": "Alpha"}, "24": {"stimulus": 3, "trial": 24, "rt": 844, "response": "Alpha"}, "25": {"stimulus": 7, "trial": 25, "rt": 547, "response": "Alpha"}, "26": {"stimulus": 4, "trial": 26, "rt": 1265, "response": "Beta"}, "27": {"stimulus": 23, "trial": 27, "rt": 1044, "response": "Alpha"}, "20": {"stimulus": 58, "trial": 20, "rt": 871, "response": "Alpha"}, "21": {"stimulus": 79, "trial": 21, "rt": 721, "response": "Alpha"}, "22": {"stimulus": 14, "trial": 22, "rt": 798, "response": "Alpha"}, "23": {"stimulus": 0, "trial": 23, "rt": 878, "response": "Beta"}, "46": {"stimulus": 53, "trial": 46, "rt": 2076, "response": "Alpha"}, "47": {"stimulus": 71, "trial": 47, "rt": 611, "response": "Alpha"}, "44": {"stimulus": 62, "trial": 44, "rt": 634, "response": "Alpha"}, "45": {"stimulus": 9, "trial": 45, "rt": 981, "response": "Beta"}, "28": {"stimulus": 78, "trial": 28, "rt": 507, "response": "Alpha"}, "29": {"stimulus": 67, "trial": 29, "rt": 1122, "response": "Alpha"}, "40": {"stimulus": 26, "trial": 40, "rt": 900, "response": "Alpha"}, "41": {"stimulus": 42, "trial": 41, "rt": 753, "response": "Alpha"}, "1": {"stimulus": 77, "trial": 1, "rt": 1702, "response": "Alpha"}, "0": {"stimulus": 19, "trial": 0, "rt": 4158, "response": "Alpha"}, "3": {"stimulus": 52, "trial": 3, "rt": 641, "response": "Alpha"}, "2": {"stimulus": 15, "trial": 2, "rt": 1904, "response": "Alpha"}, "5": {"stimulus": 74, "trial": 5, "rt": 794, "response": "Beta"}, "4": {"stimulus": 70, "trial": 4, "rt": 513, "response": "Alpha"}, "7": {"stimulus": 41, "trial": 7, "rt": 1130, "response": "Beta"}, "6": {"stimulus": 5, "trial": 6, "rt": 648, "response": "Alpha"}, "9": {"stimulus": 10, "trial": 9, "rt": 514, "response": "Beta"}, "8": {"stimulus": 47, "trial": 8, "rt": 592, "response": "Beta"}, "78": {"stimulus": 30, "trial": 78, "rt": 806, "response": "Beta"}, "51": {"stimulus": 12, "trial": 51, "rt": 1736, "response": "Beta"}, "39": {"stimulus": 40, "trial": 39, "rt": 1093, "response": "Alpha"}, "65": {"stimulus": 46, "trial": 65, "rt": 561, "response": "Beta"}, "76": {"stimulus": 55, "trial": 76, "rt": 1381, "response": "Beta"}, "75": {"stimulus": 60, "trial": 75, "rt": 850, "response": "Alpha"}, "38": {"stimulus": 51, "trial": 38, "rt": 471, "response": "Alpha"}, "73": {"stimulus": 2, "trial": 73, "rt": 732, "response": "Beta"}, "72": {"stimulus": 66, "trial": 72, "rt": 642, "response": "Beta"}, "71": {"stimulus": 75, "trial": 71, "rt": 795, "response": "Beta"}, "70": {"stimulus": 43, "trial": 70, "rt": 632, "response": "Alpha"}, "59": {"stimulus": 31, "trial": 59, "rt": 628, "response": "Beta"}, "79": {"stimulus": 76, "trial": 79, "rt": 1048, "response": "Beta"}, "58": {"stimulus": 39, "trial": 58, "rt": 587, "response": "Beta"}, "11": {"stimulus": 63, "trial": 11, "rt": 955, "response": "Beta"}, "10": {"stimulus": 24, "trial": 10, "rt": 825, "response": "Alpha"}, "13": {"stimulus": 49, "trial": 13, "rt": 690, "response": "Alpha"}, "12": {"stimulus": 22, "trial": 12, "rt": 1320, "response": "Alpha"}, "15": {"stimulus": 28, "trial": 15, "rt": 962, "response": "Beta"}, "14": {"stimulus": 80, "trial": 14, "rt": 1324, "response": "Alpha"}, "17": {"stimulus": 21, "trial": 17, "rt": 985, "response": "Alpha"}, "16": {"stimulus": 1, "trial": 16, "rt": 732, "response": "Beta"}, "19": {"stimulus": 32, "trial": 19, "rt": 1205, "response": "Alpha"}, "18": {"stimulus": 20, "trial": 18, "rt": 1107, "response": "Alpha"}, "31": {"stimulus": 45, "trial": 31, "rt": 599, "response": "Beta"}, "30": {"stimulus": 36, "trial": 30, "rt": 881, "response": "Beta"}, "37": {"stimulus": 61, "trial": 37, "rt": 494, "response": "Alpha"}, "36": {"stimulus": 33, "trial": 36, "rt": 544, "response": "Alpha"}, "35": {"stimulus": 44, "trial": 35, "rt": 911, "response": "Alpha"}, "34": {"stimulus": 6, "trial": 34, "rt": 764, "response": "Alpha"}, "33": {"stimulus": 57, "trial": 33, "rt": 858, "response": "Beta"}, "55": {"stimulus": 68, "trial": 55, "rt": 1953, "response": "Beta"}, "74": {"stimulus": 18, "trial": 74, "rt": 567, "response": "Beta"}, "32": {"stimulus": 35, "trial": 32, "rt": 810, "response": "Alpha"}, "57": {"stimulus": 64, "trial": 57, "rt": 712, "response": "Beta"}, "50": {"stimulus": 54, "trial": 50, "rt": 875, "response": "Beta"}}, "experiment": {"Paradigm": "TACL", "Stimuli": "Size-Color Squares", "Experiment": "Generating-Multiple-Categories"}, "submit": {"timeTotal": 331146, "age": "26", "comments": "I think this was to see if the darkness affected what would be perceived as alpha or beta. Darker shades may appear bigger than reality. ", "sex": "male"}}