{"info": {"finish": 1535345957447, "participant": 60, "exposed": true, "lab": false, "start": 1535345514477, "counterbalance": 5, "gentype": 0, "condition": "Bottom", "browser": {"platform": "Win32", "userAgent": "Mozilla/5.0 (Windows NT 10.0; WOW64; rv:61.0) Gecko/20100101 Firefox/61.0"}}, "observation": {"11": {"stimulus": 32, "trial": 11, "rt": 2511}, "10": {"stimulus": 30, "trial": 10, "rt": 2343}, "1": {"stimulus": 32, "trial": 1, "rt": 2141}, "0": {"stimulus": 14, "trial": 0, "rt": 3160}, "3": {"stimulus": 30, "trial": 3, "rt": 2108}, "2": {"stimulus": 12, "trial": 2, "rt": 2592}, "5": {"stimulus": 32, "trial": 5, "rt": 4211}, "4": {"stimulus": 30, "trial": 4, "rt": 2584}, "7": {"stimulus": 14, "trial": 7, "rt": 4455}, "6": {"stimulus": 12, "trial": 6, "rt": 3411}, "9": {"stimulus": 14, "trial": 9, "rt": 1797}, "8": {"stimulus": 12, "trial": 8, "rt": 3310}}, "generation": {"1": {"category": "Not-Alpha", "trial": 1, "stimulus": 34, "rt": 16317}, "0": {"category": "Not-Alpha", "trial": 0, "stimulus": 80, "rt": 14580}, "3": {"category": "Not-Alpha", "trial": 3, "stimulus": 52, "rt": 6660}, "2": {"category": "Not-Alpha", "trial": 2, "stimulus": 54, "rt": 11972}, "5": {"category": "Not-Alpha", "trial": 5, "stimulus": 0, "rt": 49622}, "4": {"category": "Not-Alpha", "trial": 4, "stimulus": 78, "rt": 10561}, "7": {"category": "Not-Alpha", "trial": 7, "stimulus": 18, "rt": 11274}, "6": {"category": "Not-Alpha", "trial": 6, "stimulus": 53, "rt": 21283}}, "generalization": {"56": {"stimulus": 16, "trial": 56, "rt": 847, "response": "Beta"}, "77": {"stimulus": 58, "trial": 77, "rt": 1216, "response": "Alpha"}, "54": {"stimulus": 71, "trial": 54, "rt": 1035, "response": "Beta"}, "42": {"stimulus": 70, "trial": 42, "rt": 787, "response": "Beta"}, "48": {"stimulus": 2, "trial": 48, "rt": 1669, "response": "Alpha"}, "43": {"stimulus": 5, "trial": 43, "rt": 1187, "response": "Beta"}, "60": {"stimulus": 17, "trial": 60, "rt": 946, "response": "Beta"}, "61": {"stimulus": 22, "trial": 61, "rt": 1027, "response": "Alpha"}, "62": {"stimulus": 49, "trial": 62, "rt": 1291, "response": "Alpha"}, "63": {"stimulus": 54, "trial": 63, "rt": 860, "response": "Beta"}, "64": {"stimulus": 46, "trial": 64, "rt": 939, "response": "Beta"}, "49": {"stimulus": 76, "trial": 49, "rt": 1532, "response": "Alpha"}, "66": {"stimulus": 20, "trial": 66, "rt": 1060, "response": "Alpha"}, "67": {"stimulus": 37, "trial": 67, "rt": 970, "response": "Beta"}, "68": {"stimulus": 36, "trial": 68, "rt": 1210, "response": "Beta"}, "69": {"stimulus": 55, "trial": 69, "rt": 1059, "response": "Beta"}, "80": {"stimulus": 78, "trial": 80, "rt": 924, "response": "Beta"}, "52": {"stimulus": 56, "trial": 52, "rt": 1442, "response": "Alpha"}, "53": {"stimulus": 74, "trial": 53, "rt": 954, "response": "Alpha"}, "24": {"stimulus": 32, "trial": 24, "rt": 761, "response": "Alpha"}, "25": {"stimulus": 35, "trial": 25, "rt": 3528, "response": "Beta"}, "26": {"stimulus": 42, "trial": 26, "rt": 1466, "response": "Beta"}, "27": {"stimulus": 6, "trial": 27, "rt": 2293, "response": "Beta"}, "20": {"stimulus": 13, "trial": 20, "rt": 1524, "response": "Alpha"}, "21": {"stimulus": 77, "trial": 21, "rt": 2349, "response": "Beta"}, "22": {"stimulus": 41, "trial": 22, "rt": 1097, "response": "Alpha"}, "23": {"stimulus": 50, "trial": 23, "rt": 909, "response": "Alpha"}, "46": {"stimulus": 24, "trial": 46, "rt": 1610, "response": "Beta"}, "47": {"stimulus": 3, "trial": 47, "rt": 872, "response": "Alpha"}, "44": {"stimulus": 67, "trial": 44, "rt": 1218, "response": "Alpha"}, "45": {"stimulus": 53, "trial": 45, "rt": 3069, "response": "Beta"}, "28": {"stimulus": 80, "trial": 28, "rt": 3025, "response": "Beta"}, "29": {"stimulus": 68, "trial": 29, "rt": 2942, "response": "Beta"}, "40": {"stimulus": 11, "trial": 40, "rt": 2181, "response": "Alpha"}, "41": {"stimulus": 63, "trial": 41, "rt": 1117, "response": "Beta"}, "1": {"stimulus": 62, "trial": 1, "rt": 1155, "response": "Beta"}, "0": {"stimulus": 9, "trial": 0, "rt": 3036, "response": "Beta"}, "3": {"stimulus": 45, "trial": 3, "rt": 1232, "response": "Alpha"}, "2": {"stimulus": 29, "trial": 2, "rt": 947, "response": "Alpha"}, "5": {"stimulus": 8, "trial": 5, "rt": 981, "response": "Beta"}, "4": {"stimulus": 61, "trial": 4, "rt": 1195, "response": "Beta"}, "7": {"stimulus": 69, "trial": 7, "rt": 993, "response": "Beta"}, "6": {"stimulus": 79, "trial": 6, "rt": 1194, "response": "Beta"}, "9": {"stimulus": 34, "trial": 9, "rt": 804, "response": "Beta"}, "8": {"stimulus": 26, "trial": 8, "rt": 1035, "response": "Beta"}, "78": {"stimulus": 65, "trial": 78, "rt": 1091, "response": "Beta"}, "51": {"stimulus": 60, "trial": 51, "rt": 1196, "response": "Beta"}, "39": {"stimulus": 72, "trial": 39, "rt": 1275, "response": "Alpha"}, "65": {"stimulus": 66, "trial": 65, "rt": 1691, "response": "Beta"}, "76": {"stimulus": 44, "trial": 76, "rt": 1140, "response": "Beta"}, "75": {"stimulus": 4, "trial": 75, "rt": 827, "response": "Beta"}, "38": {"stimulus": 43, "trial": 38, "rt": 1240, "response": "Beta"}, "73": {"stimulus": 39, "trial": 73, "rt": 2358, "response": "Alpha"}, "72": {"stimulus": 52, "trial": 72, "rt": 689, "response": "Beta"}, "71": {"stimulus": 21, "trial": 71, "rt": 943, "response": "Alpha"}, "70": {"stimulus": 75, "trial": 70, "rt": 1212, "response": "Alpha"}, "59": {"stimulus": 31, "trial": 59, "rt": 1212, "response": "Alpha"}, "79": {"stimulus": 57, "trial": 79, "rt": 1116, "response": "Alpha"}, "58": {"stimulus": 59, "trial": 58, "rt": 1387, "response": "Beta"}, "11": {"stimulus": 30, "trial": 11, "rt": 953, "response": "Alpha"}, "10": {"stimulus": 23, "trial": 10, "rt": 1309, "response": "Alpha"}, "13": {"stimulus": 40, "trial": 13, "rt": 1226, "response": "Alpha"}, "12": {"stimulus": 25, "trial": 12, "rt": 891, "response": "Beta"}, "15": {"stimulus": 33, "trial": 15, "rt": 1339, "response": "Beta"}, "14": {"stimulus": 10, "trial": 14, "rt": 1177, "response": "Beta"}, "17": {"stimulus": 12, "trial": 17, "rt": 843, "response": "Alpha"}, "16": {"stimulus": 28, "trial": 16, "rt": 892, "response": "Alpha"}, "19": {"stimulus": 7, "trial": 19, "rt": 1180, "response": "Beta"}, "18": {"stimulus": 51, "trial": 18, "rt": 1027, "response": "Beta"}, "31": {"stimulus": 15, "trial": 31, "rt": 1028, "response": "Beta"}, "30": {"stimulus": 38, "trial": 30, "rt": 1452, "response": "Beta"}, "37": {"stimulus": 47, "trial": 37, "rt": 1268, "response": "Alpha"}, "36": {"stimulus": 73, "trial": 36, "rt": 1138, "response": "Alpha"}, "35": {"stimulus": 64, "trial": 35, "rt": 1281, "response": "Beta"}, "34": {"stimulus": 19, "trial": 34, "rt": 1941, "response": "Beta"}, "33": {"stimulus": 18, "trial": 33, "rt": 874, "response": "Beta"}, "55": {"stimulus": 27, "trial": 55, "rt": 946, "response": "Beta"}, "74": {"stimulus": 14, "trial": 74, "rt": 1115, "response": "Beta"}, "32": {"stimulus": 0, "trial": 32, "rt": 1538, "response": "Beta"}, "57": {"stimulus": 1, "trial": 57, "rt": 2210, "response": "Alpha"}, "50": {"stimulus": 48, "trial": 50, "rt": 1276, "response": "Alpha"}}, "experiment": {"Paradigm": "TACL", "Stimuli": "Size-Color Squares", "Experiment": "Generating-Multiple-Categories"}, "submit": {"timeTotal": 443282, "age": "26", "comments": "I think non alpha was really dark (black) or super light..maybe?", "sex": "Male"}}