{"info": {"finish": 1535345990965, "participant": 62, "exposed": true, "lab": false, "start": 1535345433372, "counterbalance": 4, "gentype": 1, "condition": "Bottom", "browser": {"platform": "Win32", "userAgent": "Mozilla/5.0 (Windows NT 10.0; Win64; x64) AppleWebKit/537.36 (KHTML, like Gecko) Chrome/68.0.3440.106 Safari/537.36"}}, "observation": {"11": {"stimulus": 14, "trial": 11, "rt": 5252}, "10": {"stimulus": 30, "trial": 10, "rt": 3253}, "1": {"stimulus": 12, "trial": 1, "rt": 8749}, "0": {"stimulus": 32, "trial": 0, "rt": 12417}, "3": {"stimulus": 14, "trial": 3, "rt": 2503}, "2": {"stimulus": 30, "trial": 2, "rt": 3755}, "5": {"stimulus": 32, "trial": 5, "rt": 3190}, "4": {"stimulus": 30, "trial": 4, "rt": 2395}, "7": {"stimulus": 14, "trial": 7, "rt": 7597}, "6": {"stimulus": 12, "trial": 6, "rt": 2576}, "9": {"stimulus": 12, "trial": 9, "rt": 4435}, "8": {"stimulus": 32, "trial": 8, "rt": 2428}}, "generation": {"1": {"category": "Beta", "trial": 1, "stimulus": 80, "rt": 15245}, "0": {"category": "Beta", "trial": 0, "stimulus": 9, "rt": 37843}, "3": {"category": "Beta", "trial": 3, "stimulus": 70, "rt": 14043}, "2": {"category": "Beta", "trial": 2, "stimulus": 62, "rt": 11845}, "5": {"category": "Beta", "trial": 5, "stimulus": 72, "rt": 16032}, "4": {"category": "Beta", "trial": 4, "stimulus": 8, "rt": 8818}, "7": {"category": "Beta", "trial": 7, "stimulus": 71, "rt": 9933}, "6": {"category": "Beta", "trial": 6, "stimulus": 17, "rt": 16219}}, "generalization": {"56": {"stimulus": 22, "trial": 56, "rt": 1019, "response": "Alpha"}, "77": {"stimulus": 67, "trial": 77, "rt": 1188, "response": "Alpha"}, "54": {"stimulus": 25, "trial": 54, "rt": 1151, "response": "Beta"}, "42": {"stimulus": 66, "trial": 42, "rt": 1181, "response": "Alpha"}, "48": {"stimulus": 18, "trial": 48, "rt": 1010, "response": "Beta"}, "43": {"stimulus": 70, "trial": 43, "rt": 1056, "response": "Beta"}, "60": {"stimulus": 50, "trial": 60, "rt": 1502, "response": "Alpha"}, "61": {"stimulus": 17, "trial": 61, "rt": 1109, "response": "Beta"}, "62": {"stimulus": 42, "trial": 62, "rt": 1240, "response": "Beta"}, "63": {"stimulus": 57, "trial": 63, "rt": 1274, "response": "Alpha"}, "64": {"stimulus": 15, "trial": 64, "rt": 1958, "response": "Alpha"}, "49": {"stimulus": 3, "trial": 49, "rt": 1313, "response": "Alpha"}, "66": {"stimulus": 19, "trial": 66, "rt": 951, "response": "Beta"}, "67": {"stimulus": 4, "trial": 67, "rt": 1211, "response": "Alpha"}, "68": {"stimulus": 78, "trial": 68, "rt": 1740, "response": "Beta"}, "69": {"stimulus": 65, "trial": 69, "rt": 1275, "response": "Beta"}, "80": {"stimulus": 10, "trial": 80, "rt": 1252, "response": "Beta"}, "52": {"stimulus": 48, "trial": 52, "rt": 1528, "response": "Alpha"}, "53": {"stimulus": 79, "trial": 53, "rt": 2152, "response": "Beta"}, "24": {"stimulus": 80, "trial": 24, "rt": 941, "response": "Beta"}, "25": {"stimulus": 0, "trial": 25, "rt": 919, "response": "Beta"}, "26": {"stimulus": 68, "trial": 26, "rt": 2601, "response": "Alpha"}, "27": {"stimulus": 28, "trial": 27, "rt": 725, "response": "Beta"}, "20": {"stimulus": 27, "trial": 20, "rt": 632, "response": "Beta"}, "21": {"stimulus": 77, "trial": 21, "rt": 2548, "response": "Alpha"}, "22": {"stimulus": 7, "trial": 22, "rt": 2952, "response": "Alpha"}, "23": {"stimulus": 56, "trial": 23, "rt": 964, "response": "Beta"}, "46": {"stimulus": 76, "trial": 46, "rt": 1636, "response": "Alpha"}, "47": {"stimulus": 53, "trial": 47, "rt": 999, "response": "Beta"}, "44": {"stimulus": 9, "trial": 44, "rt": 1023, "response": "Beta"}, "45": {"stimulus": 41, "trial": 45, "rt": 1045, "response": "Alpha"}, "28": {"stimulus": 75, "trial": 28, "rt": 1568, "response": "Alpha"}, "29": {"stimulus": 13, "trial": 29, "rt": 1401, "response": "Alpha"}, "40": {"stimulus": 49, "trial": 40, "rt": 1824, "response": "Alpha"}, "41": {"stimulus": 52, "trial": 41, "rt": 1265, "response": "Beta"}, "1": {"stimulus": 23, "trial": 1, "rt": 1258, "response": "Alpha"}, "0": {"stimulus": 30, "trial": 0, "rt": 2968, "response": "Alpha"}, "3": {"stimulus": 74, "trial": 3, "rt": 1231, "response": "Beta"}, "2": {"stimulus": 43, "trial": 2, "rt": 3159, "response": "Alpha"}, "5": {"stimulus": 34, "trial": 5, "rt": 3527, "response": "Alpha"}, "4": {"stimulus": 54, "trial": 4, "rt": 946, "response": "Beta"}, "7": {"stimulus": 40, "trial": 7, "rt": 1435, "response": "Alpha"}, "6": {"stimulus": 12, "trial": 6, "rt": 1915, "response": "Alpha"}, "9": {"stimulus": 5, "trial": 9, "rt": 2911, "response": "Alpha"}, "8": {"stimulus": 36, "trial": 8, "rt": 729, "response": "Beta"}, "78": {"stimulus": 39, "trial": 78, "rt": 2289, "response": "Alpha"}, "51": {"stimulus": 71, "trial": 51, "rt": 970, "response": "Beta"}, "39": {"stimulus": 46, "trial": 39, "rt": 826, "response": "Beta"}, "65": {"stimulus": 58, "trial": 65, "rt": 2706, "response": "Alpha"}, "76": {"stimulus": 1, "trial": 76, "rt": 1218, "response": "Beta"}, "75": {"stimulus": 44, "trial": 75, "rt": 1148, "response": "Beta"}, "38": {"stimulus": 51, "trial": 38, "rt": 1483, "response": "Alpha"}, "73": {"stimulus": 20, "trial": 73, "rt": 1169, "response": "Alpha"}, "72": {"stimulus": 63, "trial": 72, "rt": 1009, "response": "Beta"}, "71": {"stimulus": 72, "trial": 71, "rt": 870, "response": "Beta"}, "70": {"stimulus": 6, "trial": 70, "rt": 1123, "response": "Alpha"}, "59": {"stimulus": 26, "trial": 59, "rt": 982, "response": "Beta"}, "79": {"stimulus": 45, "trial": 79, "rt": 1266, "response": "Beta"}, "58": {"stimulus": 24, "trial": 58, "rt": 1331, "response": "Alpha"}, "11": {"stimulus": 37, "trial": 11, "rt": 1005, "response": "Beta"}, "10": {"stimulus": 38, "trial": 10, "rt": 1094, "response": "Beta"}, "13": {"stimulus": 61, "trial": 13, "rt": 864, "response": "Beta"}, "12": {"stimulus": 35, "trial": 12, "rt": 1059, "response": "Beta"}, "15": {"stimulus": 29, "trial": 15, "rt": 1998, "response": "Alpha"}, "14": {"stimulus": 64, "trial": 14, "rt": 855, "response": "Beta"}, "17": {"stimulus": 31, "trial": 17, "rt": 1179, "response": "Alpha"}, "16": {"stimulus": 73, "trial": 16, "rt": 1538, "response": "Beta"}, "19": {"stimulus": 47, "trial": 19, "rt": 3886, "response": "Beta"}, "18": {"stimulus": 11, "trial": 18, "rt": 1864, "response": "Alpha"}, "31": {"stimulus": 32, "trial": 31, "rt": 1336, "response": "Alpha"}, "30": {"stimulus": 60, "trial": 30, "rt": 1426, "response": "Alpha"}, "37": {"stimulus": 8, "trial": 37, "rt": 1179, "response": "Beta"}, "36": {"stimulus": 55, "trial": 36, "rt": 867, "response": "Beta"}, "35": {"stimulus": 14, "trial": 35, "rt": 1752, "response": "Alpha"}, "34": {"stimulus": 59, "trial": 34, "rt": 1426, "response": "Beta"}, "33": {"stimulus": 21, "trial": 33, "rt": 1261, "response": "Alpha"}, "55": {"stimulus": 2, "trial": 55, "rt": 842, "response": "Beta"}, "74": {"stimulus": 33, "trial": 74, "rt": 1644, "response": "Alpha"}, "32": {"stimulus": 16, "trial": 32, "rt": 1792, "response": "Alpha"}, "57": {"stimulus": 62, "trial": 57, "rt": 953, "response": "Beta"}, "50": {"stimulus": 69, "trial": 50, "rt": 3199, "response": "Alpha"}}, "experiment": {"Paradigm": "TACL", "Stimuli": "Size-Color Squares", "Experiment": "Generating-Multiple-Categories"}, "submit": {"timeTotal": 557775, "age": "37", "comments": "Not sure what the experiment was about about, nevertheless, it was interesting.", "sex": "FEMALE"}}