{"info": {"finish": 1535346012430, "participant": 64, "exposed": true, "lab": false, "start": 1535345685143, "counterbalance": 5, "gentype": 1, "condition": "Bottom", "browser": {"platform": "MacIntel", "userAgent": "Mozilla/5.0 (Macintosh; Intel Mac OS X 10_13_6) AppleWebKit/537.36 (KHTML, like Gecko) Chrome/66.0.3359.181 Safari/537.36"}}, "observation": {"11": {"stimulus": 12, "trial": 11, "rt": 1825}, "10": {"stimulus": 14, "trial": 10, "rt": 1882}, "1": {"stimulus": 12, "trial": 1, "rt": 2293}, "0": {"stimulus": 14, "trial": 0, "rt": 5087}, "3": {"stimulus": 32, "trial": 3, "rt": 1774}, "2": {"stimulus": 30, "trial": 2, "rt": 2364}, "5": {"stimulus": 32, "trial": 5, "rt": 2390}, "4": {"stimulus": 30, "trial": 4, "rt": 2013}, "7": {"stimulus": 12, "trial": 7, "rt": 1863}, "6": {"stimulus": 14, "trial": 6, "rt": 1914}, "9": {"stimulus": 32, "trial": 9, "rt": 2030}, "8": {"stimulus": 30, "trial": 8, "rt": 2326}}, "generation": {"1": {"category": "Beta", "trial": 1, "stimulus": 80, "rt": 4233}, "0": {"category": "Beta", "trial": 0, "stimulus": 8, "rt": 10049}, "3": {"category": "Beta", "trial": 3, "stimulus": 16, "rt": 5843}, "2": {"category": "Beta", "trial": 2, "stimulus": 62, "rt": 3688}, "5": {"category": "Beta", "trial": 5, "stimulus": 61, "rt": 6489}, "4": {"category": "Beta", "trial": 4, "stimulus": 7, "rt": 9834}, "7": {"category": "Beta", "trial": 7, "stimulus": 53, "rt": 13692}, "6": {"category": "Beta", "trial": 6, "stimulus": 35, "rt": 8936}}, "generalization": {"56": {"stimulus": 58, "trial": 56, "rt": 579, "response": "Alpha"}, "77": {"stimulus": 27, "trial": 77, "rt": 866, "response": "Alpha"}, "54": {"stimulus": 57, "trial": 54, "rt": 688, "response": "Alpha"}, "42": {"stimulus": 28, "trial": 42, "rt": 1595, "response": "Alpha"}, "48": {"stimulus": 53, "trial": 48, "rt": 961, "response": "Beta"}, "43": {"stimulus": 79, "trial": 43, "rt": 886, "response": "Beta"}, "60": {"stimulus": 71, "trial": 60, "rt": 1266, "response": "Beta"}, "61": {"stimulus": 35, "trial": 61, "rt": 567, "response": "Beta"}, "62": {"stimulus": 69, "trial": 62, "rt": 1321, "response": "Alpha"}, "63": {"stimulus": 62, "trial": 63, "rt": 1096, "response": "Beta"}, "64": {"stimulus": 3, "trial": 64, "rt": 984, "response": "Alpha"}, "49": {"stimulus": 77, "trial": 49, "rt": 1192, "response": "Alpha"}, "66": {"stimulus": 48, "trial": 66, "rt": 514, "response": "Alpha"}, "67": {"stimulus": 18, "trial": 67, "rt": 512, "response": "Alpha"}, "68": {"stimulus": 1, "trial": 68, "rt": 557, "response": "Alpha"}, "69": {"stimulus": 51, "trial": 69, "rt": 994, "response": "Alpha"}, "80": {"stimulus": 73, "trial": 80, "rt": 535, "response": "Alpha"}, "52": {"stimulus": 14, "trial": 52, "rt": 788, "response": "Alpha"}, "53": {"stimulus": 0, "trial": 53, "rt": 564, "response": "Alpha"}, "24": {"stimulus": 11, "trial": 24, "rt": 835, "response": "Alpha"}, "25": {"stimulus": 63, "trial": 25, "rt": 568, "response": "Alpha"}, "26": {"stimulus": 10, "trial": 26, "rt": 479, "response": "Alpha"}, "27": {"stimulus": 21, "trial": 27, "rt": 494, "response": "Alpha"}, "20": {"stimulus": 16, "trial": 20, "rt": 882, "response": "Beta"}, "21": {"stimulus": 41, "trial": 21, "rt": 1318, "response": "Alpha"}, "22": {"stimulus": 46, "trial": 22, "rt": 2642, "response": "Alpha"}, "23": {"stimulus": 8, "trial": 23, "rt": 871, "response": "Beta"}, "46": {"stimulus": 74, "trial": 46, "rt": 583, "response": "Alpha"}, "47": {"stimulus": 40, "trial": 47, "rt": 553, "response": "Alpha"}, "44": {"stimulus": 39, "trial": 44, "rt": 1087, "response": "Alpha"}, "45": {"stimulus": 32, "trial": 45, "rt": 958, "response": "Alpha"}, "28": {"stimulus": 5, "trial": 28, "rt": 739, "response": "Alpha"}, "29": {"stimulus": 47, "trial": 29, "rt": 516, "response": "Alpha"}, "40": {"stimulus": 52, "trial": 40, "rt": 1375, "response": "Beta"}, "41": {"stimulus": 43, "trial": 41, "rt": 1074, "response": "Beta"}, "1": {"stimulus": 56, "trial": 1, "rt": 757, "response": "Alpha"}, "0": {"stimulus": 76, "trial": 0, "rt": 3212, "response": "Alpha"}, "3": {"stimulus": 6, "trial": 3, "rt": 2292, "response": "Beta"}, "2": {"stimulus": 42, "trial": 2, "rt": 8691, "response": "Beta"}, "5": {"stimulus": 31, "trial": 5, "rt": 862, "response": "Alpha"}, "4": {"stimulus": 55, "trial": 4, "rt": 776, "response": "Alpha"}, "7": {"stimulus": 70, "trial": 7, "rt": 1375, "response": "Beta"}, "6": {"stimulus": 65, "trial": 6, "rt": 579, "response": "Alpha"}, "9": {"stimulus": 78, "trial": 9, "rt": 904, "response": "Beta"}, "8": {"stimulus": 22, "trial": 8, "rt": 990, "response": "Alpha"}, "78": {"stimulus": 4, "trial": 78, "rt": 547, "response": "Alpha"}, "51": {"stimulus": 36, "trial": 51, "rt": 541, "response": "Alpha"}, "39": {"stimulus": 49, "trial": 39, "rt": 891, "response": "Alpha"}, "65": {"stimulus": 54, "trial": 65, "rt": 482, "response": "Alpha"}, "76": {"stimulus": 25, "trial": 76, "rt": 977, "response": "Beta"}, "75": {"stimulus": 37, "trial": 75, "rt": 1030, "response": "Alpha"}, "38": {"stimulus": 61, "trial": 38, "rt": 953, "response": "Beta"}, "73": {"stimulus": 7, "trial": 73, "rt": 1429, "response": "Beta"}, "72": {"stimulus": 67, "trial": 72, "rt": 534, "response": "Alpha"}, "71": {"stimulus": 50, "trial": 71, "rt": 648, "response": "Alpha"}, "70": {"stimulus": 30, "trial": 70, "rt": 615, "response": "Alpha"}, "59": {"stimulus": 29, "trial": 59, "rt": 1078, "response": "Alpha"}, "79": {"stimulus": 12, "trial": 79, "rt": 485, "response": "Alpha"}, "58": {"stimulus": 44, "trial": 58, "rt": 896, "response": "Beta"}, "11": {"stimulus": 59, "trial": 11, "rt": 890, "response": "Alpha"}, "10": {"stimulus": 20, "trial": 10, "rt": 994, "response": "Alpha"}, "13": {"stimulus": 38, "trial": 13, "rt": 881, "response": "Alpha"}, "12": {"stimulus": 34, "trial": 12, "rt": 830, "response": "Beta"}, "15": {"stimulus": 26, "trial": 15, "rt": 806, "response": "Beta"}, "14": {"stimulus": 23, "trial": 14, "rt": 775, "response": "Alpha"}, "17": {"stimulus": 75, "trial": 17, "rt": 800, "response": "Alpha"}, "16": {"stimulus": 60, "trial": 16, "rt": 654, "response": "Beta"}, "19": {"stimulus": 66, "trial": 19, "rt": 558, "response": "Alpha"}, "18": {"stimulus": 68, "trial": 18, "rt": 842, "response": "Alpha"}, "31": {"stimulus": 13, "trial": 31, "rt": 607, "response": "Alpha"}, "30": {"stimulus": 33, "trial": 30, "rt": 1419, "response": "Alpha"}, "37": {"stimulus": 19, "trial": 37, "rt": 967, "response": "Alpha"}, "36": {"stimulus": 15, "trial": 36, "rt": 1405, "response": "Beta"}, "35": {"stimulus": 24, "trial": 35, "rt": 836, "response": "Alpha"}, "34": {"stimulus": 45, "trial": 34, "rt": 975, "response": "Alpha"}, "33": {"stimulus": 17, "trial": 33, "rt": 1206, "response": "Beta"}, "55": {"stimulus": 2, "trial": 55, "rt": 501, "response": "Alpha"}, "74": {"stimulus": 80, "trial": 74, "rt": 704, "response": "Beta"}, "32": {"stimulus": 9, "trial": 32, "rt": 501, "response": "Alpha"}, "57": {"stimulus": 72, "trial": 57, "rt": 551, "response": "Alpha"}, "50": {"stimulus": 64, "trial": 50, "rt": 584, "response": "Alpha"}}, "experiment": {"Paradigm": "TACL", "Stimuli": "Size-Color Squares", "Experiment": "Generating-Multiple-Categories"}, "submit": {"timeTotal": 327527, "age": "31", "comments": "interesting and kind of fun!", "sex": "female"}}