{"info": {"finish": 1535348050052, "participant": 65, "exposed": true, "lab": false, "start": 1535347649413, "counterbalance": 5, "gentype": 0, "condition": "Middle", "browser": {"platform": "Win32", "userAgent": "Mozilla/5.0 (Windows NT 10.0; Win64; x64) AppleWebKit/537.36 (KHTML, like Gecko) Chrome/68.0.3440.106 Safari/537.36"}}, "observation": {"11": {"stimulus": 48, "trial": 11, "rt": 1424}, "10": {"stimulus": 32, "trial": 10, "rt": 1407}, "1": {"stimulus": 48, "trial": 1, "rt": 2047}, "0": {"stimulus": 32, "trial": 0, "rt": 2066}, "3": {"stimulus": 30, "trial": 3, "rt": 1495}, "2": {"stimulus": 50, "trial": 2, "rt": 1533}, "5": {"stimulus": 48, "trial": 5, "rt": 1512}, "4": {"stimulus": 50, "trial": 4, "rt": 2119}, "7": {"stimulus": 32, "trial": 7, "rt": 1567}, "6": {"stimulus": 30, "trial": 6, "rt": 1592}, "9": {"stimulus": 30, "trial": 9, "rt": 1199}, "8": {"stimulus": 50, "trial": 8, "rt": 1455}}, "generation": {"1": {"category": "Not-Alpha", "trial": 1, "stimulus": 0, "rt": 6842}, "0": {"category": "Not-Alpha", "trial": 0, "stimulus": 8, "rt": 16650}, "3": {"category": "Not-Alpha", "trial": 3, "stimulus": 36, "rt": 6989}, "2": {"category": "Not-Alpha", "trial": 2, "stimulus": 6, "rt": 7247}, "5": {"category": "Not-Alpha", "trial": 5, "stimulus": 73, "rt": 7272}, "4": {"category": "Not-Alpha", "trial": 4, "stimulus": 80, "rt": 8198}, "7": {"category": "Not-Alpha", "trial": 7, "stimulus": 1, "rt": 52556}, "6": {"category": "Not-Alpha", "trial": 6, "stimulus": 4, "rt": 5681}}, "generalization": {"56": {"stimulus": 3, "trial": 56, "rt": 422, "response": "Beta"}, "77": {"stimulus": 63, "trial": 77, "rt": 539, "response": "Beta"}, "54": {"stimulus": 41, "trial": 54, "rt": 944, "response": "Alpha"}, "42": {"stimulus": 78, "trial": 42, "rt": 477, "response": "Beta"}, "48": {"stimulus": 49, "trial": 48, "rt": 913, "response": "Alpha"}, "43": {"stimulus": 45, "trial": 43, "rt": 594, "response": "Beta"}, "60": {"stimulus": 20, "trial": 60, "rt": 474, "response": "Beta"}, "61": {"stimulus": 73, "trial": 61, "rt": 1155, "response": "Beta"}, "62": {"stimulus": 52, "trial": 62, "rt": 387, "response": "Beta"}, "63": {"stimulus": 50, "trial": 63, "rt": 740, "response": "Alpha"}, "64": {"stimulus": 35, "trial": 64, "rt": 621, "response": "Beta"}, "49": {"stimulus": 19, "trial": 49, "rt": 672, "response": "Beta"}, "66": {"stimulus": 29, "trial": 66, "rt": 844, "response": "Beta"}, "67": {"stimulus": 77, "trial": 67, "rt": 1223, "response": "Alpha"}, "68": {"stimulus": 17, "trial": 68, "rt": 482, "response": "Beta"}, "69": {"stimulus": 59, "trial": 69, "rt": 718, "response": "Alpha"}, "80": {"stimulus": 0, "trial": 80, "rt": 792, "response": "Beta"}, "52": {"stimulus": 66, "trial": 52, "rt": 748, "response": "Alpha"}, "53": {"stimulus": 23, "trial": 53, "rt": 402, "response": "Beta"}, "24": {"stimulus": 47, "trial": 24, "rt": 1201, "response": "Alpha"}, "25": {"stimulus": 70, "trial": 25, "rt": 1054, "response": "Beta"}, "26": {"stimulus": 39, "trial": 26, "rt": 737, "response": "Alpha"}, "27": {"stimulus": 57, "trial": 27, "rt": 660, "response": "Alpha"}, "20": {"stimulus": 69, "trial": 20, "rt": 1275, "response": "Beta"}, "21": {"stimulus": 32, "trial": 21, "rt": 1078, "response": "Alpha"}, "22": {"stimulus": 56, "trial": 22, "rt": 1209, "response": "Alpha"}, "23": {"stimulus": 30, "trial": 23, "rt": 1066, "response": "Beta"}, "46": {"stimulus": 15, "trial": 46, "rt": 444, "response": "Beta"}, "47": {"stimulus": 14, "trial": 47, "rt": 389, "response": "Beta"}, "44": {"stimulus": 9, "trial": 44, "rt": 420, "response": "Beta"}, "45": {"stimulus": 22, "trial": 45, "rt": 477, "response": "Beta"}, "28": {"stimulus": 33, "trial": 28, "rt": 1130, "response": "Beta"}, "29": {"stimulus": 6, "trial": 29, "rt": 619, "response": "Beta"}, "40": {"stimulus": 4, "trial": 40, "rt": 453, "response": "Beta"}, "41": {"stimulus": 24, "trial": 41, "rt": 596, "response": "Beta"}, "1": {"stimulus": 27, "trial": 1, "rt": 890, "response": "Beta"}, "0": {"stimulus": 21, "trial": 0, "rt": 4562, "response": "Alpha"}, "3": {"stimulus": 72, "trial": 3, "rt": 762, "response": "Beta"}, "2": {"stimulus": 34, "trial": 2, "rt": 627, "response": "Beta"}, "5": {"stimulus": 67, "trial": 5, "rt": 662, "response": "Alpha"}, "4": {"stimulus": 65, "trial": 4, "rt": 585, "response": "Alpha"}, "7": {"stimulus": 76, "trial": 7, "rt": 968, "response": "Alpha"}, "6": {"stimulus": 25, "trial": 6, "rt": 890, "response": "Beta"}, "9": {"stimulus": 62, "trial": 9, "rt": 640, "response": "Beta"}, "8": {"stimulus": 42, "trial": 8, "rt": 881, "response": "Beta"}, "78": {"stimulus": 53, "trial": 78, "rt": 520, "response": "Beta"}, "51": {"stimulus": 16, "trial": 51, "rt": 420, "response": "Beta"}, "39": {"stimulus": 18, "trial": 39, "rt": 683, "response": "Beta"}, "65": {"stimulus": 60, "trial": 65, "rt": 367, "response": "Beta"}, "76": {"stimulus": 5, "trial": 76, "rt": 695, "response": "Beta"}, "75": {"stimulus": 7, "trial": 75, "rt": 474, "response": "Beta"}, "38": {"stimulus": 46, "trial": 38, "rt": 672, "response": "Alpha"}, "73": {"stimulus": 13, "trial": 73, "rt": 762, "response": "Beta"}, "72": {"stimulus": 74, "trial": 72, "rt": 912, "response": "Alpha"}, "71": {"stimulus": 80, "trial": 71, "rt": 595, "response": "Beta"}, "70": {"stimulus": 75, "trial": 70, "rt": 530, "response": "Alpha"}, "59": {"stimulus": 48, "trial": 59, "rt": 674, "response": "Alpha"}, "79": {"stimulus": 8, "trial": 79, "rt": 387, "response": "Beta"}, "58": {"stimulus": 31, "trial": 58, "rt": 367, "response": "Beta"}, "11": {"stimulus": 71, "trial": 11, "rt": 476, "response": "Beta"}, "10": {"stimulus": 43, "trial": 10, "rt": 530, "response": "Beta"}, "13": {"stimulus": 37, "trial": 13, "rt": 816, "response": "Beta"}, "12": {"stimulus": 40, "trial": 12, "rt": 562, "response": "Alpha"}, "15": {"stimulus": 26, "trial": 15, "rt": 464, "response": "Beta"}, "14": {"stimulus": 58, "trial": 14, "rt": 674, "response": "Alpha"}, "17": {"stimulus": 38, "trial": 17, "rt": 1603, "response": "Alpha"}, "16": {"stimulus": 28, "trial": 16, "rt": 1199, "response": "Alpha"}, "19": {"stimulus": 44, "trial": 19, "rt": 747, "response": "Beta"}, "18": {"stimulus": 2, "trial": 18, "rt": 1672, "response": "Beta"}, "31": {"stimulus": 61, "trial": 31, "rt": 1042, "response": "Beta"}, "30": {"stimulus": 55, "trial": 30, "rt": 530, "response": "Alpha"}, "37": {"stimulus": 1, "trial": 37, "rt": 448, "response": "Beta"}, "36": {"stimulus": 11, "trial": 36, "rt": 715, "response": "Beta"}, "35": {"stimulus": 79, "trial": 35, "rt": 574, "response": "Beta"}, "34": {"stimulus": 12, "trial": 34, "rt": 1012, "response": "Beta"}, "33": {"stimulus": 54, "trial": 33, "rt": 2063, "response": "Beta"}, "55": {"stimulus": 10, "trial": 55, "rt": 464, "response": "Beta"}, "74": {"stimulus": 51, "trial": 74, "rt": 509, "response": "Beta"}, "32": {"stimulus": 68, "trial": 32, "rt": 695, "response": "Alpha"}, "57": {"stimulus": 36, "trial": 57, "rt": 453, "response": "Beta"}, "50": {"stimulus": 64, "trial": 50, "rt": 816, "response": "Beta"}}, "experiment": {"Paradigm": "TACL", "Stimuli": "Size-Color Squares", "Experiment": "Generating-Multiple-Categories"}, "submit": {"timeTotal": 400913, "age": "30", "comments": "", "sex": "female"}}