{"info": {"finish": 1535353217992, "participant": 71, "exposed": true, "lab": false, "start": 1535352746806, "counterbalance": 0, "gentype": 0, "condition": "Middle", "browser": {"platform": "Linux x86_64", "userAgent": "Mozilla/5.0 (X11; CrOS x86_64 10575.58.0) AppleWebKit/537.36 (KHTML, like Gecko) Chrome/67.0.3396.99 Safari/537.36"}}, "observation": {"11": {"stimulus": 48, "trial": 11, "rt": 2347}, "10": {"stimulus": 32, "trial": 10, "rt": 2092}, "1": {"stimulus": 30, "trial": 1, "rt": 3377}, "0": {"stimulus": 32, "trial": 0, "rt": 9291}, "3": {"stimulus": 50, "trial": 3, "rt": 1845}, "2": {"stimulus": 48, "trial": 2, "rt": 1982}, "5": {"stimulus": 48, "trial": 5, "rt": 1762}, "4": {"stimulus": 32, "trial": 4, "rt": 1813}, "7": {"stimulus": 30, "trial": 7, "rt": 2214}, "6": {"stimulus": 50, "trial": 6, "rt": 2452}, "9": {"stimulus": 30, "trial": 9, "rt": 1836}, "8": {"stimulus": 50, "trial": 8, "rt": 2320}}, "generation": {"1": {"category": "Not-Alpha", "trial": 1, "stimulus": 0, "rt": 11828}, "0": {"category": "Not-Alpha", "trial": 0, "stimulus": 8, "rt": 30301}, "3": {"category": "Not-Alpha", "trial": 3, "stimulus": 72, "rt": 8437}, "2": {"category": "Not-Alpha", "trial": 2, "stimulus": 80, "rt": 15033}, "5": {"category": "Not-Alpha", "trial": 5, "stimulus": 71, "rt": 11018}, "4": {"category": "Not-Alpha", "trial": 4, "stimulus": 17, "rt": 41084}, "7": {"category": "Not-Alpha", "trial": 7, "stimulus": 79, "rt": 10878}, "6": {"category": "Not-Alpha", "trial": 6, "stimulus": 1, "rt": 14390}}, "generalization": {"56": {"stimulus": 50, "trial": 56, "rt": 988, "response": "Alpha"}, "77": {"stimulus": 62, "trial": 77, "rt": 1535, "response": "Beta"}, "54": {"stimulus": 13, "trial": 54, "rt": 936, "response": "Beta"}, "42": {"stimulus": 23, "trial": 42, "rt": 1947, "response": "Alpha"}, "48": {"stimulus": 75, "trial": 48, "rt": 1718, "response": "Beta"}, "43": {"stimulus": 22, "trial": 43, "rt": 2633, "response": "Alpha"}, "60": {"stimulus": 73, "trial": 60, "rt": 1925, "response": "Alpha"}, "61": {"stimulus": 31, "trial": 61, "rt": 1539, "response": "Alpha"}, "62": {"stimulus": 35, "trial": 62, "rt": 1485, "response": "Beta"}, "63": {"stimulus": 47, "trial": 63, "rt": 1037, "response": "Alpha"}, "64": {"stimulus": 58, "trial": 64, "rt": 1217, "response": "Alpha"}, "49": {"stimulus": 61, "trial": 49, "rt": 1734, "response": "Alpha"}, "66": {"stimulus": 7, "trial": 66, "rt": 1048, "response": "Beta"}, "67": {"stimulus": 60, "trial": 67, "rt": 1517, "response": "Beta"}, "68": {"stimulus": 29, "trial": 68, "rt": 875, "response": "Alpha"}, "69": {"stimulus": 26, "trial": 69, "rt": 1159, "response": "Beta"}, "80": {"stimulus": 34, "trial": 80, "rt": 938, "response": "Alpha"}, "52": {"stimulus": 28, "trial": 52, "rt": 935, "response": "Alpha"}, "53": {"stimulus": 39, "trial": 53, "rt": 1336, "response": "Alpha"}, "24": {"stimulus": 37, "trial": 24, "rt": 1548, "response": "Alpha"}, "25": {"stimulus": 38, "trial": 25, "rt": 1895, "response": "Alpha"}, "26": {"stimulus": 12, "trial": 26, "rt": 1396, "response": "Beta"}, "27": {"stimulus": 8, "trial": 27, "rt": 1047, "response": "Beta"}, "20": {"stimulus": 17, "trial": 20, "rt": 1967, "response": "Beta"}, "21": {"stimulus": 0, "trial": 21, "rt": 1274, "response": "Beta"}, "22": {"stimulus": 72, "trial": 22, "rt": 2846, "response": "Beta"}, "23": {"stimulus": 54, "trial": 23, "rt": 1347, "response": "Alpha"}, "46": {"stimulus": 21, "trial": 46, "rt": 1448, "response": "Alpha"}, "47": {"stimulus": 16, "trial": 47, "rt": 1164, "response": "Beta"}, "44": {"stimulus": 64, "trial": 44, "rt": 1305, "response": "Beta"}, "45": {"stimulus": 27, "trial": 45, "rt": 1857, "response": "Alpha"}, "28": {"stimulus": 19, "trial": 28, "rt": 1788, "response": "Beta"}, "29": {"stimulus": 2, "trial": 29, "rt": 1564, "response": "Beta"}, "40": {"stimulus": 20, "trial": 40, "rt": 1665, "response": "Alpha"}, "41": {"stimulus": 52, "trial": 41, "rt": 1516, "response": "Beta"}, "1": {"stimulus": 6, "trial": 1, "rt": 1435, "response": "Beta"}, "0": {"stimulus": 79, "trial": 0, "rt": 1760, "response": "Beta"}, "3": {"stimulus": 80, "trial": 3, "rt": 858, "response": "Beta"}, "2": {"stimulus": 44, "trial": 2, "rt": 1257, "response": "Beta"}, "5": {"stimulus": 36, "trial": 5, "rt": 616, "response": "Alpha"}, "4": {"stimulus": 48, "trial": 4, "rt": 1776, "response": "Alpha"}, "7": {"stimulus": 11, "trial": 7, "rt": 1337, "response": "Beta"}, "6": {"stimulus": 66, "trial": 6, "rt": 1853, "response": "Alpha"}, "9": {"stimulus": 65, "trial": 9, "rt": 1868, "response": "Alpha"}, "8": {"stimulus": 76, "trial": 8, "rt": 2097, "response": "Alpha"}, "78": {"stimulus": 53, "trial": 78, "rt": 1644, "response": "Beta"}, "51": {"stimulus": 14, "trial": 51, "rt": 1699, "response": "Beta"}, "39": {"stimulus": 49, "trial": 39, "rt": 1175, "response": "Alpha"}, "65": {"stimulus": 56, "trial": 65, "rt": 1047, "response": "Alpha"}, "76": {"stimulus": 41, "trial": 76, "rt": 909, "response": "Alpha"}, "75": {"stimulus": 10, "trial": 75, "rt": 936, "response": "Beta"}, "38": {"stimulus": 9, "trial": 38, "rt": 1748, "response": "Beta"}, "73": {"stimulus": 24, "trial": 73, "rt": 1077, "response": "Alpha"}, "72": {"stimulus": 69, "trial": 72, "rt": 1154, "response": "Beta"}, "71": {"stimulus": 32, "trial": 71, "rt": 1038, "response": "Alpha"}, "70": {"stimulus": 25, "trial": 70, "rt": 1146, "response": "Beta"}, "59": {"stimulus": 68, "trial": 59, "rt": 1686, "response": "Beta"}, "79": {"stimulus": 77, "trial": 79, "rt": 1388, "response": "Beta"}, "58": {"stimulus": 70, "trial": 58, "rt": 1087, "response": "Beta"}, "11": {"stimulus": 74, "trial": 11, "rt": 1245, "response": "Beta"}, "10": {"stimulus": 59, "trial": 10, "rt": 3141, "response": "Alpha"}, "13": {"stimulus": 15, "trial": 13, "rt": 1758, "response": "Beta"}, "12": {"stimulus": 63, "trial": 12, "rt": 1347, "response": "Beta"}, "15": {"stimulus": 33, "trial": 15, "rt": 2565, "response": "Beta"}, "14": {"stimulus": 40, "trial": 14, "rt": 2751, "response": "Alpha"}, "17": {"stimulus": 55, "trial": 17, "rt": 1351, "response": "Alpha"}, "16": {"stimulus": 1, "trial": 16, "rt": 1846, "response": "Beta"}, "19": {"stimulus": 57, "trial": 19, "rt": 1276, "response": "Alpha"}, "18": {"stimulus": 42, "trial": 18, "rt": 1748, "response": "Beta"}, "31": {"stimulus": 67, "trial": 31, "rt": 1185, "response": "Alpha"}, "30": {"stimulus": 18, "trial": 30, "rt": 1576, "response": "Beta"}, "37": {"stimulus": 51, "trial": 37, "rt": 1247, "response": "Beta"}, "36": {"stimulus": 46, "trial": 36, "rt": 1087, "response": "Alpha"}, "35": {"stimulus": 78, "trial": 35, "rt": 2614, "response": "Beta"}, "34": {"stimulus": 4, "trial": 34, "rt": 504, "response": "Beta"}, "33": {"stimulus": 3, "trial": 33, "rt": 839, "response": "Beta"}, "55": {"stimulus": 43, "trial": 55, "rt": 1447, "response": "Beta"}, "74": {"stimulus": 45, "trial": 74, "rt": 1127, "response": "Alpha"}, "32": {"stimulus": 5, "trial": 32, "rt": 1208, "response": "Beta"}, "57": {"stimulus": 30, "trial": 57, "rt": 1275, "response": "Alpha"}, "50": {"stimulus": 71, "trial": 50, "rt": 1154, "response": "Beta"}}, "experiment": {"Paradigm": "TACL", "Stimuli": "Size-Color Squares", "Experiment": "Generating-Multiple-Categories"}, "submit": {"timeTotal": 471429, "age": "69", "comments": "It is interesting, but I had no idea why.", "sex": "Male"}}