{"info": {"finish": 1535353118383, "participant": 72, "exposed": true, "lab": false, "start": 1535352789699, "counterbalance": 6, "gentype": 1, "condition": "Middle", "browser": {"platform": "Win32", "userAgent": "Mozilla/5.0 (Windows NT 10.0; Win64; x64) AppleWebKit/537.36 (KHTML, like Gecko) Chrome/68.0.3440.106 Safari/537.36"}}, "observation": {"11": {"stimulus": 32, "trial": 11, "rt": 1562}, "10": {"stimulus": 30, "trial": 10, "rt": 1661}, "1": {"stimulus": 48, "trial": 1, "rt": 1946}, "0": {"stimulus": 30, "trial": 0, "rt": 5673}, "3": {"stimulus": 50, "trial": 3, "rt": 1929}, "2": {"stimulus": 32, "trial": 2, "rt": 1453}, "5": {"stimulus": 48, "trial": 5, "rt": 1497}, "4": {"stimulus": 50, "trial": 4, "rt": 2057}, "7": {"stimulus": 30, "trial": 7, "rt": 2774}, "6": {"stimulus": 32, "trial": 6, "rt": 1651}, "9": {"stimulus": 48, "trial": 9, "rt": 22753}, "8": {"stimulus": 50, "trial": 8, "rt": 1377}}, "generation": {"1": {"category": "Beta", "trial": 1, "stimulus": 72, "rt": 9207}, "0": {"category": "Beta", "trial": 0, "stimulus": 80, "rt": 10564}, "3": {"category": "Beta", "trial": 3, "stimulus": 0, "rt": 5546}, "2": {"category": "Beta", "trial": 2, "stimulus": 77, "rt": 10856}, "5": {"category": "Beta", "trial": 5, "stimulus": 63, "rt": 6063}, "4": {"category": "Beta", "trial": 4, "stimulus": 17, "rt": 3693}, "7": {"category": "Beta", "trial": 7, "stimulus": 71, "rt": 6009}, "6": {"category": "Beta", "trial": 6, "stimulus": 10, "rt": 7923}}, "generalization": {"56": {"stimulus": 32, "trial": 56, "rt": 770, "response": "Beta"}, "77": {"stimulus": 62, "trial": 77, "rt": 912, "response": "Alpha"}, "54": {"stimulus": 20, "trial": 54, "rt": 2058, "response": "Beta"}, "42": {"stimulus": 14, "trial": 42, "rt": 932, "response": "Beta"}, "48": {"stimulus": 34, "trial": 48, "rt": 912, "response": "Beta"}, "43": {"stimulus": 73, "trial": 43, "rt": 1120, "response": "Beta"}, "60": {"stimulus": 38, "trial": 60, "rt": 1025, "response": "Alpha"}, "61": {"stimulus": 4, "trial": 61, "rt": 761, "response": "Beta"}, "62": {"stimulus": 69, "trial": 62, "rt": 1151, "response": "Beta"}, "63": {"stimulus": 25, "trial": 63, "rt": 858, "response": "Beta"}, "64": {"stimulus": 1, "trial": 64, "rt": 640, "response": "Beta"}, "49": {"stimulus": 44, "trial": 49, "rt": 1571, "response": "Alpha"}, "66": {"stimulus": 17, "trial": 66, "rt": 723, "response": "Beta"}, "67": {"stimulus": 53, "trial": 67, "rt": 1098, "response": "Alpha"}, "68": {"stimulus": 52, "trial": 68, "rt": 992, "response": "Alpha"}, "69": {"stimulus": 23, "trial": 69, "rt": 865, "response": "Beta"}, "80": {"stimulus": 11, "trial": 80, "rt": 782, "response": "Beta"}, "52": {"stimulus": 46, "trial": 52, "rt": 1962, "response": "Alpha"}, "53": {"stimulus": 35, "trial": 53, "rt": 1280, "response": "Beta"}, "24": {"stimulus": 29, "trial": 24, "rt": 1579, "response": "Beta"}, "25": {"stimulus": 74, "trial": 25, "rt": 1190, "response": "Beta"}, "26": {"stimulus": 16, "trial": 26, "rt": 1429, "response": "Beta"}, "27": {"stimulus": 80, "trial": 27, "rt": 3206, "response": "Beta"}, "20": {"stimulus": 42, "trial": 20, "rt": 1405, "response": "Alpha"}, "21": {"stimulus": 72, "trial": 21, "rt": 1367, "response": "Beta"}, "22": {"stimulus": 47, "trial": 22, "rt": 1705, "response": "Alpha"}, "23": {"stimulus": 43, "trial": 23, "rt": 865, "response": "Alpha"}, "46": {"stimulus": 2, "trial": 46, "rt": 775, "response": "Beta"}, "47": {"stimulus": 19, "trial": 47, "rt": 971, "response": "Beta"}, "44": {"stimulus": 50, "trial": 44, "rt": 2005, "response": "Alpha"}, "45": {"stimulus": 63, "trial": 45, "rt": 1045, "response": "Beta"}, "28": {"stimulus": 22, "trial": 28, "rt": 986, "response": "Beta"}, "29": {"stimulus": 0, "trial": 29, "rt": 753, "response": "Beta"}, "40": {"stimulus": 66, "trial": 40, "rt": 1008, "response": "Beta"}, "41": {"stimulus": 55, "trial": 41, "rt": 633, "response": "Beta"}, "1": {"stimulus": 60, "trial": 1, "rt": 1047, "response": "Alpha"}, "0": {"stimulus": 57, "trial": 0, "rt": 2014, "response": "Alpha"}, "3": {"stimulus": 78, "trial": 3, "rt": 1277, "response": "Alpha"}, "2": {"stimulus": 71, "trial": 2, "rt": 903, "response": "Alpha"}, "5": {"stimulus": 28, "trial": 5, "rt": 1045, "response": "Beta"}, "4": {"stimulus": 30, "trial": 4, "rt": 1084, "response": "Beta"}, "7": {"stimulus": 9, "trial": 7, "rt": 760, "response": "Beta"}, "6": {"stimulus": 10, "trial": 6, "rt": 770, "response": "Beta"}, "9": {"stimulus": 15, "trial": 9, "rt": 1256, "response": "Beta"}, "8": {"stimulus": 64, "trial": 8, "rt": 2883, "response": "Beta"}, "78": {"stimulus": 45, "trial": 78, "rt": 2118, "response": "Beta"}, "51": {"stimulus": 39, "trial": 51, "rt": 1213, "response": "Alpha"}, "39": {"stimulus": 61, "trial": 39, "rt": 1361, "response": "Alpha"}, "65": {"stimulus": 27, "trial": 65, "rt": 956, "response": "Beta"}, "76": {"stimulus": 77, "trial": 76, "rt": 672, "response": "Beta"}, "75": {"stimulus": 70, "trial": 75, "rt": 835, "response": "Beta"}, "38": {"stimulus": 58, "trial": 38, "rt": 1083, "response": "Alpha"}, "73": {"stimulus": 65, "trial": 73, "rt": 966, "response": "Beta"}, "72": {"stimulus": 5, "trial": 72, "rt": 999, "response": "Beta"}, "71": {"stimulus": 40, "trial": 71, "rt": 1032, "response": "Alpha"}, "70": {"stimulus": 68, "trial": 70, "rt": 1114, "response": "Beta"}, "59": {"stimulus": 75, "trial": 59, "rt": 1555, "response": "Beta"}, "79": {"stimulus": 76, "trial": 79, "rt": 1803, "response": "Beta"}, "58": {"stimulus": 31, "trial": 58, "rt": 823, "response": "Beta"}, "11": {"stimulus": 13, "trial": 11, "rt": 1093, "response": "Beta"}, "10": {"stimulus": 26, "trial": 10, "rt": 611, "response": "Alpha"}, "13": {"stimulus": 67, "trial": 13, "rt": 1156, "response": "Alpha"}, "12": {"stimulus": 56, "trial": 12, "rt": 1195, "response": "Alpha"}, "15": {"stimulus": 54, "trial": 15, "rt": 1616, "response": "Beta"}, "14": {"stimulus": 21, "trial": 14, "rt": 904, "response": "Beta"}, "17": {"stimulus": 48, "trial": 17, "rt": 648, "response": "Alpha"}, "16": {"stimulus": 24, "trial": 16, "rt": 1750, "response": "Beta"}, "19": {"stimulus": 6, "trial": 19, "rt": 978, "response": "Beta"}, "18": {"stimulus": 59, "trial": 18, "rt": 761, "response": "Alpha"}, "31": {"stimulus": 18, "trial": 31, "rt": 686, "response": "Beta"}, "30": {"stimulus": 41, "trial": 30, "rt": 1070, "response": "Alpha"}, "37": {"stimulus": 7, "trial": 37, "rt": 686, "response": "Beta"}, "36": {"stimulus": 33, "trial": 36, "rt": 2650, "response": "Beta"}, "35": {"stimulus": 3, "trial": 35, "rt": 648, "response": "Beta"}, "34": {"stimulus": 37, "trial": 34, "rt": 1938, "response": "Beta"}, "33": {"stimulus": 79, "trial": 33, "rt": 858, "response": "Beta"}, "55": {"stimulus": 36, "trial": 55, "rt": 1121, "response": "Alpha"}, "74": {"stimulus": 49, "trial": 74, "rt": 1399, "response": "Alpha"}, "32": {"stimulus": 8, "trial": 32, "rt": 880, "response": "Beta"}, "57": {"stimulus": 51, "trial": 57, "rt": 1171, "response": "Alpha"}, "50": {"stimulus": 12, "trial": 50, "rt": 700, "response": "Beta"}}, "experiment": {"Paradigm": "TACL", "Stimuli": "Size-Color Squares", "Experiment": "Generating-Multiple-Categories"}, "submit": {"timeTotal": 328966, "age": "34", "comments": "this was pretty fun", "sex": "male"}}