{"info": {"finish": 1535353164091, "participant": 73, "exposed": true, "lab": false, "start": 1535352804113, "counterbalance": 1, "gentype": 2, "condition": "Middle", "browser": {"platform": "Linux x86_64", "userAgent": "Mozilla/5.0 (X11; CrOS x86_64 10895.21.0) AppleWebKit/537.36 (KHTML, like Gecko) Chrome/69.0.3497.35 Safari/537.36"}}, "observation": {"11": {"stimulus": 32, "trial": 11, "rt": 1698}, "10": {"stimulus": 30, "trial": 10, "rt": 1790}, "1": {"stimulus": 48, "trial": 1, "rt": 2662}, "0": {"stimulus": 50, "trial": 0, "rt": 6201}, "3": {"stimulus": 32, "trial": 3, "rt": 1904}, "2": {"stimulus": 30, "trial": 2, "rt": 3079}, "5": {"stimulus": 48, "trial": 5, "rt": 1723}, "4": {"stimulus": 30, "trial": 4, "rt": 1446}, "7": {"stimulus": 50, "trial": 7, "rt": 1624}, "6": {"stimulus": 32, "trial": 6, "rt": 2541}, "9": {"stimulus": 50, "trial": 9, "rt": 1583}, "8": {"stimulus": 48, "trial": 8, "rt": 2374}}, "generation": {"1": {"category": "Beta", "trial": 1, "stimulus": 80, "rt": 4798}, "0": {"category": "Beta", "trial": 0, "stimulus": 73, "rt": 11269}, "3": {"category": "Beta", "trial": 3, "stimulus": 74, "rt": 4697}, "2": {"category": "Beta", "trial": 2, "stimulus": 76, "rt": 4316}, "5": {"category": "Gamma", "trial": 5, "stimulus": 0, "rt": 3941}, "4": {"category": "Gamma", "trial": 4, "stimulus": 8, "rt": 4828}, "7": {"category": "Gamma", "trial": 7, "stimulus": 2, "rt": 3847}, "6": {"category": "Gamma", "trial": 6, "stimulus": 6, "rt": 4048}}, "generalization": {"56": {"stimulus": 39, "trial": 56, "rt": 871, "response": "Alpha"}, "77": {"stimulus": 19, "trial": 77, "rt": 1271, "response": "Alpha"}, "54": {"stimulus": 21, "trial": 54, "rt": 1025, "response": "Gamma"}, "42": {"stimulus": 40, "trial": 42, "rt": 733, "response": "Alpha"}, "48": {"stimulus": 5, "trial": 48, "rt": 878, "response": "Gamma"}, "43": {"stimulus": 56, "trial": 43, "rt": 478, "response": "Beta"}, "60": {"stimulus": 6, "trial": 60, "rt": 1029, "response": "Gamma"}, "61": {"stimulus": 32, "trial": 61, "rt": 1215, "response": "Alpha"}, "62": {"stimulus": 55, "trial": 62, "rt": 1506, "response": "Beta"}, "63": {"stimulus": 31, "trial": 63, "rt": 1925, "response": "Alpha"}, "64": {"stimulus": 52, "trial": 64, "rt": 1109, "response": "Beta"}, "49": {"stimulus": 11, "trial": 49, "rt": 454, "response": "Gamma"}, "66": {"stimulus": 65, "trial": 66, "rt": 560, "response": "Beta"}, "67": {"stimulus": 61, "trial": 67, "rt": 706, "response": "Beta"}, "68": {"stimulus": 14, "trial": 68, "rt": 1131, "response": "Gamma"}, "69": {"stimulus": 0, "trial": 69, "rt": 1103, "response": "Gamma"}, "80": {"stimulus": 18, "trial": 80, "rt": 1384, "response": "Alpha"}, "52": {"stimulus": 50, "trial": 52, "rt": 6279, "response": "Alpha"}, "53": {"stimulus": 69, "trial": 53, "rt": 559, "response": "Beta"}, "24": {"stimulus": 34, "trial": 24, "rt": 823, "response": "Alpha"}, "25": {"stimulus": 78, "trial": 25, "rt": 511, "response": "Beta"}, "26": {"stimulus": 4, "trial": 26, "rt": 887, "response": "Gamma"}, "27": {"stimulus": 2, "trial": 27, "rt": 647, "response": "Gamma"}, "20": {"stimulus": 53, "trial": 20, "rt": 920, "response": "Alpha"}, "21": {"stimulus": 71, "trial": 21, "rt": 965, "response": "Beta"}, "22": {"stimulus": 68, "trial": 22, "rt": 431, "response": "Beta"}, "23": {"stimulus": 77, "trial": 23, "rt": 447, "response": "Beta"}, "46": {"stimulus": 63, "trial": 46, "rt": 704, "response": "Beta"}, "47": {"stimulus": 44, "trial": 47, "rt": 920, "response": "Alpha"}, "44": {"stimulus": 24, "trial": 44, "rt": 438, "response": "Beta"}, "45": {"stimulus": 62, "trial": 45, "rt": 639, "response": "Beta"}, "28": {"stimulus": 15, "trial": 28, "rt": 433, "response": "Gamma"}, "29": {"stimulus": 60, "trial": 29, "rt": 708, "response": "Alpha"}, "40": {"stimulus": 72, "trial": 40, "rt": 934, "response": "Beta"}, "41": {"stimulus": 30, "trial": 41, "rt": 1048, "response": "Alpha"}, "1": {"stimulus": 80, "trial": 1, "rt": 1271, "response": "Beta"}, "0": {"stimulus": 43, "trial": 0, "rt": 2007, "response": "Alpha"}, "3": {"stimulus": 16, "trial": 3, "rt": 1335, "response": "Gamma"}, "2": {"stimulus": 70, "trial": 2, "rt": 1582, "response": "Beta"}, "5": {"stimulus": 51, "trial": 5, "rt": 687, "response": "Alpha"}, "4": {"stimulus": 25, "trial": 4, "rt": 1182, "response": "Gamma"}, "7": {"stimulus": 47, "trial": 7, "rt": 1207, "response": "Alpha"}, "6": {"stimulus": 75, "trial": 6, "rt": 839, "response": "Beta"}, "9": {"stimulus": 57, "trial": 9, "rt": 874, "response": "Beta"}, "8": {"stimulus": 38, "trial": 8, "rt": 1112, "response": "Alpha"}, "78": {"stimulus": 64, "trial": 78, "rt": 1321, "response": "Beta"}, "51": {"stimulus": 27, "trial": 51, "rt": 895, "response": "Alpha"}, "39": {"stimulus": 26, "trial": 39, "rt": 1326, "response": "Alpha"}, "65": {"stimulus": 45, "trial": 65, "rt": 614, "response": "Beta"}, "76": {"stimulus": 8, "trial": 76, "rt": 1031, "response": "Gamma"}, "75": {"stimulus": 12, "trial": 75, "rt": 822, "response": "Alpha"}, "38": {"stimulus": 66, "trial": 38, "rt": 638, "response": "Beta"}, "73": {"stimulus": 10, "trial": 73, "rt": 1026, "response": "Gamma"}, "72": {"stimulus": 23, "trial": 72, "rt": 488, "response": "Alpha"}, "71": {"stimulus": 20, "trial": 71, "rt": 1791, "response": "Alpha"}, "70": {"stimulus": 42, "trial": 70, "rt": 2279, "response": "Alpha"}, "59": {"stimulus": 41, "trial": 59, "rt": 576, "response": "Alpha"}, "79": {"stimulus": 49, "trial": 79, "rt": 1444, "response": "Beta"}, "58": {"stimulus": 9, "trial": 58, "rt": 1413, "response": "Gamma"}, "11": {"stimulus": 35, "trial": 11, "rt": 912, "response": "Alpha"}, "10": {"stimulus": 17, "trial": 10, "rt": 919, "response": "Gamma"}, "13": {"stimulus": 73, "trial": 13, "rt": 850, "response": "Beta"}, "12": {"stimulus": 1, "trial": 12, "rt": 1637, "response": "Gamma"}, "15": {"stimulus": 67, "trial": 15, "rt": 2678, "response": "Beta"}, "14": {"stimulus": 33, "trial": 14, "rt": 1820, "response": "Alpha"}, "17": {"stimulus": 54, "trial": 17, "rt": 1504, "response": "Alpha"}, "16": {"stimulus": 76, "trial": 16, "rt": 654, "response": "Beta"}, "19": {"stimulus": 58, "trial": 19, "rt": 639, "response": "Beta"}, "18": {"stimulus": 22, "trial": 18, "rt": 788, "response": "Alpha"}, "31": {"stimulus": 37, "trial": 31, "rt": 1214, "response": "Alpha"}, "30": {"stimulus": 13, "trial": 30, "rt": 1296, "response": "Alpha"}, "37": {"stimulus": 28, "trial": 37, "rt": 911, "response": "Alpha"}, "36": {"stimulus": 79, "trial": 36, "rt": 647, "response": "Beta"}, "35": {"stimulus": 74, "trial": 35, "rt": 928, "response": "Beta"}, "34": {"stimulus": 3, "trial": 34, "rt": 560, "response": "Gamma"}, "33": {"stimulus": 7, "trial": 33, "rt": 991, "response": "Gamma"}, "55": {"stimulus": 48, "trial": 55, "rt": 4558, "response": "Alpha"}, "74": {"stimulus": 59, "trial": 74, "rt": 408, "response": "Beta"}, "32": {"stimulus": 36, "trial": 32, "rt": 566, "response": "Alpha"}, "57": {"stimulus": 46, "trial": 57, "rt": 569, "response": "Beta"}, "50": {"stimulus": 29, "trial": 50, "rt": 1287, "response": "Alpha"}}, "experiment": {"Paradigm": "TACL", "Stimuli": "Size-Color Squares", "Experiment": "Generating-Multiple-Categories"}, "submit": {"timeTotal": 360266, "age": "40", "comments": "n/a", "sex": "female"}}