{"info": {"finish": 1535354493762, "participant": 77, "exposed": true, "lab": false, "start": 1535354155059, "counterbalance": 2, "gentype": 2, "condition": "Bottom", "browser": {"platform": "Win32", "userAgent": "Mozilla/5.0 (Windows NT 10.0; Win64; x64) AppleWebKit/537.36 (KHTML, like Gecko) Chrome/68.0.3440.106 Safari/537.36"}}, "observation": {"11": {"stimulus": 12, "trial": 11, "rt": 1462}, "10": {"stimulus": 30, "trial": 10, "rt": 1666}, "1": {"stimulus": 12, "trial": 1, "rt": 2316}, "0": {"stimulus": 32, "trial": 0, "rt": 2030}, "3": {"stimulus": 30, "trial": 3, "rt": 1900}, "2": {"stimulus": 14, "trial": 2, "rt": 1962}, "5": {"stimulus": 32, "trial": 5, "rt": 2231}, "4": {"stimulus": 14, "trial": 4, "rt": 1899}, "7": {"stimulus": 12, "trial": 7, "rt": 1756}, "6": {"stimulus": 30, "trial": 6, "rt": 1506}, "9": {"stimulus": 14, "trial": 9, "rt": 1750}, "8": {"stimulus": 32, "trial": 8, "rt": 1732}}, "generation": {"1": {"category": "Beta", "trial": 1, "stimulus": 72, "rt": 3677}, "0": {"category": "Beta", "trial": 0, "stimulus": 80, "rt": 10253}, "3": {"category": "Beta", "trial": 3, "stimulus": 74, "rt": 5600}, "2": {"category": "Beta", "trial": 2, "stimulus": 77, "rt": 4341}, "5": {"category": "Gamma", "trial": 5, "stimulus": 8, "rt": 3739}, "4": {"category": "Gamma", "trial": 4, "stimulus": 4, "rt": 5615}, "7": {"category": "Gamma", "trial": 7, "stimulus": 1, "rt": 6254}, "6": {"category": "Gamma", "trial": 6, "stimulus": 0, "rt": 3653}}, "generalization": {"56": {"stimulus": 34, "trial": 56, "rt": 1778, "response": "Alpha"}, "77": {"stimulus": 54, "trial": 77, "rt": 825, "response": "Alpha"}, "54": {"stimulus": 5, "trial": 54, "rt": 1178, "response": "Gamma"}, "42": {"stimulus": 27, "trial": 42, "rt": 1466, "response": "Alpha"}, "48": {"stimulus": 80, "trial": 48, "rt": 865, "response": "Beta"}, "43": {"stimulus": 62, "trial": 43, "rt": 2066, "response": "Alpha"}, "60": {"stimulus": 19, "trial": 60, "rt": 1625, "response": "Alpha"}, "61": {"stimulus": 60, "trial": 61, "rt": 1589, "response": "Alpha"}, "62": {"stimulus": 74, "trial": 62, "rt": 1291, "response": "Beta"}, "63": {"stimulus": 4, "trial": 63, "rt": 1282, "response": "Gamma"}, "64": {"stimulus": 48, "trial": 64, "rt": 1000, "response": "Alpha"}, "49": {"stimulus": 58, "trial": 49, "rt": 927, "response": "Alpha"}, "66": {"stimulus": 52, "trial": 66, "rt": 876, "response": "Alpha"}, "67": {"stimulus": 47, "trial": 67, "rt": 705, "response": "Alpha"}, "68": {"stimulus": 76, "trial": 68, "rt": 1298, "response": "Beta"}, "69": {"stimulus": 26, "trial": 69, "rt": 1482, "response": "Alpha"}, "80": {"stimulus": 61, "trial": 80, "rt": 1772, "response": "Alpha"}, "52": {"stimulus": 78, "trial": 52, "rt": 978, "response": "Beta"}, "53": {"stimulus": 70, "trial": 53, "rt": 1859, "response": "Alpha"}, "24": {"stimulus": 59, "trial": 24, "rt": 1867, "response": "Alpha"}, "25": {"stimulus": 23, "trial": 25, "rt": 3894, "response": "Alpha"}, "26": {"stimulus": 13, "trial": 26, "rt": 1531, "response": "Gamma"}, "27": {"stimulus": 43, "trial": 27, "rt": 965, "response": "Alpha"}, "20": {"stimulus": 55, "trial": 20, "rt": 1088, "response": "Alpha"}, "21": {"stimulus": 38, "trial": 21, "rt": 665, "response": "Alpha"}, "22": {"stimulus": 63, "trial": 22, "rt": 3654, "response": "Alpha"}, "23": {"stimulus": 6, "trial": 23, "rt": 904, "response": "Gamma"}, "46": {"stimulus": 53, "trial": 46, "rt": 1452, "response": "Alpha"}, "47": {"stimulus": 21, "trial": 47, "rt": 1957, "response": "Alpha"}, "44": {"stimulus": 68, "trial": 44, "rt": 1530, "response": "Beta"}, "45": {"stimulus": 7, "trial": 45, "rt": 1013, "response": "Gamma"}, "28": {"stimulus": 32, "trial": 28, "rt": 655, "response": "Alpha"}, "29": {"stimulus": 39, "trial": 29, "rt": 770, "response": "Alpha"}, "40": {"stimulus": 71, "trial": 40, "rt": 2428, "response": "Beta"}, "41": {"stimulus": 65, "trial": 41, "rt": 848, "response": "Beta"}, "1": {"stimulus": 18, "trial": 1, "rt": 2234, "response": "Alpha"}, "0": {"stimulus": 29, "trial": 0, "rt": 1600, "response": "Beta"}, "3": {"stimulus": 44, "trial": 3, "rt": 938, "response": "Alpha"}, "2": {"stimulus": 40, "trial": 2, "rt": 1132, "response": "Alpha"}, "5": {"stimulus": 31, "trial": 5, "rt": 907, "response": "Alpha"}, "4": {"stimulus": 72, "trial": 4, "rt": 2390, "response": "Beta"}, "7": {"stimulus": 11, "trial": 7, "rt": 2298, "response": "Alpha"}, "6": {"stimulus": 64, "trial": 6, "rt": 8136, "response": "Alpha"}, "9": {"stimulus": 17, "trial": 9, "rt": 2373, "response": "Gamma"}, "8": {"stimulus": 37, "trial": 8, "rt": 1363, "response": "Alpha"}, "78": {"stimulus": 56, "trial": 78, "rt": 755, "response": "Alpha"}, "51": {"stimulus": 2, "trial": 51, "rt": 1643, "response": "Gamma"}, "39": {"stimulus": 25, "trial": 39, "rt": 1757, "response": "Alpha"}, "65": {"stimulus": 22, "trial": 65, "rt": 1578, "response": "Alpha"}, "76": {"stimulus": 77, "trial": 76, "rt": 907, "response": "Beta"}, "75": {"stimulus": 50, "trial": 75, "rt": 937, "response": "Alpha"}, "38": {"stimulus": 42, "trial": 38, "rt": 968, "response": "Alpha"}, "73": {"stimulus": 51, "trial": 73, "rt": 1274, "response": "Alpha"}, "72": {"stimulus": 79, "trial": 72, "rt": 944, "response": "Beta"}, "71": {"stimulus": 30, "trial": 71, "rt": 1145, "response": "Alpha"}, "70": {"stimulus": 67, "trial": 70, "rt": 2310, "response": "Alpha"}, "59": {"stimulus": 8, "trial": 59, "rt": 1120, "response": "Gamma"}, "79": {"stimulus": 24, "trial": 79, "rt": 1896, "response": "Alpha"}, "58": {"stimulus": 46, "trial": 58, "rt": 787, "response": "Alpha"}, "11": {"stimulus": 57, "trial": 11, "rt": 2765, "response": "Alpha"}, "10": {"stimulus": 33, "trial": 10, "rt": 1672, "response": "Alpha"}, "13": {"stimulus": 73, "trial": 13, "rt": 917, "response": "Beta"}, "12": {"stimulus": 41, "trial": 12, "rt": 1457, "response": "Alpha"}, "15": {"stimulus": 9, "trial": 15, "rt": 2382, "response": "Gamma"}, "14": {"stimulus": 3, "trial": 14, "rt": 1610, "response": "Gamma"}, "17": {"stimulus": 1, "trial": 17, "rt": 1195, "response": "Gamma"}, "16": {"stimulus": 12, "trial": 16, "rt": 1359, "response": "Gamma"}, "19": {"stimulus": 15, "trial": 19, "rt": 3164, "response": "Gamma"}, "18": {"stimulus": 66, "trial": 18, "rt": 841, "response": "Beta"}, "31": {"stimulus": 75, "trial": 31, "rt": 969, "response": "Beta"}, "30": {"stimulus": 49, "trial": 30, "rt": 714, "response": "Alpha"}, "37": {"stimulus": 0, "trial": 37, "rt": 1370, "response": "Gamma"}, "36": {"stimulus": 69, "trial": 36, "rt": 865, "response": "Beta"}, "35": {"stimulus": 14, "trial": 35, "rt": 1283, "response": "Gamma"}, "34": {"stimulus": 36, "trial": 34, "rt": 851, "response": "Alpha"}, "33": {"stimulus": 35, "trial": 33, "rt": 1146, "response": "Alpha"}, "55": {"stimulus": 16, "trial": 55, "rt": 3653, "response": "Gamma"}, "74": {"stimulus": 10, "trial": 74, "rt": 1346, "response": "Gamma"}, "32": {"stimulus": 45, "trial": 32, "rt": 969, "response": "Alpha"}, "57": {"stimulus": 20, "trial": 57, "rt": 873, "response": "Alpha"}, "50": {"stimulus": 28, "trial": 50, "rt": 1651, "response": "Alpha"}}, "experiment": {"Paradigm": "TACL", "Stimuli": "Size-Color Squares", "Experiment": "Generating-Multiple-Categories"}, "submit": {"timeTotal": 338964, "age": "35", "comments": "This was quite interesting.", "sex": "male"}}