{"info": {"finish": 1535358567587, "participant": 79, "exposed": true, "lab": false, "start": 1535356266194, "counterbalance": 0, "gentype": 2, "condition": "Bottom", "browser": {"platform": "Win32", "userAgent": "Mozilla/5.0 (Windows NT 10.0; Win64; x64) AppleWebKit/537.36 (KHTML, like Gecko) Chrome/68.0.3440.106 Safari/537.36"}}, "observation": {"11": {"stimulus": 14, "trial": 11, "rt": 1299}, "10": {"stimulus": 32, "trial": 10, "rt": 1422}, "1": {"stimulus": 32, "trial": 1, "rt": 1892}, "0": {"stimulus": 12, "trial": 0, "rt": 2593}, "3": {"stimulus": 30, "trial": 3, "rt": 1461}, "2": {"stimulus": 14, "trial": 2, "rt": 1749}, "5": {"stimulus": 30, "trial": 5, "rt": 1258}, "4": {"stimulus": 32, "trial": 4, "rt": 1379}, "7": {"stimulus": 12, "trial": 7, "rt": 1342}, "6": {"stimulus": 14, "trial": 6, "rt": 1339}, "9": {"stimulus": 30, "trial": 9, "rt": 1383}, "8": {"stimulus": 12, "trial": 8, "rt": 1207}}, "generation": {"1": {"category": "Beta", "trial": 1, "stimulus": 72, "rt": 3620}, "0": {"category": "Beta", "trial": 0, "stimulus": 80, "rt": 13625}, "3": {"category": "Beta", "trial": 3, "stimulus": 64, "rt": 8025}, "2": {"category": "Beta", "trial": 2, "stimulus": 70, "rt": 17693}, "5": {"category": "Gamma", "trial": 5, "stimulus": 17, "rt": 3096}, "4": {"category": "Gamma", "trial": 4, "stimulus": 8, "rt": 3667}, "7": {"category": "Gamma", "trial": 7, "stimulus": 35, "rt": 2583}, "6": {"category": "Gamma", "trial": 6, "stimulus": 26, "rt": 3843}}, "generalization": {"56": {"stimulus": 76, "trial": 56, "rt": 860, "response": "Beta"}, "77": {"stimulus": 26, "trial": 77, "rt": 1685, "response": "Gamma"}, "54": {"stimulus": 43, "trial": 54, "rt": 1263, "response": "Gamma"}, "42": {"stimulus": 65, "trial": 42, "rt": 863, "response": "Beta"}, "48": {"stimulus": 80, "trial": 48, "rt": 847, "response": "Beta"}, "43": {"stimulus": 75, "trial": 43, "rt": 439, "response": "Beta"}, "60": {"stimulus": 7, "trial": 60, "rt": 2897, "response": "Alpha"}, "61": {"stimulus": 73, "trial": 61, "rt": 2222, "response": "Beta"}, "62": {"stimulus": 35, "trial": 62, "rt": 977, "response": "Gamma"}, "63": {"stimulus": 53, "trial": 63, "rt": 2421, "response": "Gamma"}, "64": {"stimulus": 9, "trial": 64, "rt": 1065, "response": "Alpha"}, "49": {"stimulus": 45, "trial": 49, "rt": 800, "response": "Alpha"}, "66": {"stimulus": 2, "trial": 66, "rt": 825, "response": "Alpha"}, "67": {"stimulus": 46, "trial": 67, "rt": 1664, "response": "Beta"}, "68": {"stimulus": 32, "trial": 68, "rt": 1114, "response": "Beta"}, "69": {"stimulus": 29, "trial": 69, "rt": 1722, "response": "Beta"}, "80": {"stimulus": 15, "trial": 80, "rt": 405, "response": "Alpha"}, "52": {"stimulus": 66, "trial": 52, "rt": 1656, "response": "Beta"}, "53": {"stimulus": 72, "trial": 53, "rt": 1116, "response": "Beta"}, "24": {"stimulus": 14, "trial": 24, "rt": 1985, "response": "Alpha"}, "25": {"stimulus": 19, "trial": 25, "rt": 1039, "response": "Alpha"}, "26": {"stimulus": 12, "trial": 26, "rt": 696, "response": "Alpha"}, "27": {"stimulus": 10, "trial": 27, "rt": 457, "response": "Alpha"}, "20": {"stimulus": 61, "trial": 20, "rt": 1812, "response": "Beta"}, "21": {"stimulus": 48, "trial": 21, "rt": 1698, "response": "Beta"}, "22": {"stimulus": 5, "trial": 22, "rt": 1723, "response": "Gamma"}, "23": {"stimulus": 25, "trial": 23, "rt": 1226, "response": "Gamma"}, "46": {"stimulus": 37, "trial": 46, "rt": 1953, "response": "Beta"}, "47": {"stimulus": 51, "trial": 47, "rt": 1480, "response": "Gamma"}, "44": {"stimulus": 59, "trial": 44, "rt": 1212, "response": "Beta"}, "45": {"stimulus": 34, "trial": 45, "rt": 1093, "response": "Gamma"}, "28": {"stimulus": 56, "trial": 28, "rt": 931, "response": "Beta"}, "29": {"stimulus": 77, "trial": 29, "rt": 940, "response": "Beta"}, "40": {"stimulus": 27, "trial": 40, "rt": 1384, "response": "Alpha"}, "41": {"stimulus": 63, "trial": 41, "rt": 1220, "response": "Beta"}, "1": {"stimulus": 30, "trial": 1, "rt": 1736, "response": "Alpha"}, "0": {"stimulus": 78, "trial": 0, "rt": 2069, "response": "Beta"}, "3": {"stimulus": 17, "trial": 3, "rt": 683, "response": "Gamma"}, "2": {"stimulus": 8, "trial": 2, "rt": 2198, "response": "Gamma"}, "5": {"stimulus": 0, "trial": 5, "rt": 965, "response": "Alpha"}, "4": {"stimulus": 55, "trial": 4, "rt": 1540, "response": "Beta"}, "7": {"stimulus": 44, "trial": 7, "rt": 1128, "response": "Alpha"}, "6": {"stimulus": 52, "trial": 6, "rt": 3269, "response": "Beta"}, "9": {"stimulus": 42, "trial": 9, "rt": 1040, "response": "Alpha"}, "8": {"stimulus": 31, "trial": 8, "rt": 1191, "response": "Alpha"}, "78": {"stimulus": 6, "trial": 78, "rt": 1461, "response": "Alpha"}, "51": {"stimulus": 62, "trial": 51, "rt": 5081, "response": "Beta"}, "39": {"stimulus": 57, "trial": 39, "rt": 2637, "response": "Beta"}, "65": {"stimulus": 11, "trial": 65, "rt": 682, "response": "Alpha"}, "76": {"stimulus": 41, "trial": 76, "rt": 1662, "response": "Gamma"}, "75": {"stimulus": 40, "trial": 75, "rt": 1436, "response": "Gamma"}, "38": {"stimulus": 49, "trial": 38, "rt": 2248, "response": "Alpha"}, "73": {"stimulus": 54, "trial": 73, "rt": 1141, "response": "Beta"}, "72": {"stimulus": 1, "trial": 72, "rt": 823, "response": "Alpha"}, "71": {"stimulus": 28, "trial": 71, "rt": 1626, "response": "Alpha"}, "70": {"stimulus": 79, "trial": 70, "rt": 968, "response": "Beta"}, "59": {"stimulus": 50, "trial": 59, "rt": 1492, "response": "Beta"}, "79": {"stimulus": 3, "trial": 79, "rt": 881, "response": "Alpha"}, "58": {"stimulus": 71, "trial": 58, "rt": 1440, "response": "Beta"}, "11": {"stimulus": 74, "trial": 11, "rt": 691, "response": "Beta"}, "10": {"stimulus": 18, "trial": 10, "rt": 1269, "response": "Alpha"}, "13": {"stimulus": 16, "trial": 13, "rt": 980, "response": "Alpha"}, "12": {"stimulus": 64, "trial": 12, "rt": 747, "response": "Beta"}, "15": {"stimulus": 4, "trial": 15, "rt": 1065, "response": "Alpha"}, "14": {"stimulus": 58, "trial": 14, "rt": 2287, "response": "Beta"}, "17": {"stimulus": 69, "trial": 17, "rt": 1566, "response": "Beta"}, "16": {"stimulus": 20, "trial": 16, "rt": 973, "response": "Alpha"}, "19": {"stimulus": 70, "trial": 19, "rt": 1950, "response": "Beta"}, "18": {"stimulus": 33, "trial": 18, "rt": 1968, "response": "Gamma"}, "31": {"stimulus": 21, "trial": 31, "rt": 1455, "response": "Alpha"}, "30": {"stimulus": 13, "trial": 30, "rt": 1741, "response": "Alpha"}, "37": {"stimulus": 39, "trial": 37, "rt": 1831, "response": "Alpha"}, "36": {"stimulus": 68, "trial": 36, "rt": 1256, "response": "Beta"}, "35": {"stimulus": 67, "trial": 35, "rt": 804, "response": "Beta"}, "34": {"stimulus": 47, "trial": 34, "rt": 1410, "response": "Beta"}, "33": {"stimulus": 22, "trial": 33, "rt": 1305, "response": "Alpha"}, "55": {"stimulus": 23, "trial": 55, "rt": 1670, "response": "Gamma"}, "74": {"stimulus": 60, "trial": 74, "rt": 1130, "response": "Gamma"}, "32": {"stimulus": 38, "trial": 32, "rt": 863, "response": "Beta"}, "57": {"stimulus": 24, "trial": 57, "rt": 2620, "response": "Gamma"}, "50": {"stimulus": 36, "trial": 50, "rt": 2264, "response": "Alpha"}}, "experiment": {"Paradigm": "TACL", "Stimuli": "Size-Color Squares", "Experiment": "Generating-Multiple-Categories"}, "submit": {"timeTotal": 2301819, "age": "22", "comments": "I think the experiment was very interesting. I feel like I messed up on a couple but for the majority (93%+) I was accurate with what I thought was correct.", "sex": "Male"}}