{"info": {"finish": 1535359164559, "participant": 81, "exposed": true, "lab": false, "start": 1535358795083, "counterbalance": 3, "gentype": 0, "condition": "Bottom", "browser": {"platform": "Win32", "userAgent": "Mozilla/5.0 (Windows NT 6.3; Win64; x64) AppleWebKit/537.36 (KHTML, like Gecko) Chrome/68.0.3440.106 Safari/537.36"}}, "observation": {"11": {"stimulus": 14, "trial": 11, "rt": 1951}, "10": {"stimulus": 12, "trial": 10, "rt": 2926}, "1": {"stimulus": 32, "trial": 1, "rt": 2336}, "0": {"stimulus": 14, "trial": 0, "rt": 5890}, "3": {"stimulus": 30, "trial": 3, "rt": 1971}, "2": {"stimulus": 12, "trial": 2, "rt": 1932}, "5": {"stimulus": 14, "trial": 5, "rt": 1799}, "4": {"stimulus": 32, "trial": 4, "rt": 1925}, "7": {"stimulus": 12, "trial": 7, "rt": 2357}, "6": {"stimulus": 30, "trial": 6, "rt": 2508}, "9": {"stimulus": 30, "trial": 9, "rt": 1709}, "8": {"stimulus": 32, "trial": 8, "rt": 1730}}, "generation": {"1": {"category": "Not-Alpha", "trial": 1, "stimulus": 65, "rt": 16242}, "0": {"category": "Not-Alpha", "trial": 0, "stimulus": 56, "rt": 33630}, "3": {"category": "Not-Alpha", "trial": 3, "stimulus": 29, "rt": 4417}, "2": {"category": "Not-Alpha", "trial": 2, "stimulus": 57, "rt": 16951}, "5": {"category": "Not-Alpha", "trial": 5, "stimulus": 64, "rt": 9999}, "4": {"category": "Not-Alpha", "trial": 4, "stimulus": 58, "rt": 7798}, "7": {"category": "Not-Alpha", "trial": 7, "stimulus": 76, "rt": 4650}, "6": {"category": "Not-Alpha", "trial": 6, "stimulus": 59, "rt": 10479}}, "generalization": {"56": {"stimulus": 29, "trial": 56, "rt": 848, "response": "Alpha"}, "77": {"stimulus": 40, "trial": 77, "rt": 1484, "response": "Alpha"}, "54": {"stimulus": 34, "trial": 54, "rt": 1301, "response": "Alpha"}, "42": {"stimulus": 62, "trial": 42, "rt": 1139, "response": "Beta"}, "48": {"stimulus": 23, "trial": 48, "rt": 1157, "response": "Alpha"}, "43": {"stimulus": 79, "trial": 43, "rt": 1002, "response": "Beta"}, "60": {"stimulus": 11, "trial": 60, "rt": 1294, "response": "Alpha"}, "61": {"stimulus": 5, "trial": 61, "rt": 1174, "response": "Alpha"}, "62": {"stimulus": 72, "trial": 62, "rt": 1164, "response": "Beta"}, "63": {"stimulus": 36, "trial": 63, "rt": 1516, "response": "Alpha"}, "64": {"stimulus": 32, "trial": 64, "rt": 1196, "response": "Alpha"}, "49": {"stimulus": 58, "trial": 49, "rt": 1248, "response": "Beta"}, "66": {"stimulus": 26, "trial": 66, "rt": 1252, "response": "Alpha"}, "67": {"stimulus": 52, "trial": 67, "rt": 1182, "response": "Beta"}, "68": {"stimulus": 16, "trial": 68, "rt": 1442, "response": "Alpha"}, "69": {"stimulus": 70, "trial": 69, "rt": 1027, "response": "Beta"}, "80": {"stimulus": 61, "trial": 80, "rt": 1367, "response": "Beta"}, "52": {"stimulus": 18, "trial": 52, "rt": 848, "response": "Alpha"}, "53": {"stimulus": 65, "trial": 53, "rt": 1415, "response": "Beta"}, "24": {"stimulus": 8, "trial": 24, "rt": 1427, "response": "Alpha"}, "25": {"stimulus": 71, "trial": 25, "rt": 1272, "response": "Beta"}, "26": {"stimulus": 45, "trial": 26, "rt": 1255, "response": "Beta"}, "27": {"stimulus": 68, "trial": 27, "rt": 821, "response": "Beta"}, "20": {"stimulus": 59, "trial": 20, "rt": 1226, "response": "Beta"}, "21": {"stimulus": 63, "trial": 21, "rt": 891, "response": "Beta"}, "22": {"stimulus": 6, "trial": 22, "rt": 1217, "response": "Alpha"}, "23": {"stimulus": 76, "trial": 23, "rt": 1368, "response": "Beta"}, "46": {"stimulus": 22, "trial": 46, "rt": 2603, "response": "Alpha"}, "47": {"stimulus": 69, "trial": 47, "rt": 1264, "response": "Beta"}, "44": {"stimulus": 4, "trial": 44, "rt": 1340, "response": "Alpha"}, "45": {"stimulus": 41, "trial": 45, "rt": 1701, "response": "Alpha"}, "28": {"stimulus": 78, "trial": 28, "rt": 848, "response": "Beta"}, "29": {"stimulus": 39, "trial": 29, "rt": 2691, "response": "Alpha"}, "40": {"stimulus": 19, "trial": 40, "rt": 1438, "response": "Alpha"}, "41": {"stimulus": 44, "trial": 41, "rt": 1131, "response": "Alpha"}, "1": {"stimulus": 80, "trial": 1, "rt": 1083, "response": "Beta"}, "0": {"stimulus": 46, "trial": 0, "rt": 6480, "response": "Beta"}, "3": {"stimulus": 50, "trial": 3, "rt": 812, "response": "Beta"}, "2": {"stimulus": 66, "trial": 2, "rt": 1062, "response": "Beta"}, "5": {"stimulus": 51, "trial": 5, "rt": 831, "response": "Beta"}, "4": {"stimulus": 20, "trial": 4, "rt": 719, "response": "Beta"}, "7": {"stimulus": 73, "trial": 7, "rt": 809, "response": "Beta"}, "6": {"stimulus": 54, "trial": 6, "rt": 769, "response": "Beta"}, "9": {"stimulus": 3, "trial": 9, "rt": 946, "response": "Alpha"}, "8": {"stimulus": 15, "trial": 8, "rt": 1336, "response": "Alpha"}, "78": {"stimulus": 53, "trial": 78, "rt": 1095, "response": "Beta"}, "51": {"stimulus": 17, "trial": 51, "rt": 822, "response": "Alpha"}, "39": {"stimulus": 48, "trial": 39, "rt": 874, "response": "Beta"}, "65": {"stimulus": 77, "trial": 65, "rt": 1352, "response": "Beta"}, "76": {"stimulus": 60, "trial": 76, "rt": 1380, "response": "Beta"}, "75": {"stimulus": 38, "trial": 75, "rt": 965, "response": "Alpha"}, "38": {"stimulus": 55, "trial": 38, "rt": 953, "response": "Beta"}, "73": {"stimulus": 13, "trial": 73, "rt": 830, "response": "Alpha"}, "72": {"stimulus": 28, "trial": 72, "rt": 2299, "response": "Alpha"}, "71": {"stimulus": 42, "trial": 71, "rt": 1483, "response": "Alpha"}, "70": {"stimulus": 74, "trial": 70, "rt": 1044, "response": "Beta"}, "59": {"stimulus": 57, "trial": 59, "rt": 856, "response": "Beta"}, "79": {"stimulus": 21, "trial": 79, "rt": 1288, "response": "Alpha"}, "58": {"stimulus": 75, "trial": 58, "rt": 887, "response": "Beta"}, "11": {"stimulus": 43, "trial": 11, "rt": 3303, "response": "Alpha"}, "10": {"stimulus": 49, "trial": 10, "rt": 1234, "response": "Beta"}, "13": {"stimulus": 64, "trial": 13, "rt": 1090, "response": "Beta"}, "12": {"stimulus": 0, "trial": 12, "rt": 1417, "response": "Alpha"}, "15": {"stimulus": 1, "trial": 15, "rt": 809, "response": "Alpha"}, "14": {"stimulus": 30, "trial": 14, "rt": 1691, "response": "Alpha"}, "17": {"stimulus": 31, "trial": 17, "rt": 852, "response": "Alpha"}, "16": {"stimulus": 14, "trial": 16, "rt": 822, "response": "Alpha"}, "19": {"stimulus": 35, "trial": 19, "rt": 958, "response": "Alpha"}, "18": {"stimulus": 37, "trial": 18, "rt": 1023, "response": "Alpha"}, "31": {"stimulus": 25, "trial": 31, "rt": 805, "response": "Alpha"}, "30": {"stimulus": 10, "trial": 30, "rt": 1209, "response": "Alpha"}, "37": {"stimulus": 47, "trial": 37, "rt": 1317, "response": "Beta"}, "36": {"stimulus": 9, "trial": 36, "rt": 906, "response": "Alpha"}, "35": {"stimulus": 12, "trial": 35, "rt": 1707, "response": "Alpha"}, "34": {"stimulus": 27, "trial": 34, "rt": 1306, "response": "Alpha"}, "33": {"stimulus": 67, "trial": 33, "rt": 1363, "response": "Beta"}, "55": {"stimulus": 2, "trial": 55, "rt": 833, "response": "Alpha"}, "74": {"stimulus": 7, "trial": 74, "rt": 894, "response": "Alpha"}, "32": {"stimulus": 24, "trial": 32, "rt": 918, "response": "Alpha"}, "57": {"stimulus": 56, "trial": 57, "rt": 1279, "response": "Beta"}, "50": {"stimulus": 33, "trial": 50, "rt": 1199, "response": "Alpha"}}, "experiment": {"Paradigm": "TACL", "Stimuli": "Size-Color Squares", "Experiment": "Generating-Multiple-Categories"}, "submit": {"timeTotal": 369662, "age": "23", "comments": "Good and easy task to do which between alpha and non alpha characters. Thankyou.", "sex": "Male"}}