{"info": {"finish": 1535359806044, "participant": 82, "exposed": true, "lab": false, "start": 1535358889240, "counterbalance": 7, "gentype": 2, "condition": "Bottom", "browser": {"platform": "Win32", "userAgent": "Mozilla/5.0 (Windows NT 10.0; Win64; x64) AppleWebKit/537.36 (KHTML, like Gecko) Chrome/68.0.3440.106 Safari/537.36"}}, "observation": {"11": {"stimulus": 14, "trial": 11, "rt": 1789}, "10": {"stimulus": 30, "trial": 10, "rt": 1780}, "1": {"stimulus": 12, "trial": 1, "rt": 2167}, "0": {"stimulus": 14, "trial": 0, "rt": 2950}, "3": {"stimulus": 32, "trial": 3, "rt": 1793}, "2": {"stimulus": 30, "trial": 2, "rt": 1989}, "5": {"stimulus": 12, "trial": 5, "rt": 1887}, "4": {"stimulus": 14, "trial": 4, "rt": 1937}, "7": {"stimulus": 30, "trial": 7, "rt": 1738}, "6": {"stimulus": 32, "trial": 6, "rt": 1694}, "9": {"stimulus": 32, "trial": 9, "rt": 1942}, "8": {"stimulus": 12, "trial": 8, "rt": 1756}}, "generation": {"1": {"category": "Beta", "trial": 1, "stimulus": 80, "rt": 6509}, "0": {"category": "Beta", "trial": 0, "stimulus": 8, "rt": 28086}, "3": {"category": "Beta", "trial": 3, "stimulus": 71, "rt": 6952}, "2": {"category": "Beta", "trial": 2, "stimulus": 26, "rt": 5989}, "5": {"category": "Gamma", "trial": 5, "stimulus": 9, "rt": 4841}, "4": {"category": "Gamma", "trial": 4, "stimulus": 0, "rt": 14703}, "7": {"category": "Gamma", "trial": 7, "stimulus": 18, "rt": 4854}, "6": {"category": "Gamma", "trial": 6, "stimulus": 27, "rt": 3694}}, "generalization": {"56": {"stimulus": 11, "trial": 56, "rt": 1691, "response": "Alpha"}, "77": {"stimulus": 15, "trial": 77, "rt": 1604, "response": "Alpha"}, "54": {"stimulus": 9, "trial": 54, "rt": 1421, "response": "Gamma"}, "42": {"stimulus": 16, "trial": 42, "rt": 4040, "response": "Alpha"}, "48": {"stimulus": 29, "trial": 48, "rt": 1288, "response": "Alpha"}, "43": {"stimulus": 67, "trial": 43, "rt": 1944, "response": "Alpha"}, "60": {"stimulus": 26, "trial": 60, "rt": 2102, "response": "Beta"}, "61": {"stimulus": 77, "trial": 61, "rt": 1431, "response": "Alpha"}, "62": {"stimulus": 22, "trial": 62, "rt": 962, "response": "Alpha"}, "63": {"stimulus": 64, "trial": 63, "rt": 2540, "response": "Alpha"}, "64": {"stimulus": 36, "trial": 64, "rt": 2457, "response": "Gamma"}, "49": {"stimulus": 57, "trial": 49, "rt": 1210, "response": "Alpha"}, "66": {"stimulus": 19, "trial": 66, "rt": 3621, "response": "Alpha"}, "67": {"stimulus": 79, "trial": 67, "rt": 1505, "response": "Beta"}, "68": {"stimulus": 23, "trial": 68, "rt": 1421, "response": "Alpha"}, "69": {"stimulus": 47, "trial": 69, "rt": 7053, "response": "Alpha"}, "80": {"stimulus": 51, "trial": 80, "rt": 901, "response": "Beta"}, "52": {"stimulus": 17, "trial": 52, "rt": 1523, "response": "Beta"}, "53": {"stimulus": 43, "trial": 53, "rt": 2621, "response": "Alpha"}, "24": {"stimulus": 50, "trial": 24, "rt": 983, "response": "Alpha"}, "25": {"stimulus": 28, "trial": 25, "rt": 1383, "response": "Gamma"}, "26": {"stimulus": 74, "trial": 26, "rt": 1854, "response": "Gamma"}, "27": {"stimulus": 75, "trial": 27, "rt": 1828, "response": "Alpha"}, "20": {"stimulus": 7, "trial": 20, "rt": 19332, "response": "Alpha"}, "21": {"stimulus": 14, "trial": 21, "rt": 1046, "response": "Alpha"}, "22": {"stimulus": 39, "trial": 22, "rt": 2208, "response": "Alpha"}, "23": {"stimulus": 6, "trial": 23, "rt": 1110, "response": "Alpha"}, "46": {"stimulus": 62, "trial": 46, "rt": 1468, "response": "Beta"}, "47": {"stimulus": 4, "trial": 47, "rt": 3768, "response": "Alpha"}, "44": {"stimulus": 54, "trial": 44, "rt": 1508, "response": "Gamma"}, "45": {"stimulus": 40, "trial": 45, "rt": 1913, "response": "Alpha"}, "28": {"stimulus": 66, "trial": 28, "rt": 867, "response": "Alpha"}, "29": {"stimulus": 41, "trial": 29, "rt": 2048, "response": "Alpha"}, "40": {"stimulus": 60, "trial": 40, "rt": 2314, "response": "Alpha"}, "41": {"stimulus": 44, "trial": 41, "rt": 4294, "response": "Beta"}, "1": {"stimulus": 42, "trial": 1, "rt": 1887, "response": "Alpha"}, "0": {"stimulus": 35, "trial": 0, "rt": 4202, "response": "Beta"}, "3": {"stimulus": 37, "trial": 3, "rt": 1233, "response": "Gamma"}, "2": {"stimulus": 27, "trial": 2, "rt": 2080, "response": "Gamma"}, "5": {"stimulus": 21, "trial": 5, "rt": 1517, "response": "Alpha"}, "4": {"stimulus": 20, "trial": 4, "rt": 3500, "response": "Alpha"}, "7": {"stimulus": 59, "trial": 7, "rt": 2519, "response": "Alpha"}, "6": {"stimulus": 55, "trial": 6, "rt": 1555, "response": "Alpha"}, "9": {"stimulus": 46, "trial": 9, "rt": 3207, "response": "Gamma"}, "8": {"stimulus": 58, "trial": 8, "rt": 1066, "response": "Alpha"}, "78": {"stimulus": 10, "trial": 78, "rt": 2232, "response": "Gamma"}, "51": {"stimulus": 48, "trial": 51, "rt": 1755, "response": "Alpha"}, "39": {"stimulus": 73, "trial": 39, "rt": 1530, "response": "Gamma"}, "65": {"stimulus": 18, "trial": 65, "rt": 1471, "response": "Gamma"}, "76": {"stimulus": 25, "trial": 76, "rt": 2129, "response": "Beta"}, "75": {"stimulus": 32, "trial": 75, "rt": 1080, "response": "Alpha"}, "38": {"stimulus": 61, "trial": 38, "rt": 8097, "response": "Beta"}, "73": {"stimulus": 49, "trial": 73, "rt": 965, "response": "Alpha"}, "72": {"stimulus": 30, "trial": 72, "rt": 1078, "response": "Alpha"}, "71": {"stimulus": 56, "trial": 71, "rt": 1093, "response": "Alpha"}, "70": {"stimulus": 76, "trial": 70, "rt": 7211, "response": "Alpha"}, "59": {"stimulus": 38, "trial": 59, "rt": 1122, "response": "Alpha"}, "79": {"stimulus": 34, "trial": 79, "rt": 1242, "response": "Beta"}, "58": {"stimulus": 12, "trial": 58, "rt": 917, "response": "Alpha"}, "11": {"stimulus": 2, "trial": 11, "rt": 3050, "response": "Gamma"}, "10": {"stimulus": 68, "trial": 10, "rt": 3745, "response": "Alpha"}, "13": {"stimulus": 72, "trial": 13, "rt": 1951, "response": "Gamma"}, "12": {"stimulus": 24, "trial": 12, "rt": 1483, "response": "Beta"}, "15": {"stimulus": 78, "trial": 15, "rt": 1135, "response": "Beta"}, "14": {"stimulus": 69, "trial": 14, "rt": 1717, "response": "Beta"}, "17": {"stimulus": 31, "trial": 17, "rt": 2371, "response": "Alpha"}, "16": {"stimulus": 53, "trial": 16, "rt": 1209, "response": "Beta"}, "19": {"stimulus": 80, "trial": 19, "rt": 2005, "response": "Beta"}, "18": {"stimulus": 3, "trial": 18, "rt": 1413, "response": "Alpha"}, "31": {"stimulus": 63, "trial": 31, "rt": 1579, "response": "Gamma"}, "30": {"stimulus": 71, "trial": 30, "rt": 1576, "response": "Beta"}, "37": {"stimulus": 0, "trial": 37, "rt": 3440, "response": "Gamma"}, "36": {"stimulus": 13, "trial": 36, "rt": 1333, "response": "Alpha"}, "35": {"stimulus": 52, "trial": 35, "rt": 1434, "response": "Beta"}, "34": {"stimulus": 8, "trial": 34, "rt": 1947, "response": "Beta"}, "33": {"stimulus": 1, "trial": 33, "rt": 2511, "response": "Alpha"}, "55": {"stimulus": 70, "trial": 55, "rt": 1013, "response": "Alpha"}, "74": {"stimulus": 5, "trial": 74, "rt": 1246, "response": "Alpha"}, "32": {"stimulus": 33, "trial": 32, "rt": 2676, "response": "Alpha"}, "57": {"stimulus": 65, "trial": 57, "rt": 858, "response": "Alpha"}, "50": {"stimulus": 45, "trial": 50, "rt": 2007, "response": "Gamma"}}, "experiment": {"Paradigm": "TACL", "Stimuli": "Size-Color Squares", "Experiment": "Generating-Multiple-Categories"}, "submit": {"timeTotal": 917055, "age": "33", "comments": "oh, it was very good, thank you", "sex": "male"}}