{"info": {"finish": 1535360202475, "participant": 85, "exposed": true, "lab": false, "start": 1535359389220, "counterbalance": 2, "gentype": 0, "condition": "Middle", "browser": {"platform": "Win32", "userAgent": "Mozilla/5.0 (Windows NT 10.0; Win64; x64) AppleWebKit/537.36 (KHTML, like Gecko) Chrome/68.0.3440.106 Safari/537.36"}}, "observation": {"11": {"stimulus": 30, "trial": 11, "rt": 2294}, "10": {"stimulus": 50, "trial": 10, "rt": 1999}, "1": {"stimulus": 50, "trial": 1, "rt": 4253}, "0": {"stimulus": 30, "trial": 0, "rt": 3404}, "3": {"stimulus": 48, "trial": 3, "rt": 3190}, "2": {"stimulus": 32, "trial": 2, "rt": 3854}, "5": {"stimulus": 32, "trial": 5, "rt": 2992}, "4": {"stimulus": 30, "trial": 4, "rt": 4318}, "7": {"stimulus": 48, "trial": 7, "rt": 2286}, "6": {"stimulus": 50, "trial": 6, "rt": 3454}, "9": {"stimulus": 48, "trial": 9, "rt": 2175}, "8": {"stimulus": 32, "trial": 8, "rt": 2262}}, "generation": {"1": {"category": "Not-Alpha", "trial": 1, "stimulus": 7, "rt": 7622}, "0": {"category": "Not-Alpha", "trial": 0, "stimulus": 8, "rt": 13515}, "3": {"category": "Not-Alpha", "trial": 3, "stimulus": 17, "rt": 7070}, "2": {"category": "Not-Alpha", "trial": 2, "stimulus": 6, "rt": 7024}, "5": {"category": "Not-Alpha", "trial": 5, "stimulus": 15, "rt": 3926}, "4": {"category": "Not-Alpha", "trial": 4, "stimulus": 16, "rt": 3454}, "7": {"category": "Not-Alpha", "trial": 7, "stimulus": 35, "rt": 5831}, "6": {"category": "Not-Alpha", "trial": 6, "stimulus": 26, "rt": 11093}}, "generalization": {"56": {"stimulus": 55, "trial": 56, "rt": 1119, "response": "Alpha"}, "77": {"stimulus": 79, "trial": 77, "rt": 1559, "response": "Beta"}, "54": {"stimulus": 14, "trial": 54, "rt": 1167, "response": "Beta"}, "42": {"stimulus": 1, "trial": 42, "rt": 1215, "response": "Beta"}, "48": {"stimulus": 24, "trial": 48, "rt": 975, "response": "Beta"}, "43": {"stimulus": 44, "trial": 43, "rt": 790, "response": "Beta"}, "60": {"stimulus": 37, "trial": 60, "rt": 1916, "response": "Alpha"}, "61": {"stimulus": 10, "trial": 61, "rt": 1273, "response": "Beta"}, "62": {"stimulus": 2, "trial": 62, "rt": 711, "response": "Beta"}, "63": {"stimulus": 33, "trial": 63, "rt": 1519, "response": "Beta"}, "64": {"stimulus": 80, "trial": 64, "rt": 1367, "response": "Beta"}, "49": {"stimulus": 69, "trial": 49, "rt": 1575, "response": "Beta"}, "66": {"stimulus": 47, "trial": 66, "rt": 1255, "response": "Alpha"}, "67": {"stimulus": 43, "trial": 67, "rt": 1094, "response": "Beta"}, "68": {"stimulus": 38, "trial": 68, "rt": 1126, "response": "Alpha"}, "69": {"stimulus": 0, "trial": 69, "rt": 909, "response": "Beta"}, "80": {"stimulus": 42, "trial": 80, "rt": 3247, "response": "Beta"}, "52": {"stimulus": 21, "trial": 52, "rt": 623, "response": "Beta"}, "53": {"stimulus": 58, "trial": 53, "rt": 1312, "response": "Alpha"}, "24": {"stimulus": 60, "trial": 24, "rt": 6053, "response": "Beta"}, "25": {"stimulus": 57, "trial": 25, "rt": 1293, "response": "Alpha"}, "26": {"stimulus": 46, "trial": 26, "rt": 1320, "response": "Alpha"}, "27": {"stimulus": 54, "trial": 27, "rt": 942, "response": "Alpha"}, "20": {"stimulus": 15, "trial": 20, "rt": 693, "response": "Beta"}, "21": {"stimulus": 66, "trial": 21, "rt": 5150, "response": "Alpha"}, "22": {"stimulus": 17, "trial": 22, "rt": 1229, "response": "Beta"}, "23": {"stimulus": 36, "trial": 23, "rt": 2303, "response": "Alpha"}, "46": {"stimulus": 30, "trial": 46, "rt": 1781, "response": "Beta"}, "47": {"stimulus": 49, "trial": 47, "rt": 1799, "response": "Alpha"}, "44": {"stimulus": 52, "trial": 44, "rt": 920, "response": "Beta"}, "45": {"stimulus": 20, "trial": 45, "rt": 1815, "response": "Beta"}, "28": {"stimulus": 31, "trial": 28, "rt": 1056, "response": "Beta"}, "29": {"stimulus": 67, "trial": 29, "rt": 1823, "response": "Alpha"}, "40": {"stimulus": 61, "trial": 40, "rt": 840, "response": "Beta"}, "41": {"stimulus": 39, "trial": 41, "rt": 1233, "response": "Alpha"}, "1": {"stimulus": 25, "trial": 1, "rt": 1414, "response": "Beta"}, "0": {"stimulus": 32, "trial": 0, "rt": 5536, "response": "Alpha"}, "3": {"stimulus": 70, "trial": 3, "rt": 3631, "response": "Alpha"}, "2": {"stimulus": 77, "trial": 2, "rt": 1398, "response": "Alpha"}, "5": {"stimulus": 40, "trial": 5, "rt": 1542, "response": "Alpha"}, "4": {"stimulus": 29, "trial": 4, "rt": 4398, "response": "Alpha"}, "7": {"stimulus": 6, "trial": 7, "rt": 1222, "response": "Beta"}, "6": {"stimulus": 34, "trial": 6, "rt": 1326, "response": "Beta"}, "9": {"stimulus": 68, "trial": 9, "rt": 7935, "response": "Alpha"}, "8": {"stimulus": 65, "trial": 8, "rt": 1197, "response": "Alpha"}, "78": {"stimulus": 56, "trial": 78, "rt": 1031, "response": "Alpha"}, "51": {"stimulus": 23, "trial": 51, "rt": 839, "response": "Beta"}, "39": {"stimulus": 51, "trial": 39, "rt": 943, "response": "Beta"}, "65": {"stimulus": 4, "trial": 65, "rt": 1135, "response": "Beta"}, "76": {"stimulus": 28, "trial": 76, "rt": 2719, "response": "Alpha"}, "75": {"stimulus": 41, "trial": 75, "rt": 2190, "response": "Alpha"}, "38": {"stimulus": 35, "trial": 38, "rt": 1054, "response": "Beta"}, "73": {"stimulus": 16, "trial": 73, "rt": 542, "response": "Beta"}, "72": {"stimulus": 13, "trial": 72, "rt": 701, "response": "Beta"}, "71": {"stimulus": 7, "trial": 71, "rt": 629, "response": "Beta"}, "70": {"stimulus": 71, "trial": 70, "rt": 983, "response": "Beta"}, "59": {"stimulus": 19, "trial": 59, "rt": 842, "response": "Beta"}, "79": {"stimulus": 5, "trial": 79, "rt": 957, "response": "Beta"}, "58": {"stimulus": 26, "trial": 58, "rt": 1013, "response": "Beta"}, "11": {"stimulus": 62, "trial": 11, "rt": 1233, "response": "Beta"}, "10": {"stimulus": 73, "trial": 10, "rt": 1392, "response": "Alpha"}, "13": {"stimulus": 74, "trial": 13, "rt": 2886, "response": "Alpha"}, "12": {"stimulus": 18, "trial": 12, "rt": 3853, "response": "Beta"}, "15": {"stimulus": 3, "trial": 15, "rt": 1350, "response": "Beta"}, "14": {"stimulus": 50, "trial": 14, "rt": 2014, "response": "Beta"}, "17": {"stimulus": 53, "trial": 17, "rt": 1167, "response": "Beta"}, "16": {"stimulus": 76, "trial": 16, "rt": 3615, "response": "Alpha"}, "19": {"stimulus": 12, "trial": 19, "rt": 886, "response": "Beta"}, "18": {"stimulus": 9, "trial": 18, "rt": 991, "response": "Beta"}, "31": {"stimulus": 59, "trial": 31, "rt": 4295, "response": "Beta"}, "30": {"stimulus": 78, "trial": 30, "rt": 1118, "response": "Beta"}, "37": {"stimulus": 72, "trial": 37, "rt": 1047, "response": "Alpha"}, "36": {"stimulus": 45, "trial": 36, "rt": 1200, "response": "Alpha"}, "35": {"stimulus": 22, "trial": 35, "rt": 1053, "response": "Beta"}, "34": {"stimulus": 27, "trial": 34, "rt": 2814, "response": "Beta"}, "33": {"stimulus": 8, "trial": 33, "rt": 1031, "response": "Beta"}, "55": {"stimulus": 48, "trial": 55, "rt": 1366, "response": "Alpha"}, "74": {"stimulus": 63, "trial": 74, "rt": 911, "response": "Alpha"}, "32": {"stimulus": 64, "trial": 32, "rt": 1319, "response": "Alpha"}, "57": {"stimulus": 75, "trial": 57, "rt": 1550, "response": "Alpha"}, "50": {"stimulus": 11, "trial": 50, "rt": 1358, "response": "Beta"}}, "experiment": {"Paradigm": "TACL", "Stimuli": "Size-Color Squares", "Experiment": "Generating-Multiple-Categories"}, "submit": {"timeTotal": 813541, "age": "27", "comments": "It was interesting. Thank you for the invitation", "sex": "Male"}}