{"info": {"participant": 9, "exposed": true, "lab": true, "start": 1534979055212, "counterbalance": 6, "gentype": 0, "condition": "Bottom", "browser": {"platform": "MacIntel", "userAgent": "Mozilla/5.0 (Macintosh; Intel Mac OS X 10.13; rv:61.0) Gecko/20100101 Firefox/61.0"}}, "observation": {"11": {"stimulus": 32, "trial": 11, "rt": 1439}, "10": {"stimulus": 14, "trial": 10, "rt": 1380}, "1": {"stimulus": 30, "trial": 1, "rt": 1456}, "0": {"stimulus": 14, "trial": 0, "rt": 1771}, "3": {"stimulus": 32, "trial": 3, "rt": 1424}, "2": {"stimulus": 12, "trial": 2, "rt": 1533}, "5": {"stimulus": 12, "trial": 5, "rt": 1463}, "4": {"stimulus": 14, "trial": 4, "rt": 1582}, "7": {"stimulus": 30, "trial": 7, "rt": 14714}, "6": {"stimulus": 32, "trial": 6, "rt": 1352}, "9": {"stimulus": 12, "trial": 9, "rt": 1335}, "8": {"stimulus": 30, "trial": 8, "rt": 1394}}, "generation": {"1": {"category": "Not-Alpha", "trial": 1, "stimulus": 11, "rt": 1958}, "0": {"category": "Not-Alpha", "trial": 0, "stimulus": 50, "rt": 1962}, "3": {"category": "Not-Alpha", "trial": 3, "stimulus": 48, "rt": 2356}, "2": {"category": "Not-Alpha", "trial": 2, "stimulus": 64, "rt": 2374}, "5": {"category": "Not-Alpha", "trial": 5, "stimulus": 7, "rt": 2918}, "4": {"category": "Not-Alpha", "trial": 4, "stimulus": 8, "rt": 2326}, "7": {"category": "Not-Alpha", "trial": 7, "stimulus": 28, "rt": 1267}, "6": {"category": "Not-Alpha", "trial": 6, "stimulus": 59, "rt": 2045}}, "generalization": {"56": {"stimulus": 73, "trial": 56, "rt": 482, "response": "Alpha"}, "77": {"stimulus": 74, "trial": 77, "rt": 420, "response": "Alpha"}, "54": {"stimulus": 16, "trial": 54, "rt": 378, "response": "Alpha"}, "42": {"stimulus": 12, "trial": 42, "rt": 351, "response": "Alpha"}, "48": {"stimulus": 42, "trial": 48, "rt": 314, "response": "Alpha"}, "43": {"stimulus": 53, "trial": 43, "rt": 297, "response": "Alpha"}, "60": {"stimulus": 17, "trial": 60, "rt": 411, "response": "Alpha"}, "61": {"stimulus": 34, "trial": 61, "rt": 385, "response": "Alpha"}, "62": {"stimulus": 64, "trial": 62, "rt": 385, "response": "Alpha"}, "63": {"stimulus": 26, "trial": 63, "rt": 275, "response": "Alpha"}, "64": {"stimulus": 9, "trial": 64, "rt": 301, "response": "Alpha"}, "49": {"stimulus": 37, "trial": 49, "rt": 224, "response": "Alpha"}, "66": {"stimulus": 19, "trial": 66, "rt": 521, "response": "Alpha"}, "67": {"stimulus": 28, "trial": 67, "rt": 345, "response": "Alpha"}, "68": {"stimulus": 2, "trial": 68, "rt": 348, "response": "Alpha"}, "69": {"stimulus": 15, "trial": 69, "rt": 346, "response": "Alpha"}, "80": {"stimulus": 50, "trial": 80, "rt": 331, "response": "Alpha"}, "52": {"stimulus": 38, "trial": 52, "rt": 313, "response": "Alpha"}, "53": {"stimulus": 31, "trial": 53, "rt": 280, "response": "Alpha"}, "24": {"stimulus": 70, "trial": 24, "rt": 260, "response": "Alpha"}, "25": {"stimulus": 57, "trial": 25, "rt": 257, "response": "Alpha"}, "26": {"stimulus": 60, "trial": 26, "rt": 215, "response": "Alpha"}, "27": {"stimulus": 72, "trial": 27, "rt": 344, "response": "Alpha"}, "20": {"stimulus": 40, "trial": 20, "rt": 187, "response": "Alpha"}, "21": {"stimulus": 58, "trial": 21, "rt": 271, "response": "Alpha"}, "22": {"stimulus": 35, "trial": 22, "rt": 277, "response": "Alpha"}, "23": {"stimulus": 66, "trial": 23, "rt": 282, "response": "Alpha"}, "46": {"stimulus": 10, "trial": 46, "rt": 246, "response": "Alpha"}, "47": {"stimulus": 36, "trial": 47, "rt": 326, "response": "Alpha"}, "44": {"stimulus": 14, "trial": 44, "rt": 308, "response": "Alpha"}, "45": {"stimulus": 4, "trial": 45, "rt": 356, "response": "Alpha"}, "28": {"stimulus": 13, "trial": 28, "rt": 371, "response": "Alpha"}, "29": {"stimulus": 30, "trial": 29, "rt": 243, "response": "Alpha"}, "40": {"stimulus": 43, "trial": 40, "rt": 362, "response": "Alpha"}, "41": {"stimulus": 23, "trial": 41, "rt": 321, "response": "Alpha"}, "1": {"stimulus": 6, "trial": 1, "rt": 367, "response": "Alpha"}, "0": {"stimulus": 46, "trial": 0, "rt": 770, "response": "Beta"}, "3": {"stimulus": 62, "trial": 3, "rt": 224, "response": "Alpha"}, "2": {"stimulus": 52, "trial": 2, "rt": 301, "response": "Alpha"}, "5": {"stimulus": 24, "trial": 5, "rt": 176, "response": "Alpha"}, "4": {"stimulus": 25, "trial": 4, "rt": 229, "response": "Alpha"}, "7": {"stimulus": 5, "trial": 7, "rt": 140, "response": "Alpha"}, "6": {"stimulus": 3, "trial": 6, "rt": 209, "response": "Alpha"}, "9": {"stimulus": 20, "trial": 9, "rt": 419, "response": "Alpha"}, "8": {"stimulus": 11, "trial": 8, "rt": 965, "response": "Alpha"}, "78": {"stimulus": 56, "trial": 78, "rt": 331, "response": "Alpha"}, "51": {"stimulus": 61, "trial": 51, "rt": 353, "response": "Alpha"}, "39": {"stimulus": 8, "trial": 39, "rt": 314, "response": "Alpha"}, "65": {"stimulus": 47, "trial": 65, "rt": 291, "response": "Alpha"}, "76": {"stimulus": 48, "trial": 76, "rt": 360, "response": "Alpha"}, "75": {"stimulus": 32, "trial": 75, "rt": 374, "response": "Alpha"}, "38": {"stimulus": 29, "trial": 38, "rt": 267, "response": "Alpha"}, "73": {"stimulus": 54, "trial": 73, "rt": 382, "response": "Alpha"}, "72": {"stimulus": 59, "trial": 72, "rt": 403, "response": "Alpha"}, "71": {"stimulus": 79, "trial": 71, "rt": 431, "response": "Alpha"}, "70": {"stimulus": 55, "trial": 70, "rt": 305, "response": "Alpha"}, "59": {"stimulus": 7, "trial": 59, "rt": 415, "response": "Alpha"}, "79": {"stimulus": 49, "trial": 79, "rt": 354, "response": "Alpha"}, "58": {"stimulus": 75, "trial": 58, "rt": 433, "response": "Alpha"}, "11": {"stimulus": 76, "trial": 11, "rt": 326, "response": "Alpha"}, "10": {"stimulus": 27, "trial": 10, "rt": 461, "response": "Alpha"}, "13": {"stimulus": 33, "trial": 13, "rt": 263, "response": "Alpha"}, "12": {"stimulus": 44, "trial": 12, "rt": 395, "response": "Alpha"}, "15": {"stimulus": 1, "trial": 15, "rt": 271, "response": "Alpha"}, "14": {"stimulus": 69, "trial": 14, "rt": 211, "response": "Alpha"}, "17": {"stimulus": 45, "trial": 17, "rt": 279, "response": "Alpha"}, "16": {"stimulus": 65, "trial": 16, "rt": 326, "response": "Alpha"}, "19": {"stimulus": 0, "trial": 19, "rt": 330, "response": "Alpha"}, "18": {"stimulus": 78, "trial": 18, "rt": 307, "response": "Alpha"}, "31": {"stimulus": 77, "trial": 31, "rt": 421, "response": "Alpha"}, "30": {"stimulus": 63, "trial": 30, "rt": 265, "response": "Alpha"}, "37": {"stimulus": 68, "trial": 37, "rt": 323, "response": "Alpha"}, "36": {"stimulus": 80, "trial": 36, "rt": 322, "response": "Alpha"}, "35": {"stimulus": 39, "trial": 35, "rt": 250, "response": "Alpha"}, "34": {"stimulus": 21, "trial": 34, "rt": 316, "response": "Alpha"}, "33": {"stimulus": 51, "trial": 33, "rt": 279, "response": "Alpha"}, "55": {"stimulus": 18, "trial": 55, "rt": 364, "response": "Alpha"}, "74": {"stimulus": 41, "trial": 74, "rt": 477, "response": "Alpha"}, "32": {"stimulus": 71, "trial": 32, "rt": 392, "response": "Alpha"}, "57": {"stimulus": 22, "trial": 57, "rt": 584, "response": "Alpha"}, "50": {"stimulus": 67, "trial": 50, "rt": 325, "response": "Alpha"}}, "experiment": {"Paradigm": "TACL", "Stimuli": "Size-Color Squares", "Experiment": "Generating-Multiple-Categories"}, "submit": {}}tegories"}, "submit": {}}