{"info": {"finish": 1535362884578, "participant": 91, "exposed": true, "lab": false, "start": 1535362401670, "counterbalance": 4, "gentype": 1, "condition": "Middle", "browser": {"platform": "Win64", "userAgent": "Mozilla/5.0 (Windows NT 6.1; Win64; x64; rv:61.0) Gecko/20100101 Firefox/61.0"}}, "observation": {"11": {"stimulus": 50, "trial": 11, "rt": 3051}, "10": {"stimulus": 48, "trial": 10, "rt": 3839}, "1": {"stimulus": 48, "trial": 1, "rt": 4173}, "0": {"stimulus": 30, "trial": 0, "rt": 8794}, "3": {"stimulus": 32, "trial": 3, "rt": 4069}, "2": {"stimulus": 50, "trial": 2, "rt": 4680}, "5": {"stimulus": 48, "trial": 5, "rt": 4222}, "4": {"stimulus": 50, "trial": 4, "rt": 4639}, "7": {"stimulus": 30, "trial": 7, "rt": 2898}, "6": {"stimulus": 32, "trial": 6, "rt": 4049}, "9": {"stimulus": 32, "trial": 9, "rt": 3032}, "8": {"stimulus": 30, "trial": 8, "rt": 3165}}, "generation": {"1": {"category": "Beta", "trial": 1, "stimulus": 26, "rt": 12587}, "0": {"category": "Beta", "trial": 0, "stimulus": 8, "rt": 47373}, "3": {"category": "Beta", "trial": 3, "stimulus": 53, "rt": 12709}, "2": {"category": "Beta", "trial": 2, "stimulus": 44, "rt": 12726}, "5": {"category": "Beta", "trial": 5, "stimulus": 71, "rt": 9114}, "4": {"category": "Beta", "trial": 4, "stimulus": 62, "rt": 10492}, "7": {"category": "Beta", "trial": 7, "stimulus": 17, "rt": 16266}, "6": {"category": "Beta", "trial": 6, "stimulus": 80, "rt": 13829}}, "generalization": {"56": {"stimulus": 62, "trial": 56, "rt": 5027, "response": "Alpha"}, "77": {"stimulus": 36, "trial": 77, "rt": 10519, "response": "Alpha"}, "54": {"stimulus": 17, "trial": 54, "rt": 1904, "response": "Beta"}, "42": {"stimulus": 55, "trial": 42, "rt": 1013, "response": "Alpha"}, "48": {"stimulus": 5, "trial": 48, "rt": 990, "response": "Alpha"}, "43": {"stimulus": 63, "trial": 43, "rt": 1121, "response": "Alpha"}, "60": {"stimulus": 51, "trial": 60, "rt": 856, "response": "Alpha"}, "61": {"stimulus": 52, "trial": 61, "rt": 891, "response": "Alpha"}, "62": {"stimulus": 1, "trial": 62, "rt": 956, "response": "Alpha"}, "63": {"stimulus": 76, "trial": 63, "rt": 878, "response": "Alpha"}, "64": {"stimulus": 60, "trial": 64, "rt": 1180, "response": "Alpha"}, "49": {"stimulus": 75, "trial": 49, "rt": 1020, "response": "Alpha"}, "66": {"stimulus": 27, "trial": 66, "rt": 992, "response": "Alpha"}, "67": {"stimulus": 29, "trial": 67, "rt": 1032, "response": "Alpha"}, "68": {"stimulus": 7, "trial": 68, "rt": 1387, "response": "Alpha"}, "69": {"stimulus": 19, "trial": 69, "rt": 951, "response": "Alpha"}, "80": {"stimulus": 42, "trial": 80, "rt": 1283, "response": "Alpha"}, "52": {"stimulus": 4, "trial": 52, "rt": 795, "response": "Alpha"}, "53": {"stimulus": 43, "trial": 53, "rt": 1488, "response": "Alpha"}, "24": {"stimulus": 68, "trial": 24, "rt": 1219, "response": "Alpha"}, "25": {"stimulus": 47, "trial": 25, "rt": 1149, "response": "Alpha"}, "26": {"stimulus": 20, "trial": 26, "rt": 1240, "response": "Alpha"}, "27": {"stimulus": 2, "trial": 27, "rt": 827, "response": "Alpha"}, "20": {"stimulus": 50, "trial": 20, "rt": 997, "response": "Alpha"}, "21": {"stimulus": 12, "trial": 21, "rt": 1184, "response": "Alpha"}, "22": {"stimulus": 38, "trial": 22, "rt": 1033, "response": "Alpha"}, "23": {"stimulus": 32, "trial": 23, "rt": 1103, "response": "Alpha"}, "46": {"stimulus": 34, "trial": 46, "rt": 1280, "response": "Alpha"}, "47": {"stimulus": 23, "trial": 47, "rt": 1036, "response": "Alpha"}, "44": {"stimulus": 33, "trial": 44, "rt": 1407, "response": "Alpha"}, "45": {"stimulus": 80, "trial": 45, "rt": 2944, "response": "Beta"}, "28": {"stimulus": 48, "trial": 28, "rt": 1200, "response": "Alpha"}, "29": {"stimulus": 53, "trial": 29, "rt": 1952, "response": "Beta"}, "40": {"stimulus": 24, "trial": 40, "rt": 1405, "response": "Alpha"}, "41": {"stimulus": 18, "trial": 41, "rt": 1011, "response": "Alpha"}, "1": {"stimulus": 65, "trial": 1, "rt": 1076, "response": "Alpha"}, "0": {"stimulus": 61, "trial": 0, "rt": 2504, "response": "Alpha"}, "3": {"stimulus": 26, "trial": 3, "rt": 1826, "response": "Beta"}, "2": {"stimulus": 69, "trial": 2, "rt": 1237, "response": "Alpha"}, "5": {"stimulus": 40, "trial": 5, "rt": 1014, "response": "Alpha"}, "4": {"stimulus": 3, "trial": 4, "rt": 1404, "response": "Alpha"}, "7": {"stimulus": 10, "trial": 7, "rt": 920, "response": "Alpha"}, "6": {"stimulus": 11, "trial": 6, "rt": 944, "response": "Alpha"}, "9": {"stimulus": 39, "trial": 9, "rt": 1188, "response": "Alpha"}, "8": {"stimulus": 16, "trial": 8, "rt": 1969, "response": "Alpha"}, "78": {"stimulus": 56, "trial": 78, "rt": 2300, "response": "Alpha"}, "51": {"stimulus": 37, "trial": 51, "rt": 793, "response": "Alpha"}, "39": {"stimulus": 73, "trial": 39, "rt": 1322, "response": "Alpha"}, "65": {"stimulus": 28, "trial": 65, "rt": 1008, "response": "Alpha"}, "76": {"stimulus": 45, "trial": 76, "rt": 1716, "response": "Alpha"}, "75": {"stimulus": 8, "trial": 75, "rt": 1611, "response": "Beta"}, "38": {"stimulus": 46, "trial": 38, "rt": 2117, "response": "Alpha"}, "73": {"stimulus": 41, "trial": 73, "rt": 980, "response": "Alpha"}, "72": {"stimulus": 30, "trial": 72, "rt": 1021, "response": "Alpha"}, "71": {"stimulus": 74, "trial": 71, "rt": 842, "response": "Alpha"}, "70": {"stimulus": 66, "trial": 70, "rt": 881, "response": "Alpha"}, "59": {"stimulus": 6, "trial": 59, "rt": 895, "response": "Alpha"}, "79": {"stimulus": 21, "trial": 79, "rt": 989, "response": "Alpha"}, "58": {"stimulus": 78, "trial": 58, "rt": 948, "response": "Alpha"}, "11": {"stimulus": 71, "trial": 11, "rt": 2800, "response": "Beta"}, "10": {"stimulus": 67, "trial": 10, "rt": 1606, "response": "Alpha"}, "13": {"stimulus": 31, "trial": 13, "rt": 871, "response": "Alpha"}, "12": {"stimulus": 49, "trial": 12, "rt": 1385, "response": "Alpha"}, "15": {"stimulus": 58, "trial": 15, "rt": 1538, "response": "Alpha"}, "14": {"stimulus": 59, "trial": 14, "rt": 1018, "response": "Alpha"}, "17": {"stimulus": 64, "trial": 17, "rt": 1214, "response": "Alpha"}, "16": {"stimulus": 14, "trial": 16, "rt": 1371, "response": "Alpha"}, "19": {"stimulus": 57, "trial": 19, "rt": 1472, "response": "Alpha"}, "18": {"stimulus": 44, "trial": 18, "rt": 2286, "response": "Beta"}, "31": {"stimulus": 79, "trial": 31, "rt": 1868, "response": "Alpha"}, "30": {"stimulus": 77, "trial": 30, "rt": 1391, "response": "Alpha"}, "37": {"stimulus": 35, "trial": 37, "rt": 2046, "response": "Beta"}, "36": {"stimulus": 54, "trial": 36, "rt": 1098, "response": "Alpha"}, "35": {"stimulus": 15, "trial": 35, "rt": 1293, "response": "Alpha"}, "34": {"stimulus": 13, "trial": 34, "rt": 1282, "response": "Alpha"}, "33": {"stimulus": 22, "trial": 33, "rt": 1119, "response": "Alpha"}, "55": {"stimulus": 0, "trial": 55, "rt": 1019, "response": "Alpha"}, "74": {"stimulus": 70, "trial": 74, "rt": 1200, "response": "Alpha"}, "32": {"stimulus": 72, "trial": 32, "rt": 886, "response": "Alpha"}, "57": {"stimulus": 25, "trial": 57, "rt": 1026, "response": "Alpha"}, "50": {"stimulus": 9, "trial": 50, "rt": 824, "response": "Alpha"}}, "experiment": {"Paradigm": "TACL", "Stimuli": "Size-Color Squares", "Experiment": "Generating-Multiple-Categories"}, "submit": {"timeTotal": 483157, "age": "70", "comments": "Thanks, interesting -- would love to know the purpose of this experiment! ", "sex": "Female"}}