{"info": {"finish": 1535364609070, "participant": 95, "exposed": true, "lab": false, "start": 1535364224667, "counterbalance": 2, "gentype": 1, "condition": "Middle", "browser": {"platform": "Win32", "userAgent": "Mozilla/5.0 (Windows NT 6.1; Win64; x64) AppleWebKit/537.36 (KHTML, like Gecko) Chrome/68.0.3440.106 Safari/537.36"}}, "observation": {"11": {"stimulus": 30, "trial": 11, "rt": 1509}, "10": {"stimulus": 48, "trial": 10, "rt": 1579}, "1": {"stimulus": 48, "trial": 1, "rt": 2111}, "0": {"stimulus": 32, "trial": 0, "rt": 3598}, "3": {"stimulus": 50, "trial": 3, "rt": 1718}, "2": {"stimulus": 30, "trial": 2, "rt": 1879}, "5": {"stimulus": 32, "trial": 5, "rt": 2121}, "4": {"stimulus": 50, "trial": 4, "rt": 1638}, "7": {"stimulus": 30, "trial": 7, "rt": 1671}, "6": {"stimulus": 48, "trial": 6, "rt": 1502}, "9": {"stimulus": 50, "trial": 9, "rt": 1493}, "8": {"stimulus": 32, "trial": 8, "rt": 1638}}, "generation": {"1": {"category": "Beta", "trial": 1, "stimulus": 69, "rt": 6829}, "0": {"category": "Beta", "trial": 0, "stimulus": 33, "rt": 28407}, "3": {"category": "Beta", "trial": 3, "stimulus": 43, "rt": 4393}, "2": {"category": "Beta", "trial": 2, "stimulus": 34, "rt": 8408}, "5": {"category": "Beta", "trial": 5, "stimulus": 62, "rt": 6086}, "4": {"category": "Beta", "trial": 4, "stimulus": 68, "rt": 4249}, "7": {"category": "Beta", "trial": 7, "stimulus": 42, "rt": 5204}, "6": {"category": "Beta", "trial": 6, "stimulus": 32, "rt": 4401}}, "generalization": {"56": {"stimulus": 80, "trial": 56, "rt": 1301, "response": "Beta"}, "77": {"stimulus": 29, "trial": 77, "rt": 937, "response": "Beta"}, "54": {"stimulus": 79, "trial": 54, "rt": 1241, "response": "Beta"}, "42": {"stimulus": 44, "trial": 42, "rt": 772, "response": "Alpha"}, "48": {"stimulus": 22, "trial": 48, "rt": 748, "response": "Beta"}, "43": {"stimulus": 78, "trial": 43, "rt": 1138, "response": "Beta"}, "60": {"stimulus": 57, "trial": 60, "rt": 669, "response": "Alpha"}, "61": {"stimulus": 24, "trial": 61, "rt": 1003, "response": "Beta"}, "62": {"stimulus": 26, "trial": 62, "rt": 713, "response": "Beta"}, "63": {"stimulus": 39, "trial": 63, "rt": 1136, "response": "Alpha"}, "64": {"stimulus": 45, "trial": 64, "rt": 661, "response": "Alpha"}, "49": {"stimulus": 67, "trial": 49, "rt": 1697, "response": "Alpha"}, "66": {"stimulus": 13, "trial": 66, "rt": 1031, "response": "Beta"}, "67": {"stimulus": 73, "trial": 67, "rt": 960, "response": "Alpha"}, "68": {"stimulus": 20, "trial": 68, "rt": 1143, "response": "Beta"}, "69": {"stimulus": 75, "trial": 69, "rt": 4869, "response": "Beta"}, "80": {"stimulus": 28, "trial": 80, "rt": 1570, "response": "Beta"}, "52": {"stimulus": 7, "trial": 52, "rt": 808, "response": "Beta"}, "53": {"stimulus": 41, "trial": 53, "rt": 837, "response": "Alpha"}, "24": {"stimulus": 3, "trial": 24, "rt": 855, "response": "Beta"}, "25": {"stimulus": 46, "trial": 25, "rt": 808, "response": "Alpha"}, "26": {"stimulus": 11, "trial": 26, "rt": 798, "response": "Beta"}, "27": {"stimulus": 25, "trial": 27, "rt": 910, "response": "Beta"}, "20": {"stimulus": 53, "trial": 20, "rt": 2662, "response": "Alpha"}, "21": {"stimulus": 23, "trial": 21, "rt": 23396, "response": "Beta"}, "22": {"stimulus": 51, "trial": 22, "rt": 788, "response": "Alpha"}, "23": {"stimulus": 12, "trial": 23, "rt": 871, "response": "Beta"}, "46": {"stimulus": 40, "trial": 46, "rt": 1539, "response": "Alpha"}, "47": {"stimulus": 16, "trial": 47, "rt": 907, "response": "Beta"}, "44": {"stimulus": 62, "trial": 44, "rt": 1080, "response": "Alpha"}, "45": {"stimulus": 18, "trial": 45, "rt": 1183, "response": "Beta"}, "28": {"stimulus": 36, "trial": 28, "rt": 817, "response": "Alpha"}, "29": {"stimulus": 37, "trial": 29, "rt": 717, "response": "Alpha"}, "40": {"stimulus": 10, "trial": 40, "rt": 970, "response": "Beta"}, "41": {"stimulus": 65, "trial": 41, "rt": 1008, "response": "Alpha"}, "1": {"stimulus": 5, "trial": 1, "rt": 1958, "response": "Beta"}, "0": {"stimulus": 55, "trial": 0, "rt": 3187, "response": "Alpha"}, "3": {"stimulus": 72, "trial": 3, "rt": 3120, "response": "Beta"}, "2": {"stimulus": 50, "trial": 2, "rt": 1217, "response": "Alpha"}, "5": {"stimulus": 35, "trial": 5, "rt": 1120, "response": "Alpha"}, "4": {"stimulus": 17, "trial": 4, "rt": 1184, "response": "Beta"}, "7": {"stimulus": 70, "trial": 7, "rt": 736, "response": "Alpha"}, "6": {"stimulus": 69, "trial": 6, "rt": 951, "response": "Alpha"}, "9": {"stimulus": 56, "trial": 9, "rt": 5294, "response": "Beta"}, "8": {"stimulus": 0, "trial": 8, "rt": 1145, "response": "Beta"}, "78": {"stimulus": 58, "trial": 78, "rt": 1479, "response": "Alpha"}, "51": {"stimulus": 32, "trial": 51, "rt": 1078, "response": "Alpha"}, "39": {"stimulus": 77, "trial": 39, "rt": 1264, "response": "Beta"}, "65": {"stimulus": 64, "trial": 65, "rt": 794, "response": "Alpha"}, "76": {"stimulus": 31, "trial": 76, "rt": 909, "response": "Beta"}, "75": {"stimulus": 34, "trial": 75, "rt": 2272, "response": "Beta"}, "38": {"stimulus": 54, "trial": 38, "rt": 727, "response": "Alpha"}, "73": {"stimulus": 68, "trial": 73, "rt": 1448, "response": "Alpha"}, "72": {"stimulus": 21, "trial": 72, "rt": 1911, "response": "Beta"}, "71": {"stimulus": 6, "trial": 71, "rt": 744, "response": "Beta"}, "70": {"stimulus": 27, "trial": 70, "rt": 1608, "response": "Alpha"}, "59": {"stimulus": 52, "trial": 59, "rt": 614, "response": "Alpha"}, "79": {"stimulus": 61, "trial": 79, "rt": 680, "response": "Alpha"}, "58": {"stimulus": 60, "trial": 58, "rt": 977, "response": "Alpha"}, "11": {"stimulus": 14, "trial": 11, "rt": 3032, "response": "Alpha"}, "10": {"stimulus": 76, "trial": 10, "rt": 1206, "response": "Alpha"}, "13": {"stimulus": 74, "trial": 13, "rt": 638, "response": "Beta"}, "12": {"stimulus": 19, "trial": 12, "rt": 1032, "response": "Beta"}, "15": {"stimulus": 59, "trial": 15, "rt": 1225, "response": "Alpha"}, "14": {"stimulus": 2, "trial": 14, "rt": 767, "response": "Beta"}, "17": {"stimulus": 38, "trial": 17, "rt": 1692, "response": "Beta"}, "16": {"stimulus": 33, "trial": 16, "rt": 613, "response": "Alpha"}, "19": {"stimulus": 9, "trial": 19, "rt": 1007, "response": "Beta"}, "18": {"stimulus": 43, "trial": 18, "rt": 1174, "response": "Alpha"}, "31": {"stimulus": 71, "trial": 31, "rt": 810, "response": "Alpha"}, "30": {"stimulus": 47, "trial": 30, "rt": 645, "response": "Alpha"}, "37": {"stimulus": 42, "trial": 37, "rt": 783, "response": "Alpha"}, "36": {"stimulus": 30, "trial": 36, "rt": 1113, "response": "Alpha"}, "35": {"stimulus": 66, "trial": 35, "rt": 725, "response": "Alpha"}, "34": {"stimulus": 8, "trial": 34, "rt": 1179, "response": "Beta"}, "33": {"stimulus": 48, "trial": 33, "rt": 885, "response": "Alpha"}, "55": {"stimulus": 49, "trial": 55, "rt": 1536, "response": "Alpha"}, "74": {"stimulus": 63, "trial": 74, "rt": 793, "response": "Alpha"}, "32": {"stimulus": 15, "trial": 32, "rt": 840, "response": "Beta"}, "57": {"stimulus": 1, "trial": 57, "rt": 1104, "response": "Beta"}, "50": {"stimulus": 4, "trial": 50, "rt": 1208, "response": "Beta"}}, "experiment": {"Paradigm": "TACL", "Stimuli": "Size-Color Squares", "Experiment": "Generating-Multiple-Categories"}, "submit": {"timeTotal": 384612, "age": "38", "comments": "I don't think alpha and beta actually meant anything. I presume you were just seeing what conclusion we leapt to based on the first series.", "sex": "male"}}