{"info": {"finish": 1535364777791, "participant": 96, "exposed": true, "lab": false, "start": 1535364376433, "counterbalance": 6, "gentype": 0, "condition": "Middle", "browser": {"platform": "Win32", "userAgent": "Mozilla/5.0 (Windows NT 10.0; Win64; x64) AppleWebKit/537.36 (KHTML, like Gecko) Chrome/68.0.3440.106 Safari/537.36"}}, "observation": {"11": {"stimulus": 32, "trial": 11, "rt": 2239}, "10": {"stimulus": 50, "trial": 10, "rt": 1598}, "1": {"stimulus": 50, "trial": 1, "rt": 3358}, "0": {"stimulus": 48, "trial": 0, "rt": 4631}, "3": {"stimulus": 30, "trial": 3, "rt": 2030}, "2": {"stimulus": 32, "trial": 2, "rt": 2858}, "5": {"stimulus": 48, "trial": 5, "rt": 2278}, "4": {"stimulus": 50, "trial": 4, "rt": 2266}, "7": {"stimulus": 30, "trial": 7, "rt": 2306}, "6": {"stimulus": 32, "trial": 6, "rt": 2154}, "9": {"stimulus": 48, "trial": 9, "rt": 1643}, "8": {"stimulus": 30, "trial": 8, "rt": 1875}}, "generation": {"1": {"category": "Not-Alpha", "trial": 1, "stimulus": 72, "rt": 7344}, "0": {"category": "Not-Alpha", "trial": 0, "stimulus": 73, "rt": 16097}, "3": {"category": "Not-Alpha", "trial": 3, "stimulus": 0, "rt": 5887}, "2": {"category": "Not-Alpha", "trial": 2, "stimulus": 8, "rt": 5393}, "5": {"category": "Not-Alpha", "trial": 5, "stimulus": 1, "rt": 8657}, "4": {"category": "Not-Alpha", "trial": 4, "stimulus": 80, "rt": 5111}, "7": {"category": "Not-Alpha", "trial": 7, "stimulus": 71, "rt": 13835}, "6": {"category": "Not-Alpha", "trial": 6, "stimulus": 7, "rt": 11584}}, "generalization": {"56": {"stimulus": 51, "trial": 56, "rt": 1035, "response": "Alpha"}, "77": {"stimulus": 68, "trial": 77, "rt": 988, "response": "Alpha"}, "54": {"stimulus": 78, "trial": 54, "rt": 1589, "response": "Alpha"}, "42": {"stimulus": 56, "trial": 42, "rt": 908, "response": "Alpha"}, "48": {"stimulus": 23, "trial": 48, "rt": 1199, "response": "Alpha"}, "43": {"stimulus": 47, "trial": 43, "rt": 925, "response": "Alpha"}, "60": {"stimulus": 76, "trial": 60, "rt": 1180, "response": "Alpha"}, "61": {"stimulus": 38, "trial": 61, "rt": 1296, "response": "Alpha"}, "62": {"stimulus": 59, "trial": 62, "rt": 1239, "response": "Alpha"}, "63": {"stimulus": 7, "trial": 63, "rt": 1412, "response": "Beta"}, "64": {"stimulus": 14, "trial": 64, "rt": 1596, "response": "Alpha"}, "49": {"stimulus": 65, "trial": 49, "rt": 1258, "response": "Alpha"}, "66": {"stimulus": 33, "trial": 66, "rt": 1076, "response": "Alpha"}, "67": {"stimulus": 31, "trial": 67, "rt": 990, "response": "Alpha"}, "68": {"stimulus": 8, "trial": 68, "rt": 1108, "response": "Beta"}, "69": {"stimulus": 2, "trial": 69, "rt": 822, "response": "Alpha"}, "80": {"stimulus": 41, "trial": 80, "rt": 1087, "response": "Alpha"}, "52": {"stimulus": 37, "trial": 52, "rt": 1161, "response": "Beta"}, "53": {"stimulus": 6, "trial": 53, "rt": 1110, "response": "Alpha"}, "24": {"stimulus": 58, "trial": 24, "rt": 1277, "response": "Alpha"}, "25": {"stimulus": 50, "trial": 25, "rt": 1331, "response": "Alpha"}, "26": {"stimulus": 69, "trial": 26, "rt": 2456, "response": "Alpha"}, "27": {"stimulus": 10, "trial": 27, "rt": 1147, "response": "Beta"}, "20": {"stimulus": 34, "trial": 20, "rt": 1489, "response": "Alpha"}, "21": {"stimulus": 73, "trial": 21, "rt": 1251, "response": "Beta"}, "22": {"stimulus": 57, "trial": 22, "rt": 2567, "response": "Alpha"}, "23": {"stimulus": 79, "trial": 23, "rt": 1991, "response": "Beta"}, "46": {"stimulus": 13, "trial": 46, "rt": 1809, "response": "Alpha"}, "47": {"stimulus": 74, "trial": 47, "rt": 1097, "response": "Alpha"}, "44": {"stimulus": 77, "trial": 44, "rt": 1531, "response": "Alpha"}, "45": {"stimulus": 67, "trial": 45, "rt": 1163, "response": "Alpha"}, "28": {"stimulus": 30, "trial": 28, "rt": 3288, "response": "Alpha"}, "29": {"stimulus": 32, "trial": 29, "rt": 2129, "response": "Alpha"}, "40": {"stimulus": 18, "trial": 40, "rt": 1073, "response": "Beta"}, "41": {"stimulus": 40, "trial": 41, "rt": 1030, "response": "Alpha"}, "1": {"stimulus": 25, "trial": 1, "rt": 2486, "response": "Alpha"}, "0": {"stimulus": 64, "trial": 0, "rt": 2409, "response": "Beta"}, "3": {"stimulus": 4, "trial": 3, "rt": 2829, "response": "Beta"}, "2": {"stimulus": 66, "trial": 2, "rt": 3238, "response": "Alpha"}, "5": {"stimulus": 75, "trial": 5, "rt": 5578, "response": "Alpha"}, "4": {"stimulus": 72, "trial": 4, "rt": 1134, "response": "Beta"}, "7": {"stimulus": 43, "trial": 7, "rt": 1317, "response": "Alpha"}, "6": {"stimulus": 60, "trial": 6, "rt": 1875, "response": "Alpha"}, "9": {"stimulus": 71, "trial": 9, "rt": 1679, "response": "Beta"}, "8": {"stimulus": 27, "trial": 8, "rt": 1090, "response": "Beta"}, "78": {"stimulus": 11, "trial": 78, "rt": 1014, "response": "Alpha"}, "51": {"stimulus": 17, "trial": 51, "rt": 1055, "response": "Alpha"}, "39": {"stimulus": 55, "trial": 39, "rt": 1272, "response": "Beta"}, "65": {"stimulus": 45, "trial": 65, "rt": 1001, "response": "Beta"}, "76": {"stimulus": 21, "trial": 76, "rt": 1078, "response": "Alpha"}, "75": {"stimulus": 80, "trial": 75, "rt": 995, "response": "Beta"}, "38": {"stimulus": 19, "trial": 38, "rt": 1124, "response": "Beta"}, "73": {"stimulus": 44, "trial": 73, "rt": 957, "response": "Beta"}, "72": {"stimulus": 24, "trial": 72, "rt": 1076, "response": "Alpha"}, "71": {"stimulus": 61, "trial": 71, "rt": 2289, "response": "Beta"}, "70": {"stimulus": 15, "trial": 70, "rt": 3504, "response": "Alpha"}, "59": {"stimulus": 16, "trial": 59, "rt": 1513, "response": "Alpha"}, "79": {"stimulus": 39, "trial": 79, "rt": 884, "response": "Alpha"}, "58": {"stimulus": 36, "trial": 58, "rt": 1175, "response": "Beta"}, "11": {"stimulus": 3, "trial": 11, "rt": 1820, "response": "Beta"}, "10": {"stimulus": 52, "trial": 10, "rt": 1421, "response": "Alpha"}, "13": {"stimulus": 26, "trial": 13, "rt": 1869, "response": "Beta"}, "12": {"stimulus": 53, "trial": 12, "rt": 4037, "response": "Alpha"}, "15": {"stimulus": 48, "trial": 15, "rt": 1190, "response": "Alpha"}, "14": {"stimulus": 49, "trial": 14, "rt": 1428, "response": "Alpha"}, "17": {"stimulus": 28, "trial": 17, "rt": 1282, "response": "Beta"}, "16": {"stimulus": 20, "trial": 16, "rt": 2098, "response": "Beta"}, "19": {"stimulus": 22, "trial": 19, "rt": 1181, "response": "Alpha"}, "18": {"stimulus": 54, "trial": 18, "rt": 747, "response": "Beta"}, "31": {"stimulus": 5, "trial": 31, "rt": 2529, "response": "Alpha"}, "30": {"stimulus": 35, "trial": 30, "rt": 1306, "response": "Beta"}, "37": {"stimulus": 63, "trial": 37, "rt": 980, "response": "Beta"}, "36": {"stimulus": 1, "trial": 36, "rt": 1435, "response": "Beta"}, "35": {"stimulus": 62, "trial": 35, "rt": 2787, "response": "Beta"}, "34": {"stimulus": 29, "trial": 34, "rt": 1104, "response": "Alpha"}, "33": {"stimulus": 12, "trial": 33, "rt": 1208, "response": "Alpha"}, "55": {"stimulus": 42, "trial": 55, "rt": 1397, "response": "Alpha"}, "74": {"stimulus": 9, "trial": 74, "rt": 1035, "response": "Beta"}, "32": {"stimulus": 0, "trial": 32, "rt": 917, "response": "Beta"}, "57": {"stimulus": 70, "trial": 57, "rt": 1645, "response": "Alpha"}, "50": {"stimulus": 46, "trial": 50, "rt": 1071, "response": "Beta"}}, "experiment": {"Paradigm": "TACL", "Stimuli": "Size-Color Squares", "Experiment": "Generating-Multiple-Categories"}, "submit": {"timeTotal": 401891, "age": "27", "comments": "It was interesting.", "sex": "Female"}}