{"info": {"finish": 1520921805218, "participant": 0, "exposed": true, "stimuli": [30, 32, 48, 50, 8, 80, 0, 72], "lab": false, "pptmatch": 0, "start": 1520921503747, "catflip": false, "categories": [0, 0, 0, 0, 1, 1, 1, 1], "counterbalance": 2, "condition": "Middle", "browser": {"platform": "MacIntel", "userAgent": "Mozilla/5.0 (Macintosh; Intel Mac OS X 10_12_6) AppleWebKit/537.36 (KHTML, like Gecko) Chrome/64.0.3282.167 Safari/537.36"}}, "assignment": {"24": {"stimulus": 0, "trial": 24, "rt": 1655, "correctcat": 1, "response": 1}, "25": {"stimulus": 72, "trial": 25, "rt": 563, "correctcat": 1, "response": 1}, "26": {"stimulus": 80, "trial": 26, "rt": 1022, "correctcat": 1, "response": 1}, "27": {"stimulus": 30, "trial": 27, "rt": 879, "correctcat": 0, "response": 0}, "20": {"stimulus": 80, "trial": 20, "rt": 1283, "correctcat": 1, "response": 1}, "21": {"stimulus": 8, "trial": 21, "rt": 836, "correctcat": 1, "response": 1}, "22": {"stimulus": 50, "trial": 22, "rt": 753, "correctcat": 0, "response": 0}, "23": {"stimulus": 72, "trial": 23, "rt": 907, "correctcat": 1, "response": 1}, "28": {"stimulus": 48, "trial": 28, "rt": 694, "correctcat": 0, "response": 0}, "29": {"stimulus": 50, "trial": 29, "rt": 1140, "correctcat": 0, "response": 0}, "1": {"stimulus": 50, "trial": 1, "rt": 826, "correctcat": 0, "response": 0}, "0": {"stimulus": 8, "trial": 0, "rt": 4645, "correctcat": 1, "response": 1}, "3": {"stimulus": 0, "trial": 3, "rt": 1229, "correctcat": 1, "response": 1}, "2": {"stimulus": 72, "trial": 2, "rt": 741, "correctcat": 1, "response": 0}, "5": {"stimulus": 48, "trial": 5, "rt": 943, "correctcat": 0, "response": 0}, "4": {"stimulus": 80, "trial": 4, "rt": 867, "correctcat": 1, "response": 1}, "7": {"stimulus": 30, "trial": 7, "rt": 742, "correctcat": 0, "response": 0}, "6": {"stimulus": 32, "trial": 6, "rt": 578, "correctcat": 0, "response": 0}, "9": {"stimulus": 50, "trial": 9, "rt": 913, "correctcat": 0, "response": 0}, "8": {"stimulus": 80, "trial": 8, "rt": 1133, "correctcat": 1, "response": 1}, "11": {"stimulus": 8, "trial": 11, "rt": 891, "correctcat": 1, "response": 1}, "10": {"stimulus": 32, "trial": 10, "rt": 1469, "correctcat": 0, "response": 0}, "13": {"stimulus": 0, "trial": 13, "rt": 1309, "correctcat": 1, "response": 1}, "12": {"stimulus": 72, "trial": 12, "rt": 1381, "correctcat": 1, "response": 1}, "15": {"stimulus": 48, "trial": 15, "rt": 599, "correctcat": 0, "response": 0}, "14": {"stimulus": 30, "trial": 14, "rt": 2182, "correctcat": 0, "response": 0}, "17": {"stimulus": 30, "trial": 17, "rt": 788, "correctcat": 0, "response": 0}, "16": {"stimulus": 48, "trial": 16, "rt": 596, "correctcat": 0, "response": 0}, "19": {"stimulus": 32, "trial": 19, "rt": 1346, "correctcat": 0, "response": 1}, "18": {"stimulus": 0, "trial": 18, "rt": 1068, "correctcat": 1, "response": 1}, "31": {"stimulus": 32, "trial": 31, "rt": 2294, "correctcat": 0, "response": 0}, "30": {"stimulus": 8, "trial": 30, "rt": 859, "correctcat": 1, "response": 1}}, "experiment": {"Paradigm": "TACL", "Stimuli": "Size-Color Squares", "Experiment": "Assigning-Generated-Categories"}, "goodness": {"1": {"stimulus": 72, "trial": 1, "categoryRate": "NA", "rt": 2565, "rating": 0}, "0": {"stimulus": 48, "trial": 0, "categoryRate": "NA", "rt": 12966, "rating": 10}, "3": {"stimulus": 50, "trial": 3, "categoryRate": "NA", "rt": 1864, "rating": 10}, "2": {"stimulus": 8, "trial": 2, "categoryRate": "NA", "rt": 2094, "rating": 0}, "5": {"stimulus": 32, "trial": 5, "categoryRate": "NA", "rt": 1650, "rating": 10}, "4": {"stimulus": 0, "trial": 4, "categoryRate": "NA", "rt": 1658, "rating": 0}, "7": {"stimulus": 80, "trial": 7, "categoryRate": "NA", "rt": 3356, "rating": 10}, "6": {"stimulus": 30, "trial": 6, "categoryRate": "NA", "rt": 4283, "rating": 10}, "9": {"stimulus": -1, "trial": 9, "categoryRate": "Alpha", "rt": 25423, "rating": 6}, "8": {"stimulus": -1, "trial": 8, "categoryRate": "Beta", "rt": 12986, "rating": 5}}, "submit": {"timeTotal": 418066, "age": "23", "comments": "", "sex": "female"}}