{"info": {"finish": 1521102283021, "participant": 101, "exposed": true, "stimuli": [12, 14, 30, 32, 71, 80, 52, 8], "lab": false, "pptmatch": 101, "start": 1521101145045, "catflip": true, "categories": [1, 1, 1, 1, 0, 0, 0, 0], "counterbalance": 4, "condition": "Bottom", "browser": {"platform": "Win32", "userAgent": "Mozilla/5.0 (Windows NT 6.1; Win64; x64) AppleWebKit/537.36 (KHTML, like Gecko) Chrome/64.0.3282.186 Safari/537.36"}}, "assignment": {"24": {"stimulus": 80, "trial": 24, "rt": 803, "correctcat": 0, "response": 0}, "25": {"stimulus": 8, "trial": 25, "rt": 950, "correctcat": 0, "response": 0}, "26": {"stimulus": 52, "trial": 26, "rt": 663, "correctcat": 0, "response": 1}, "27": {"stimulus": 30, "trial": 27, "rt": 879, "correctcat": 1, "response": 1}, "20": {"stimulus": 30, "trial": 20, "rt": 543, "correctcat": 1, "response": 1}, "21": {"stimulus": 80, "trial": 21, "rt": 750, "correctcat": 0, "response": 0}, "22": {"stimulus": 32, "trial": 22, "rt": 666, "correctcat": 1, "response": 1}, "23": {"stimulus": 71, "trial": 23, "rt": 21136, "correctcat": 0, "response": 0}, "28": {"stimulus": 32, "trial": 28, "rt": 613, "correctcat": 1, "response": 1}, "29": {"stimulus": 12, "trial": 29, "rt": 604, "correctcat": 1, "response": 1}, "1": {"stimulus": 71, "trial": 1, "rt": 1444, "correctcat": 0, "response": 0}, "0": {"stimulus": 52, "trial": 0, "rt": 5343, "correctcat": 0, "response": 0}, "3": {"stimulus": 80, "trial": 3, "rt": 861, "correctcat": 0, "response": 0}, "2": {"stimulus": 8, "trial": 2, "rt": 1136, "correctcat": 0, "response": 1}, "5": {"stimulus": 12, "trial": 5, "rt": 949, "correctcat": 1, "response": 1}, "4": {"stimulus": 32, "trial": 4, "rt": 1095, "correctcat": 1, "response": 1}, "7": {"stimulus": 30, "trial": 7, "rt": 913, "correctcat": 1, "response": 1}, "6": {"stimulus": 14, "trial": 6, "rt": 782, "correctcat": 1, "response": 1}, "9": {"stimulus": 8, "trial": 9, "rt": 1914, "correctcat": 0, "response": 0}, "8": {"stimulus": 80, "trial": 8, "rt": 814, "correctcat": 0, "response": 0}, "11": {"stimulus": 71, "trial": 11, "rt": 920, "correctcat": 0, "response": 0}, "10": {"stimulus": 32, "trial": 10, "rt": 675, "correctcat": 1, "response": 1}, "13": {"stimulus": 12, "trial": 13, "rt": 676, "correctcat": 1, "response": 1}, "12": {"stimulus": 14, "trial": 12, "rt": 832, "correctcat": 1, "response": 1}, "15": {"stimulus": 30, "trial": 15, "rt": 2070, "correctcat": 1, "response": 1}, "14": {"stimulus": 52, "trial": 14, "rt": 1504, "correctcat": 0, "response": 0}, "17": {"stimulus": 12, "trial": 17, "rt": 632, "correctcat": 1, "response": 1}, "16": {"stimulus": 52, "trial": 16, "rt": 736, "correctcat": 0, "response": 0}, "19": {"stimulus": 8, "trial": 19, "rt": 664, "correctcat": 0, "response": 0}, "18": {"stimulus": 14, "trial": 18, "rt": 623, "correctcat": 1, "response": 1}, "31": {"stimulus": 14, "trial": 31, "rt": 2463, "correctcat": 1, "response": 1}, "30": {"stimulus": 71, "trial": 30, "rt": 868, "correctcat": 0, "response": 0}}, "experiment": {"Paradigm": "TACL", "Stimuli": "Size-Color Squares", "Experiment": "Assigning-Generated-Categories"}, "goodness": {"1": {"stimulus": 8, "trial": 1, "categoryRate": "NA", "rt": 1968, "rating": 3}, "0": {"stimulus": 12, "trial": 0, "categoryRate": "NA", "rt": 13576, "rating": 6}, "3": {"stimulus": 30, "trial": 3, "categoryRate": "NA", "rt": 1528, "rating": 6}, "2": {"stimulus": 52, "trial": 2, "categoryRate": "NA", "rt": 2899, "rating": 7}, "5": {"stimulus": 71, "trial": 5, "categoryRate": "NA", "rt": 1666, "rating": 7}, "4": {"stimulus": 32, "trial": 4, "categoryRate": "NA", "rt": 2115, "rating": 6}, "7": {"stimulus": 80, "trial": 7, "categoryRate": "NA", "rt": 1742, "rating": 8}, "6": {"stimulus": 14, "trial": 6, "categoryRate": "NA", "rt": 1653, "rating": 3}, "9": {"stimulus": -1, "trial": 9, "categoryRate": "Beta", "rt": 5467, "rating": 4}, "8": {"stimulus": -1, "trial": 8, "categoryRate": "Alpha", "rt": 12981, "rating": 8}}, "submit": {"timeTotal": 1138228, "age": "24", "comments": "That was a fun little task to warm up my brain.", "sex": "Male"}}