{"info": {"finish": 1521101437638, "participant": 103, "exposed": true, "stimuli": [30, 32, 48, 50, 17, 8, 16, 7], "lab": false, "pptmatch": 103, "start": 1521101168580, "catflip": false, "categories": [0, 0, 0, 0, 1, 1, 1, 1], "counterbalance": 2, "condition": "Middle", "browser": {"platform": "iPhone", "userAgent": "Mozilla/5.0 (iPhone; CPU iPhone OS 11_2_6 like Mac OS X) AppleWebKit/604.5.6 (KHTML, like Gecko) Version/11.0 Mobile/15D100 Safari/604.1"}}, "assignment": {"24": {"stimulus": 17, "trial": 24, "rt": 629, "correctcat": 1, "response": 1}, "25": {"stimulus": 50, "trial": 25, "rt": 815, "correctcat": 0, "response": 0}, "26": {"stimulus": 48, "trial": 26, "rt": 726, "correctcat": 0, "response": 0}, "27": {"stimulus": 8, "trial": 27, "rt": 1487, "correctcat": 1, "response": 1}, "20": {"stimulus": 8, "trial": 20, "rt": 596, "correctcat": 1, "response": 1}, "21": {"stimulus": 50, "trial": 21, "rt": 562, "correctcat": 0, "response": 0}, "22": {"stimulus": 32, "trial": 22, "rt": 701, "correctcat": 0, "response": 0}, "23": {"stimulus": 16, "trial": 23, "rt": 1114, "correctcat": 1, "response": 0}, "28": {"stimulus": 32, "trial": 28, "rt": 774, "correctcat": 0, "response": 0}, "29": {"stimulus": 30, "trial": 29, "rt": 661, "correctcat": 0, "response": 0}, "1": {"stimulus": 48, "trial": 1, "rt": 1351, "correctcat": 0, "response": 0}, "0": {"stimulus": 50, "trial": 0, "rt": 3950, "correctcat": 0, "response": 1}, "3": {"stimulus": 8, "trial": 3, "rt": 688, "correctcat": 1, "response": 1}, "2": {"stimulus": 17, "trial": 2, "rt": 838, "correctcat": 1, "response": 1}, "5": {"stimulus": 30, "trial": 5, "rt": 559, "correctcat": 0, "response": 0}, "4": {"stimulus": 32, "trial": 4, "rt": 703, "correctcat": 0, "response": 0}, "7": {"stimulus": 7, "trial": 7, "rt": 800, "correctcat": 1, "response": 1}, "6": {"stimulus": 16, "trial": 6, "rt": 679, "correctcat": 1, "response": 1}, "9": {"stimulus": 30, "trial": 9, "rt": 1408, "correctcat": 0, "response": 0}, "8": {"stimulus": 8, "trial": 8, "rt": 1314, "correctcat": 1, "response": 1}, "11": {"stimulus": 16, "trial": 11, "rt": 597, "correctcat": 1, "response": 1}, "10": {"stimulus": 48, "trial": 10, "rt": 1003, "correctcat": 0, "response": 0}, "13": {"stimulus": 7, "trial": 13, "rt": 558, "correctcat": 1, "response": 1}, "12": {"stimulus": 50, "trial": 12, "rt": 864, "correctcat": 0, "response": 0}, "15": {"stimulus": 17, "trial": 15, "rt": 555, "correctcat": 1, "response": 1}, "14": {"stimulus": 32, "trial": 14, "rt": 689, "correctcat": 0, "response": 1}, "17": {"stimulus": 30, "trial": 17, "rt": 684, "correctcat": 0, "response": 0}, "16": {"stimulus": 17, "trial": 16, "rt": 514, "correctcat": 1, "response": 1}, "19": {"stimulus": 48, "trial": 19, "rt": 691, "correctcat": 0, "response": 0}, "18": {"stimulus": 7, "trial": 18, "rt": 568, "correctcat": 1, "response": 1}, "31": {"stimulus": 16, "trial": 31, "rt": 1097, "correctcat": 1, "response": 1}, "30": {"stimulus": 7, "trial": 30, "rt": 934, "correctcat": 1, "response": 0}}, "experiment": {"Paradigm": "TACL", "Stimuli": "Size-Color Squares", "Experiment": "Assigning-Generated-Categories"}, "goodness": {"1": {"stimulus": 16, "trial": 1, "categoryRate": "NA", "rt": 4182, "rating": 10}, "0": {"stimulus": 8, "trial": 0, "categoryRate": "NA", "rt": 11158, "rating": 9}, "3": {"stimulus": 32, "trial": 3, "categoryRate": "NA", "rt": 1713, "rating": 7}, "2": {"stimulus": 48, "trial": 2, "categoryRate": "NA", "rt": 2852, "rating": 7}, "5": {"stimulus": 7, "trial": 5, "categoryRate": "NA", "rt": 2308, "rating": 7}, "4": {"stimulus": 50, "trial": 4, "categoryRate": "NA", "rt": 3921, "rating": 7}, "7": {"stimulus": 30, "trial": 7, "categoryRate": "NA", "rt": 2012, "rating": 4}, "6": {"stimulus": 17, "trial": 6, "categoryRate": "NA", "rt": 7247, "rating": 8}, "9": {"stimulus": -1, "trial": 9, "categoryRate": "Alpha", "rt": 29912, "rating": 8}, "8": {"stimulus": -1, "trial": 8, "categoryRate": "Beta", "rt": 26762, "rating": 7}}, "submit": {}}