{"info": {"finish": 1521101844048, "participant": 104, "exposed": true, "stimuli": [30, 32, 48, 50, 0, 80, 8, 72], "lab": false, "pptmatch": 104, "start": 1521101183663, "catflip": false, "categories": [0, 0, 0, 0, 1, 1, 1, 1], "counterbalance": 7, "condition": "Middle", "browser": {"platform": "Win32", "userAgent": "Mozilla/5.0 (Windows NT 10.0; Win64; x64) AppleWebKit/537.36 (KHTML, like Gecko) Chrome/64.0.3282.186 Safari/537.36 OPR/51.0.2830.55"}}, "assignment": {"24": {"stimulus": 48, "trial": 24, "rt": 2333, "correctcat": 0, "response": 0}, "25": {"stimulus": 50, "trial": 25, "rt": 2341, "correctcat": 0, "response": 0}, "26": {"stimulus": 32, "trial": 26, "rt": 1964, "correctcat": 0, "response": 0}, "27": {"stimulus": 80, "trial": 27, "rt": 1921, "correctcat": 1, "response": 1}, "20": {"stimulus": 0, "trial": 20, "rt": 2830, "correctcat": 1, "response": 0}, "21": {"stimulus": 48, "trial": 21, "rt": 62454, "correctcat": 0, "response": 0}, "22": {"stimulus": 80, "trial": 22, "rt": 1694, "correctcat": 1, "response": 1}, "23": {"stimulus": 72, "trial": 23, "rt": 2855, "correctcat": 1, "response": 1}, "28": {"stimulus": 30, "trial": 28, "rt": 1608, "correctcat": 0, "response": 0}, "29": {"stimulus": 0, "trial": 29, "rt": 2712, "correctcat": 1, "response": 1}, "1": {"stimulus": 80, "trial": 1, "rt": 1363, "correctcat": 1, "response": 0}, "0": {"stimulus": 48, "trial": 0, "rt": 3767, "correctcat": 0, "response": 1}, "3": {"stimulus": 50, "trial": 3, "rt": 2346, "correctcat": 0, "response": 1}, "2": {"stimulus": 0, "trial": 2, "rt": 2754, "correctcat": 1, "response": 0}, "5": {"stimulus": 72, "trial": 5, "rt": 2131, "correctcat": 1, "response": 0}, "4": {"stimulus": 8, "trial": 4, "rt": 2453, "correctcat": 1, "response": 1}, "7": {"stimulus": 30, "trial": 7, "rt": 2190, "correctcat": 0, "response": 1}, "6": {"stimulus": 32, "trial": 6, "rt": 1366, "correctcat": 0, "response": 1}, "9": {"stimulus": 80, "trial": 9, "rt": 1195, "correctcat": 1, "response": 1}, "8": {"stimulus": 50, "trial": 8, "rt": 2245, "correctcat": 0, "response": 1}, "11": {"stimulus": 72, "trial": 11, "rt": 2206, "correctcat": 1, "response": 0}, "10": {"stimulus": 48, "trial": 10, "rt": 1681, "correctcat": 0, "response": 0}, "13": {"stimulus": 30, "trial": 13, "rt": 2122, "correctcat": 0, "response": 0}, "12": {"stimulus": 32, "trial": 12, "rt": 3244, "correctcat": 0, "response": 0}, "15": {"stimulus": 8, "trial": 15, "rt": 2246, "correctcat": 1, "response": 1}, "14": {"stimulus": 0, "trial": 14, "rt": 2192, "correctcat": 1, "response": 1}, "17": {"stimulus": 50, "trial": 17, "rt": 2263, "correctcat": 0, "response": 0}, "16": {"stimulus": 30, "trial": 16, "rt": 2854, "correctcat": 0, "response": 0}, "19": {"stimulus": 32, "trial": 19, "rt": 2675, "correctcat": 0, "response": 0}, "18": {"stimulus": 8, "trial": 18, "rt": 2368, "correctcat": 1, "response": 1}, "31": {"stimulus": 8, "trial": 31, "rt": 1773, "correctcat": 1, "response": 1}, "30": {"stimulus": 72, "trial": 30, "rt": 27976, "correctcat": 1, "response": 0}}, "experiment": {"Paradigm": "TACL", "Stimuli": "Size-Color Squares", "Experiment": "Assigning-Generated-Categories"}, "goodness": {"1": {"stimulus": 0, "trial": 1, "categoryRate": "NA", "rt": 2546, "rating": 10}, "0": {"stimulus": 48, "trial": 0, "categoryRate": "NA", "rt": 7633, "rating": 9}, "3": {"stimulus": 8, "trial": 3, "categoryRate": "NA", "rt": 3736, "rating": 10}, "2": {"stimulus": 80, "trial": 2, "categoryRate": "NA", "rt": 2004, "rating": 10}, "5": {"stimulus": 30, "trial": 5, "categoryRate": "NA", "rt": 4647, "rating": 10}, "4": {"stimulus": 32, "trial": 4, "categoryRate": "NA", "rt": 6251, "rating": 10}, "7": {"stimulus": 72, "trial": 7, "categoryRate": "NA", "rt": 4722, "rating": 9}, "6": {"stimulus": 50, "trial": 6, "categoryRate": "NA", "rt": 2523, "rating": 10}, "9": {"stimulus": -1, "trial": 9, "categoryRate": "Beta", "rt": 3446, "rating": 9}, "8": {"stimulus": -1, "trial": 8, "categoryRate": "Alpha", "rt": 4508, "rating": 9}}, "submit": {"timeTotal": 660606, "age": "61", "comments": "color perceptions and categorization ", "sex": "Female "}}