{"info": {"finish": 1521105159385, "participant": 108, "exposed": true, "stimuli": [12, 14, 30, 32, 26, 80, 62, 44], "lab": false, "pptmatch": 108, "start": 1521104831041, "catflip": false, "categories": [0, 0, 0, 0, 1, 1, 1, 1], "counterbalance": 6, "condition": "Bottom", "browser": {"platform": "Win32", "userAgent": "Mozilla/5.0 (Windows NT 6.3; Win64; x64) AppleWebKit/537.36 (KHTML, like Gecko) Chrome/64.0.3282.186 Safari/537.36"}}, "assignment": {"24": {"stimulus": 14, "trial": 24, "rt": 1632, "correctcat": 0, "response": 0}, "25": {"stimulus": 12, "trial": 25, "rt": 1725, "correctcat": 0, "response": 0}, "26": {"stimulus": 32, "trial": 26, "rt": 1296, "correctcat": 0, "response": 0}, "27": {"stimulus": 62, "trial": 27, "rt": 1435, "correctcat": 1, "response": 1}, "20": {"stimulus": 32, "trial": 20, "rt": 2081, "correctcat": 0, "response": 0}, "21": {"stimulus": 26, "trial": 21, "rt": 2064, "correctcat": 1, "response": 1}, "22": {"stimulus": 30, "trial": 22, "rt": 2428, "correctcat": 0, "response": 0}, "23": {"stimulus": 80, "trial": 23, "rt": 2158, "correctcat": 1, "response": 1}, "28": {"stimulus": 44, "trial": 28, "rt": 805, "correctcat": 1, "response": 1}, "29": {"stimulus": 80, "trial": 29, "rt": 766, "correctcat": 1, "response": 1}, "1": {"stimulus": 62, "trial": 1, "rt": 6057, "correctcat": 1, "response": 0}, "0": {"stimulus": 14, "trial": 0, "rt": 11818, "correctcat": 0, "response": 1}, "3": {"stimulus": 30, "trial": 3, "rt": 6330, "correctcat": 0, "response": 1}, "2": {"stimulus": 80, "trial": 2, "rt": 3952, "correctcat": 1, "response": 1}, "5": {"stimulus": 26, "trial": 5, "rt": 2013, "correctcat": 1, "response": 1}, "4": {"stimulus": 12, "trial": 4, "rt": 2009, "correctcat": 0, "response": 0}, "7": {"stimulus": 32, "trial": 7, "rt": 1230, "correctcat": 0, "response": 1}, "6": {"stimulus": 44, "trial": 6, "rt": 2006, "correctcat": 1, "response": 1}, "9": {"stimulus": 32, "trial": 9, "rt": 1199, "correctcat": 0, "response": 0}, "8": {"stimulus": 30, "trial": 8, "rt": 2601, "correctcat": 0, "response": 0}, "11": {"stimulus": 80, "trial": 11, "rt": 5145, "correctcat": 1, "response": 1}, "10": {"stimulus": 44, "trial": 10, "rt": 2944, "correctcat": 1, "response": 1}, "13": {"stimulus": 62, "trial": 13, "rt": 9631, "correctcat": 1, "response": 1}, "12": {"stimulus": 14, "trial": 12, "rt": 3263, "correctcat": 0, "response": 0}, "15": {"stimulus": 26, "trial": 15, "rt": 1898, "correctcat": 1, "response": 1}, "14": {"stimulus": 12, "trial": 14, "rt": 1932, "correctcat": 0, "response": 0}, "17": {"stimulus": 62, "trial": 17, "rt": 2018, "correctcat": 1, "response": 1}, "16": {"stimulus": 14, "trial": 16, "rt": 1869, "correctcat": 0, "response": 0}, "19": {"stimulus": 44, "trial": 19, "rt": 2119, "correctcat": 1, "response": 1}, "18": {"stimulus": 12, "trial": 18, "rt": 2377, "correctcat": 0, "response": 0}, "31": {"stimulus": 30, "trial": 31, "rt": 2734, "correctcat": 0, "response": 0}, "30": {"stimulus": 26, "trial": 30, "rt": 787, "correctcat": 1, "response": 1}}, "experiment": {"Paradigm": "TACL", "Stimuli": "Size-Color Squares", "Experiment": "Assigning-Generated-Categories"}, "goodness": {"1": {"stimulus": 12, "trial": 1, "categoryRate": "NA", "rt": 6177, "rating": 9}, "0": {"stimulus": 30, "trial": 0, "categoryRate": "NA", "rt": 16323, "rating": 8}, "3": {"stimulus": 62, "trial": 3, "categoryRate": "NA", "rt": 9619, "rating": 10}, "2": {"stimulus": 80, "trial": 2, "categoryRate": "NA", "rt": 9604, "rating": 9}, "5": {"stimulus": 44, "trial": 5, "categoryRate": "NA", "rt": 6364, "rating": 9}, "4": {"stimulus": 32, "trial": 4, "categoryRate": "NA", "rt": 7384, "rating": 8}, "7": {"stimulus": 14, "trial": 7, "categoryRate": "NA", "rt": 6849, "rating": 7}, "6": {"stimulus": 26, "trial": 6, "categoryRate": "NA", "rt": 6539, "rating": 9}, "9": {"stimulus": -1, "trial": 9, "categoryRate": "Alpha", "rt": 9773, "rating": 9}, "8": {"stimulus": -1, "trial": 8, "categoryRate": "Beta", "rt": 13424, "rating": 9}}, "submit": {"timeTotal": 328647, "age": "40", "comments": "I am not sure", "sex": "female"}}