{"info": {"finish": 1520922385090, "participant": 11, "exposed": true, "stimuli": [30, 32, 48, 50, 77, 72, 74, 75], "lab": false, "pptmatch": 11, "start": 1520922163958, "catflip": true, "categories": [1, 1, 1, 1, 0, 0, 0, 0], "counterbalance": 1, "condition": "Middle", "browser": {"platform": "Win32", "userAgent": "Mozilla/5.0 (Windows NT 10.0; Win64; x64) AppleWebKit/537.36 (KHTML, like Gecko) Chrome/64.0.3282.186 Safari/537.36"}}, "assignment": {"24": {"stimulus": 72, "trial": 24, "rt": 786, "correctcat": 0, "response": 0}, "25": {"stimulus": 74, "trial": 25, "rt": 956, "correctcat": 0, "response": 0}, "26": {"stimulus": 75, "trial": 26, "rt": 889, "correctcat": 0, "response": 0}, "27": {"stimulus": 77, "trial": 27, "rt": 622, "correctcat": 0, "response": 0}, "20": {"stimulus": 77, "trial": 20, "rt": 904, "correctcat": 0, "response": 0}, "21": {"stimulus": 74, "trial": 21, "rt": 1013, "correctcat": 0, "response": 0}, "22": {"stimulus": 50, "trial": 22, "rt": 910, "correctcat": 1, "response": 1}, "23": {"stimulus": 30, "trial": 23, "rt": 948, "correctcat": 1, "response": 1}, "28": {"stimulus": 32, "trial": 28, "rt": 972, "correctcat": 1, "response": 1}, "29": {"stimulus": 50, "trial": 29, "rt": 1022, "correctcat": 1, "response": 1}, "1": {"stimulus": 30, "trial": 1, "rt": 1088, "correctcat": 1, "response": 1}, "0": {"stimulus": 77, "trial": 0, "rt": 3957, "correctcat": 0, "response": 0}, "3": {"stimulus": 32, "trial": 3, "rt": 1005, "correctcat": 1, "response": 1}, "2": {"stimulus": 75, "trial": 2, "rt": 937, "correctcat": 0, "response": 0}, "5": {"stimulus": 74, "trial": 5, "rt": 949, "correctcat": 0, "response": 0}, "4": {"stimulus": 72, "trial": 4, "rt": 959, "correctcat": 0, "response": 0}, "7": {"stimulus": 48, "trial": 7, "rt": 755, "correctcat": 1, "response": 1}, "6": {"stimulus": 50, "trial": 6, "rt": 1113, "correctcat": 1, "response": 1}, "9": {"stimulus": 74, "trial": 9, "rt": 1301, "correctcat": 0, "response": 0}, "8": {"stimulus": 30, "trial": 8, "rt": 1013, "correctcat": 1, "response": 1}, "11": {"stimulus": 48, "trial": 11, "rt": 997, "correctcat": 1, "response": 1}, "10": {"stimulus": 72, "trial": 10, "rt": 622, "correctcat": 0, "response": 0}, "13": {"stimulus": 77, "trial": 13, "rt": 888, "correctcat": 0, "response": 0}, "12": {"stimulus": 75, "trial": 12, "rt": 1029, "correctcat": 0, "response": 0}, "15": {"stimulus": 32, "trial": 15, "rt": 1014, "correctcat": 1, "response": 1}, "14": {"stimulus": 50, "trial": 14, "rt": 971, "correctcat": 1, "response": 1}, "17": {"stimulus": 32, "trial": 17, "rt": 840, "correctcat": 1, "response": 1}, "16": {"stimulus": 72, "trial": 16, "rt": 1084, "correctcat": 0, "response": 0}, "19": {"stimulus": 48, "trial": 19, "rt": 1199, "correctcat": 1, "response": 1}, "18": {"stimulus": 75, "trial": 18, "rt": 819, "correctcat": 0, "response": 0}, "31": {"stimulus": 30, "trial": 31, "rt": 842, "correctcat": 1, "response": 1}, "30": {"stimulus": 48, "trial": 30, "rt": 975, "correctcat": 1, "response": 1}}, "experiment": {"Paradigm": "TACL", "Stimuli": "Size-Color Squares", "Experiment": "Assigning-Generated-Categories"}, "goodness": {"1": {"stimulus": 48, "trial": 1, "categoryRate": "NA", "rt": 5080, "rating": 4}, "0": {"stimulus": 30, "trial": 0, "categoryRate": "NA", "rt": 4650, "rating": 3}, "3": {"stimulus": 72, "trial": 3, "categoryRate": "NA", "rt": 1970, "rating": 9}, "2": {"stimulus": 32, "trial": 2, "categoryRate": "NA", "rt": 2018, "rating": 3}, "5": {"stimulus": 74, "trial": 5, "categoryRate": "NA", "rt": 2114, "rating": 9}, "4": {"stimulus": 50, "trial": 4, "categoryRate": "NA", "rt": 2848, "rating": 3}, "7": {"stimulus": 77, "trial": 7, "categoryRate": "NA", "rt": 2925, "rating": 9}, "6": {"stimulus": 75, "trial": 6, "categoryRate": "NA", "rt": 2303, "rating": 8}, "9": {"stimulus": -1, "trial": 9, "categoryRate": "Alpha", "rt": 3964, "rating": 10}, "8": {"stimulus": -1, "trial": 8, "categoryRate": "Beta", "rt": 8502, "rating": 4}}, "submit": {"timeTotal": 240982, "age": "35", "comments": "", "sex": "Male"}}