{"info": {"finish": 1521105442548, "participant": 110, "exposed": true, "stimuli": [12, 14, 30, 32, 46, 72, 9, 27], "lab": false, "pptmatch": 110, "start": 1521105146831, "catflip": false, "categories": [0, 0, 0, 0, 1, 1, 1, 1], "counterbalance": 1, "condition": "Bottom", "browser": {"platform": "Linux armv7l", "userAgent": "Mozilla/5.0 (X11; CrOS armv7l 10176.76.0) AppleWebKit/537.36 (KHTML, like Gecko) Chrome/64.0.3282.190 Safari/537.36"}}, "assignment": {"24": {"stimulus": 12, "trial": 24, "rt": 2419, "correctcat": 0, "response": 0}, "25": {"stimulus": 14, "trial": 25, "rt": 1280, "correctcat": 0, "response": 0}, "26": {"stimulus": 27, "trial": 26, "rt": 3493, "correctcat": 1, "response": 1}, "27": {"stimulus": 32, "trial": 27, "rt": 1781, "correctcat": 0, "response": 0}, "20": {"stimulus": 27, "trial": 20, "rt": 2167, "correctcat": 1, "response": 1}, "21": {"stimulus": 32, "trial": 21, "rt": 2026, "correctcat": 0, "response": 1}, "22": {"stimulus": 30, "trial": 22, "rt": 1701, "correctcat": 0, "response": 0}, "23": {"stimulus": 72, "trial": 23, "rt": 1047, "correctcat": 1, "response": 1}, "28": {"stimulus": 72, "trial": 28, "rt": 1006, "correctcat": 1, "response": 1}, "29": {"stimulus": 46, "trial": 29, "rt": 2234, "correctcat": 1, "response": 1}, "1": {"stimulus": 32, "trial": 1, "rt": 2035, "correctcat": 0, "response": 1}, "0": {"stimulus": 72, "trial": 0, "rt": 3427, "correctcat": 1, "response": 0}, "3": {"stimulus": 46, "trial": 3, "rt": 2877, "correctcat": 1, "response": 1}, "2": {"stimulus": 27, "trial": 2, "rt": 3559, "correctcat": 1, "response": 0}, "5": {"stimulus": 9, "trial": 5, "rt": 2063, "correctcat": 1, "response": 0}, "4": {"stimulus": 12, "trial": 4, "rt": 1898, "correctcat": 0, "response": 0}, "7": {"stimulus": 14, "trial": 7, "rt": 1631, "correctcat": 0, "response": 0}, "6": {"stimulus": 30, "trial": 6, "rt": 1701, "correctcat": 0, "response": 1}, "9": {"stimulus": 14, "trial": 9, "rt": 1946, "correctcat": 0, "response": 0}, "8": {"stimulus": 9, "trial": 8, "rt": 3537, "correctcat": 1, "response": 1}, "11": {"stimulus": 27, "trial": 11, "rt": 1728, "correctcat": 1, "response": 0}, "10": {"stimulus": 30, "trial": 10, "rt": 1130, "correctcat": 0, "response": 1}, "13": {"stimulus": 12, "trial": 13, "rt": 1164, "correctcat": 0, "response": 0}, "12": {"stimulus": 46, "trial": 12, "rt": 1889, "correctcat": 1, "response": 1}, "15": {"stimulus": 32, "trial": 15, "rt": 1469, "correctcat": 0, "response": 0}, "14": {"stimulus": 72, "trial": 14, "rt": 2742, "correctcat": 1, "response": 0}, "17": {"stimulus": 12, "trial": 17, "rt": 1945, "correctcat": 0, "response": 0}, "16": {"stimulus": 9, "trial": 16, "rt": 1907, "correctcat": 1, "response": 1}, "19": {"stimulus": 14, "trial": 19, "rt": 1212, "correctcat": 0, "response": 0}, "18": {"stimulus": 46, "trial": 18, "rt": 1688, "correctcat": 1, "response": 1}, "31": {"stimulus": 9, "trial": 31, "rt": 2301, "correctcat": 1, "response": 0}, "30": {"stimulus": 30, "trial": 30, "rt": 1333, "correctcat": 0, "response": 0}}, "experiment": {"Paradigm": "TACL", "Stimuli": "Size-Color Squares", "Experiment": "Assigning-Generated-Categories"}, "goodness": {"1": {"stimulus": 27, "trial": 1, "categoryRate": "NA", "rt": 7406, "rating": 2}, "0": {"stimulus": 72, "trial": 0, "categoryRate": "NA", "rt": 15322, "rating": 7}, "3": {"stimulus": 32, "trial": 3, "categoryRate": "NA", "rt": 3641, "rating": 9}, "2": {"stimulus": 46, "trial": 2, "categoryRate": "NA", "rt": 4053, "rating": 4}, "5": {"stimulus": 30, "trial": 5, "categoryRate": "NA", "rt": 4097, "rating": 2}, "4": {"stimulus": 9, "trial": 4, "categoryRate": "NA", "rt": 6889, "rating": 6}, "7": {"stimulus": 14, "trial": 7, "categoryRate": "NA", "rt": 3399, "rating": 9}, "6": {"stimulus": 12, "trial": 6, "categoryRate": "NA", "rt": 3929, "rating": 8}, "9": {"stimulus": -1, "trial": 9, "categoryRate": "Beta", "rt": 8101, "rating": 2}, "8": {"stimulus": -1, "trial": 8, "categoryRate": "Alpha", "rt": 15619, "rating": 8}}, "submit": {"timeTotal": 296142, "age": "34", "comments": "This was very interesting. I really enjoyed this. At one point, I felt like I had a rythem going and understood what was next and what it might be, but then, sometimes I was wrong. This was fun. Thanks! ", "sex": "female"}}