{"info": {"finish": 1521106490900, "participant": 114, "exposed": true, "stimuli": [12, 14, 30, 32, 80, 0, 7, 1], "lab": false, "pptmatch": 114, "start": 1521105942770, "catflip": true, "categories": [1, 1, 1, 1, 0, 0, 0, 0], "counterbalance": 6, "condition": "Bottom", "browser": {"platform": "Win32", "userAgent": "Mozilla/5.0 (Windows NT 10.0; Win64; x64) AppleWebKit/537.36 (KHTML, like Gecko) Chrome/64.0.3282.186 Safari/537.36"}}, "assignment": {"24": {"stimulus": 7, "trial": 24, "rt": 1073, "correctcat": 0, "response": 1}, "25": {"stimulus": 14, "trial": 25, "rt": 1450, "correctcat": 1, "response": 1}, "26": {"stimulus": 32, "trial": 26, "rt": 1877, "correctcat": 1, "response": 1}, "27": {"stimulus": 12, "trial": 27, "rt": 2334, "correctcat": 1, "response": 0}, "20": {"stimulus": 32, "trial": 20, "rt": 1247, "correctcat": 1, "response": 1}, "21": {"stimulus": 12, "trial": 21, "rt": 1725, "correctcat": 1, "response": 1}, "22": {"stimulus": 1, "trial": 22, "rt": 1122, "correctcat": 0, "response": 0}, "23": {"stimulus": 7, "trial": 23, "rt": 1548, "correctcat": 0, "response": 0}, "28": {"stimulus": 1, "trial": 28, "rt": 4228, "correctcat": 0, "response": 0}, "29": {"stimulus": 0, "trial": 29, "rt": 1623, "correctcat": 0, "response": 0}, "1": {"stimulus": 0, "trial": 1, "rt": 4122, "correctcat": 0, "response": 0}, "0": {"stimulus": 30, "trial": 0, "rt": 3884, "correctcat": 1, "response": 0}, "3": {"stimulus": 7, "trial": 3, "rt": 1728, "correctcat": 0, "response": 1}, "2": {"stimulus": 32, "trial": 2, "rt": 1492, "correctcat": 1, "response": 1}, "5": {"stimulus": 80, "trial": 5, "rt": 1866, "correctcat": 0, "response": 1}, "4": {"stimulus": 1, "trial": 4, "rt": 1779, "correctcat": 0, "response": 0}, "7": {"stimulus": 14, "trial": 7, "rt": 1581, "correctcat": 1, "response": 0}, "6": {"stimulus": 12, "trial": 6, "rt": 3504, "correctcat": 1, "response": 1}, "9": {"stimulus": 0, "trial": 9, "rt": 1692, "correctcat": 0, "response": 0}, "8": {"stimulus": 30, "trial": 8, "rt": 2279, "correctcat": 1, "response": 1}, "11": {"stimulus": 1, "trial": 11, "rt": 1304, "correctcat": 0, "response": 0}, "10": {"stimulus": 7, "trial": 10, "rt": 1627, "correctcat": 0, "response": 0}, "13": {"stimulus": 32, "trial": 13, "rt": 1560, "correctcat": 1, "response": 1}, "12": {"stimulus": 14, "trial": 12, "rt": 1387, "correctcat": 1, "response": 1}, "15": {"stimulus": 12, "trial": 15, "rt": 1317, "correctcat": 1, "response": 1}, "14": {"stimulus": 80, "trial": 14, "rt": 1152, "correctcat": 0, "response": 0}, "17": {"stimulus": 30, "trial": 17, "rt": 1313, "correctcat": 1, "response": 1}, "16": {"stimulus": 14, "trial": 16, "rt": 1697, "correctcat": 1, "response": 1}, "19": {"stimulus": 0, "trial": 19, "rt": 1191, "correctcat": 0, "response": 0}, "18": {"stimulus": 80, "trial": 18, "rt": 1214, "correctcat": 0, "response": 0}, "31": {"stimulus": 80, "trial": 31, "rt": 1621, "correctcat": 0, "response": 0}, "30": {"stimulus": 30, "trial": 30, "rt": 1152, "correctcat": 1, "response": 1}}, "experiment": {"Paradigm": "TACL", "Stimuli": "Size-Color Squares", "Experiment": "Assigning-Generated-Categories"}, "goodness": {"1": {"stimulus": 80, "trial": 1, "categoryRate": "NA", "rt": 5153, "rating": 2}, "0": {"stimulus": 7, "trial": 0, "categoryRate": "NA", "rt": 17353, "rating": 7}, "3": {"stimulus": 32, "trial": 3, "categoryRate": "NA", "rt": 2307, "rating": 6}, "2": {"stimulus": 30, "trial": 2, "categoryRate": "NA", "rt": 2690, "rating": 9}, "5": {"stimulus": 0, "trial": 5, "categoryRate": "NA", "rt": 2994, "rating": 10}, "4": {"stimulus": 14, "trial": 4, "categoryRate": "NA", "rt": 5403, "rating": 6}, "7": {"stimulus": 1, "trial": 7, "categoryRate": "NA", "rt": 3349, "rating": 10}, "6": {"stimulus": 12, "trial": 6, "categoryRate": "NA", "rt": 3247, "rating": 6}, "9": {"stimulus": -1, "trial": 9, "categoryRate": "Beta", "rt": 3848, "rating": 7}, "8": {"stimulus": -1, "trial": 8, "categoryRate": "Alpha", "rt": 11022, "rating": 7}}, "submit": {"timeTotal": 548457, "age": "32", "comments": "", "sex": "Female"}}