{"info": {"finish": 1521106669901, "participant": 121, "exposed": true, "stimuli": [30, 32, 48, 50, 76, 72, 8, 0], "lab": false, "pptmatch": 121, "start": 1521106452651, "catflip": true, "categories": [1, 1, 1, 1, 0, 0, 0, 0], "counterbalance": 1, "condition": "Middle", "browser": {"platform": "MacIntel", "userAgent": "Mozilla/5.0 (Macintosh; Intel Mac OS X 10_13_3) AppleWebKit/537.36 (KHTML, like Gecko) Chrome/64.0.3282.186 Safari/537.36"}}, "assignment": {"24": {"stimulus": 0, "trial": 24, "rt": 742, "correctcat": 0, "response": 0}, "25": {"stimulus": 76, "trial": 25, "rt": 681, "correctcat": 0, "response": 0}, "26": {"stimulus": 8, "trial": 26, "rt": 931, "correctcat": 0, "response": 0}, "27": {"stimulus": 30, "trial": 27, "rt": 1012, "correctcat": 1, "response": 1}, "20": {"stimulus": 30, "trial": 20, "rt": 1227, "correctcat": 1, "response": 1}, "21": {"stimulus": 8, "trial": 21, "rt": 955, "correctcat": 0, "response": 0}, "22": {"stimulus": 32, "trial": 22, "rt": 752, "correctcat": 1, "response": 1}, "23": {"stimulus": 76, "trial": 23, "rt": 944, "correctcat": 0, "response": 0}, "28": {"stimulus": 50, "trial": 28, "rt": 614, "correctcat": 1, "response": 1}, "29": {"stimulus": 72, "trial": 29, "rt": 1108, "correctcat": 0, "response": 0}, "1": {"stimulus": 76, "trial": 1, "rt": 1152, "correctcat": 0, "response": 1}, "0": {"stimulus": 8, "trial": 0, "rt": 3814, "correctcat": 0, "response": 0}, "3": {"stimulus": 32, "trial": 3, "rt": 2643, "correctcat": 1, "response": 1}, "2": {"stimulus": 50, "trial": 2, "rt": 1761, "correctcat": 1, "response": 0}, "5": {"stimulus": 0, "trial": 5, "rt": 962, "correctcat": 0, "response": 0}, "4": {"stimulus": 72, "trial": 4, "rt": 990, "correctcat": 0, "response": 0}, "7": {"stimulus": 30, "trial": 7, "rt": 799, "correctcat": 1, "response": 1}, "6": {"stimulus": 48, "trial": 6, "rt": 965, "correctcat": 1, "response": 1}, "9": {"stimulus": 48, "trial": 9, "rt": 1112, "correctcat": 1, "response": 0}, "8": {"stimulus": 32, "trial": 8, "rt": 887, "correctcat": 1, "response": 1}, "11": {"stimulus": 8, "trial": 11, "rt": 1379, "correctcat": 0, "response": 0}, "10": {"stimulus": 30, "trial": 10, "rt": 1224, "correctcat": 1, "response": 1}, "13": {"stimulus": 0, "trial": 13, "rt": 1972, "correctcat": 0, "response": 1}, "12": {"stimulus": 76, "trial": 12, "rt": 708, "correctcat": 0, "response": 0}, "15": {"stimulus": 72, "trial": 15, "rt": 8537, "correctcat": 0, "response": 0}, "14": {"stimulus": 50, "trial": 14, "rt": 8850, "correctcat": 1, "response": 1}, "17": {"stimulus": 72, "trial": 17, "rt": 565, "correctcat": 0, "response": 0}, "16": {"stimulus": 0, "trial": 16, "rt": 1363, "correctcat": 0, "response": 0}, "19": {"stimulus": 50, "trial": 19, "rt": 630, "correctcat": 1, "response": 1}, "18": {"stimulus": 48, "trial": 18, "rt": 1066, "correctcat": 1, "response": 1}, "31": {"stimulus": 48, "trial": 31, "rt": 1256, "correctcat": 1, "response": 1}, "30": {"stimulus": 32, "trial": 30, "rt": 2046, "correctcat": 1, "response": 1}}, "experiment": {"Paradigm": "TACL", "Stimuli": "Size-Color Squares", "Experiment": "Assigning-Generated-Categories"}, "goodness": {"1": {"stimulus": 8, "trial": 1, "categoryRate": "NA", "rt": 6371, "rating": 10}, "0": {"stimulus": 76, "trial": 0, "categoryRate": "NA", "rt": 5369, "rating": 10}, "3": {"stimulus": 30, "trial": 3, "categoryRate": "NA", "rt": 3426, "rating": 4}, "2": {"stimulus": 48, "trial": 2, "categoryRate": "NA", "rt": 2942, "rating": 3}, "5": {"stimulus": 32, "trial": 5, "categoryRate": "NA", "rt": 2810, "rating": 4}, "4": {"stimulus": 72, "trial": 4, "categoryRate": "NA", "rt": 1828, "rating": 9}, "7": {"stimulus": 0, "trial": 7, "categoryRate": "NA", "rt": 1963, "rating": 10}, "6": {"stimulus": 50, "trial": 6, "categoryRate": "NA", "rt": 1847, "rating": 6}, "9": {"stimulus": -1, "trial": 9, "categoryRate": "Alpha", "rt": 4369, "rating": 8}, "8": {"stimulus": -1, "trial": 8, "categoryRate": "Beta", "rt": 7350, "rating": 9}}, "submit": {"timeTotal": 217466, "age": "47", "comments": "", "sex": "female"}}