{"info": {"finish": 1521107268746, "participant": 124, "exposed": true, "stimuli": [12, 14, 30, 32, 0, 72, 27, 54], "lab": false, "pptmatch": 113, "start": 1521107011731, "catflip": false, "categories": [0, 0, 0, 0, 1, 1, 1, 1], "counterbalance": 7, "condition": "Bottom", "browser": {"platform": "Win32", "userAgent": "Mozilla/5.0 (Windows NT 6.1) AppleWebKit/537.36 (KHTML, like Gecko) Chrome/64.0.3282.186 Safari/537.36"}}, "assignment": {"24": {"stimulus": 30, "trial": 24, "rt": 933, "correctcat": 0, "response": 0}, "25": {"stimulus": 12, "trial": 25, "rt": 1074, "correctcat": 0, "response": 0}, "26": {"stimulus": 32, "trial": 26, "rt": 825, "correctcat": 0, "response": 0}, "27": {"stimulus": 27, "trial": 27, "rt": 984, "correctcat": 1, "response": 1}, "20": {"stimulus": 72, "trial": 20, "rt": 753, "correctcat": 1, "response": 1}, "21": {"stimulus": 32, "trial": 21, "rt": 1049, "correctcat": 0, "response": 0}, "22": {"stimulus": 14, "trial": 22, "rt": 872, "correctcat": 0, "response": 0}, "23": {"stimulus": 12, "trial": 23, "rt": 1667, "correctcat": 0, "response": 0}, "28": {"stimulus": 72, "trial": 28, "rt": 638, "correctcat": 1, "response": 1}, "29": {"stimulus": 0, "trial": 29, "rt": 624, "correctcat": 1, "response": 1}, "1": {"stimulus": 72, "trial": 1, "rt": 1057, "correctcat": 1, "response": 1}, "0": {"stimulus": 54, "trial": 0, "rt": 2810, "correctcat": 1, "response": 0}, "3": {"stimulus": 14, "trial": 3, "rt": 1548, "correctcat": 0, "response": 0}, "2": {"stimulus": 12, "trial": 2, "rt": 2087, "correctcat": 0, "response": 1}, "5": {"stimulus": 32, "trial": 5, "rt": 1217, "correctcat": 0, "response": 0}, "4": {"stimulus": 0, "trial": 4, "rt": 1356, "correctcat": 1, "response": 1}, "7": {"stimulus": 30, "trial": 7, "rt": 1750, "correctcat": 0, "response": 0}, "6": {"stimulus": 27, "trial": 6, "rt": 964, "correctcat": 1, "response": 1}, "9": {"stimulus": 27, "trial": 9, "rt": 875, "correctcat": 1, "response": 1}, "8": {"stimulus": 54, "trial": 8, "rt": 849, "correctcat": 1, "response": 1}, "11": {"stimulus": 72, "trial": 11, "rt": 959, "correctcat": 1, "response": 1}, "10": {"stimulus": 14, "trial": 10, "rt": 1228, "correctcat": 0, "response": 0}, "13": {"stimulus": 12, "trial": 13, "rt": 1258, "correctcat": 0, "response": 0}, "12": {"stimulus": 32, "trial": 12, "rt": 1053, "correctcat": 0, "response": 0}, "15": {"stimulus": 0, "trial": 15, "rt": 1447, "correctcat": 1, "response": 1}, "14": {"stimulus": 30, "trial": 14, "rt": 882, "correctcat": 0, "response": 0}, "17": {"stimulus": 0, "trial": 17, "rt": 761, "correctcat": 1, "response": 1}, "16": {"stimulus": 54, "trial": 16, "rt": 995, "correctcat": 1, "response": 1}, "19": {"stimulus": 30, "trial": 19, "rt": 994, "correctcat": 0, "response": 0}, "18": {"stimulus": 27, "trial": 18, "rt": 784, "correctcat": 1, "response": 1}, "31": {"stimulus": 14, "trial": 31, "rt": 959, "correctcat": 0, "response": 0}, "30": {"stimulus": 54, "trial": 30, "rt": 750, "correctcat": 1, "response": 1}}, "experiment": {"Paradigm": "TACL", "Stimuli": "Size-Color Squares", "Experiment": "Assigning-Generated-Categories"}, "goodness": {"1": {"stimulus": 27, "trial": 1, "categoryRate": "NA", "rt": 5132, "rating": 9}, "0": {"stimulus": 14, "trial": 0, "categoryRate": "NA", "rt": 9062, "rating": 8}, "3": {"stimulus": 12, "trial": 3, "categoryRate": "NA", "rt": 3799, "rating": 8}, "2": {"stimulus": 32, "trial": 2, "categoryRate": "NA", "rt": 3378, "rating": 8}, "5": {"stimulus": 0, "trial": 5, "categoryRate": "NA", "rt": 4807, "rating": 8}, "4": {"stimulus": 30, "trial": 4, "categoryRate": "NA", "rt": 2614, "rating": 7}, "7": {"stimulus": 54, "trial": 7, "categoryRate": "NA", "rt": 2618, "rating": 7}, "6": {"stimulus": 72, "trial": 6, "categoryRate": "NA", "rt": 3388, "rating": 6}, "9": {"stimulus": -1, "trial": 9, "categoryRate": "Beta", "rt": 4370, "rating": 9}, "8": {"stimulus": -1, "trial": 8, "categoryRate": "Alpha", "rt": 14248, "rating": 8}}, "submit": {"timeTotal": 258131, "age": "30", "comments": "None", "sex": "Male"}}