{"info": {"finish": 1521108008029, "participant": 126, "exposed": true, "stimuli": [30, 32, 48, 50, 37, 0, 55, 36], "lab": false, "pptmatch": 14, "start": 1521107763789, "catflip": true, "categories": [1, 1, 1, 1, 0, 0, 0, 0], "counterbalance": 7, "condition": "Middle", "browser": {"platform": "Win32", "userAgent": "Mozilla/5.0 (Windows NT 10.0; Win64; x64) AppleWebKit/537.36 (KHTML, like Gecko) Chrome/64.0.3282.186 Safari/537.36"}}, "assignment": {"24": {"stimulus": 32, "trial": 24, "rt": 1023, "correctcat": 1, "response": 1}, "25": {"stimulus": 0, "trial": 25, "rt": 966, "correctcat": 0, "response": 0}, "26": {"stimulus": 36, "trial": 26, "rt": 864, "correctcat": 0, "response": 0}, "27": {"stimulus": 37, "trial": 27, "rt": 534, "correctcat": 0, "response": 0}, "20": {"stimulus": 0, "trial": 20, "rt": 845, "correctcat": 0, "response": 0}, "21": {"stimulus": 36, "trial": 21, "rt": 666, "correctcat": 0, "response": 0}, "22": {"stimulus": 32, "trial": 22, "rt": 1290, "correctcat": 1, "response": 1}, "23": {"stimulus": 37, "trial": 23, "rt": 1260, "correctcat": 0, "response": 0}, "28": {"stimulus": 48, "trial": 28, "rt": 1186, "correctcat": 1, "response": 1}, "29": {"stimulus": 55, "trial": 29, "rt": 924, "correctcat": 0, "response": 0}, "1": {"stimulus": 48, "trial": 1, "rt": 1119, "correctcat": 1, "response": 0}, "0": {"stimulus": 37, "trial": 0, "rt": 2155, "correctcat": 0, "response": 0}, "3": {"stimulus": 0, "trial": 3, "rt": 1584, "correctcat": 0, "response": 0}, "2": {"stimulus": 55, "trial": 2, "rt": 1365, "correctcat": 0, "response": 0}, "5": {"stimulus": 36, "trial": 5, "rt": 1150, "correctcat": 0, "response": 0}, "4": {"stimulus": 50, "trial": 4, "rt": 1204, "correctcat": 1, "response": 1}, "7": {"stimulus": 32, "trial": 7, "rt": 1046, "correctcat": 1, "response": 1}, "6": {"stimulus": 30, "trial": 6, "rt": 1257, "correctcat": 1, "response": 1}, "9": {"stimulus": 37, "trial": 9, "rt": 915, "correctcat": 0, "response": 0}, "8": {"stimulus": 30, "trial": 8, "rt": 1142, "correctcat": 1, "response": 1}, "11": {"stimulus": 48, "trial": 11, "rt": 1370, "correctcat": 1, "response": 1}, "10": {"stimulus": 50, "trial": 10, "rt": 890, "correctcat": 1, "response": 1}, "13": {"stimulus": 36, "trial": 13, "rt": 1103, "correctcat": 0, "response": 0}, "12": {"stimulus": 55, "trial": 12, "rt": 938, "correctcat": 0, "response": 0}, "15": {"stimulus": 0, "trial": 15, "rt": 1027, "correctcat": 0, "response": 0}, "14": {"stimulus": 32, "trial": 14, "rt": 803, "correctcat": 1, "response": 1}, "17": {"stimulus": 55, "trial": 17, "rt": 879, "correctcat": 0, "response": 0}, "16": {"stimulus": 30, "trial": 16, "rt": 906, "correctcat": 1, "response": 1}, "19": {"stimulus": 50, "trial": 19, "rt": 651, "correctcat": 1, "response": 1}, "18": {"stimulus": 48, "trial": 18, "rt": 1225, "correctcat": 1, "response": 1}, "31": {"stimulus": 30, "trial": 31, "rt": 984, "correctcat": 1, "response": 1}, "30": {"stimulus": 50, "trial": 30, "rt": 751, "correctcat": 1, "response": 1}}, "experiment": {"Paradigm": "TACL", "Stimuli": "Size-Color Squares", "Experiment": "Assigning-Generated-Categories"}, "goodness": {"1": {"stimulus": 36, "trial": 1, "categoryRate": "NA", "rt": 2018, "rating": 0}, "0": {"stimulus": 50, "trial": 0, "categoryRate": "NA", "rt": 5782, "rating": 10}, "3": {"stimulus": 30, "trial": 3, "categoryRate": "NA", "rt": 3810, "rating": 8}, "2": {"stimulus": 0, "trial": 2, "categoryRate": "NA", "rt": 2617, "rating": 2}, "5": {"stimulus": 48, "trial": 5, "categoryRate": "NA", "rt": 2260, "rating": 6}, "4": {"stimulus": 37, "trial": 4, "categoryRate": "NA", "rt": 9523, "rating": 9}, "7": {"stimulus": 55, "trial": 7, "categoryRate": "NA", "rt": 3112, "rating": 3}, "6": {"stimulus": 32, "trial": 6, "categoryRate": "NA", "rt": 3077, "rating": 8}, "9": {"stimulus": -1, "trial": 9, "categoryRate": "Beta", "rt": 5212, "rating": 8}, "8": {"stimulus": -1, "trial": 8, "categoryRate": "Alpha", "rt": 8350, "rating": 7}}, "submit": {"timeTotal": 244409, "age": "43", "comments": "Really fun study, thank you.", "sex": "Male"}}