{"info": {"finish": 1520926038686, "participant": 13, "exposed": true, "stimuli": [30, 32, 48, 50, 18, 27, 9, 54], "lab": false, "pptmatch": 13, "start": 1520925796471, "catflip": false, "categories": [0, 0, 0, 0, 1, 1, 1, 1], "counterbalance": 6, "condition": "Middle", "browser": {"platform": "Win32", "userAgent": "Mozilla/5.0 (Windows NT 10.0; WOW64) AppleWebKit/537.36 (KHTML, like Gecko) Chrome/64.0.3282.186 Safari/537.36"}}, "assignment": {"24": {"stimulus": 30, "trial": 24, "rt": 928, "correctcat": 0, "response": 0}, "25": {"stimulus": 48, "trial": 25, "rt": 1731, "correctcat": 0, "response": 0}, "26": {"stimulus": 54, "trial": 26, "rt": 1857, "correctcat": 1, "response": 1}, "27": {"stimulus": 50, "trial": 27, "rt": 894, "correctcat": 0, "response": 0}, "20": {"stimulus": 32, "trial": 20, "rt": 1863, "correctcat": 0, "response": 0}, "21": {"stimulus": 9, "trial": 21, "rt": 1303, "correctcat": 1, "response": 1}, "22": {"stimulus": 30, "trial": 22, "rt": 2783, "correctcat": 0, "response": 0}, "23": {"stimulus": 48, "trial": 23, "rt": 1412, "correctcat": 0, "response": 0}, "28": {"stimulus": 32, "trial": 28, "rt": 1063, "correctcat": 0, "response": 0}, "29": {"stimulus": 9, "trial": 29, "rt": 1294, "correctcat": 1, "response": 1}, "1": {"stimulus": 30, "trial": 1, "rt": 942, "correctcat": 0, "response": 0}, "0": {"stimulus": 32, "trial": 0, "rt": 2189, "correctcat": 0, "response": 0}, "3": {"stimulus": 48, "trial": 3, "rt": 542, "correctcat": 0, "response": 1}, "2": {"stimulus": 54, "trial": 2, "rt": 1358, "correctcat": 1, "response": 1}, "5": {"stimulus": 9, "trial": 5, "rt": 3082, "correctcat": 1, "response": 1}, "4": {"stimulus": 18, "trial": 4, "rt": 546, "correctcat": 1, "response": 1}, "7": {"stimulus": 50, "trial": 7, "rt": 1146, "correctcat": 0, "response": 0}, "6": {"stimulus": 27, "trial": 6, "rt": 1251, "correctcat": 1, "response": 1}, "9": {"stimulus": 18, "trial": 9, "rt": 853, "correctcat": 1, "response": 1}, "8": {"stimulus": 9, "trial": 8, "rt": 2178, "correctcat": 1, "response": 1}, "11": {"stimulus": 30, "trial": 11, "rt": 2243, "correctcat": 0, "response": 0}, "10": {"stimulus": 50, "trial": 10, "rt": 1294, "correctcat": 0, "response": 0}, "13": {"stimulus": 32, "trial": 13, "rt": 1052, "correctcat": 0, "response": 0}, "12": {"stimulus": 54, "trial": 12, "rt": 1153, "correctcat": 1, "response": 1}, "15": {"stimulus": 27, "trial": 15, "rt": 1580, "correctcat": 1, "response": 1}, "14": {"stimulus": 48, "trial": 14, "rt": 696, "correctcat": 0, "response": 0}, "17": {"stimulus": 50, "trial": 17, "rt": 640, "correctcat": 0, "response": 0}, "16": {"stimulus": 54, "trial": 16, "rt": 886, "correctcat": 1, "response": 0}, "19": {"stimulus": 27, "trial": 19, "rt": 691, "correctcat": 1, "response": 1}, "18": {"stimulus": 18, "trial": 18, "rt": 1306, "correctcat": 1, "response": 1}, "31": {"stimulus": 18, "trial": 31, "rt": 956, "correctcat": 1, "response": 1}, "30": {"stimulus": 27, "trial": 30, "rt": 2592, "correctcat": 1, "response": 1}}, "experiment": {"Paradigm": "TACL", "Stimuli": "Size-Color Squares", "Experiment": "Assigning-Generated-Categories"}, "goodness": {"1": {"stimulus": 30, "trial": 1, "categoryRate": "NA", "rt": 3544, "rating": 10}, "0": {"stimulus": 27, "trial": 0, "categoryRate": "NA", "rt": 6088, "rating": 10}, "3": {"stimulus": 50, "trial": 3, "categoryRate": "NA", "rt": 4004, "rating": 6}, "2": {"stimulus": 9, "trial": 2, "categoryRate": "NA", "rt": 1708, "rating": 10}, "5": {"stimulus": 54, "trial": 5, "categoryRate": "NA", "rt": 5337, "rating": 5}, "4": {"stimulus": 32, "trial": 4, "categoryRate": "NA", "rt": 2191, "rating": 7}, "7": {"stimulus": 18, "trial": 7, "categoryRate": "NA", "rt": 2862, "rating": 10}, "6": {"stimulus": 48, "trial": 6, "categoryRate": "NA", "rt": 3660, "rating": 5}, "9": {"stimulus": -1, "trial": 9, "categoryRate": "Beta", "rt": 2803, "rating": 10}, "8": {"stimulus": -1, "trial": 8, "categoryRate": "Alpha", "rt": 8957, "rating": 7}}, "submit": {"timeTotal": 254906, "age": "40", "comments": "fun!", "sex": "female"}}