{"info": {"finish": 1521108680134, "participant": 131, "exposed": true, "stimuli": [30, 32, 48, 50, 41, 32, 50, 40], "lab": false, "pptmatch": 44, "start": 1521108335205, "catflip": false, "categories": [0, 0, 0, 0, 1, 1, 1, 1], "counterbalance": 7, "condition": "Middle", "browser": {"platform": "Win32", "userAgent": "Mozilla/5.0 (Windows NT 10.0; Win64; x64) AppleWebKit/537.36 (KHTML, like Gecko) Chrome/64.0.3282.186 Safari/537.36"}}, "assignment": {"24": {"stimulus": 30, "trial": 24, "rt": 1596, "correctcat": 0, "response": 1}, "25": {"stimulus": 32, "trial": 25, "rt": 1007, "correctcat": 0, "response": 0}, "26": {"stimulus": 40, "trial": 26, "rt": 1062, "correctcat": 1, "response": 0}, "27": {"stimulus": 50, "trial": 27, "rt": 1575, "correctcat": 0, "response": 0}, "20": {"stimulus": 40, "trial": 20, "rt": 2134, "correctcat": 1, "response": 1}, "21": {"stimulus": 32, "trial": 21, "rt": 18575, "correctcat": 0, "response": 0}, "22": {"stimulus": 32, "trial": 22, "rt": 2613, "correctcat": 1, "response": 1}, "23": {"stimulus": 50, "trial": 23, "rt": 172014, "correctcat": 1, "response": 0}, "28": {"stimulus": 32, "trial": 28, "rt": 806, "correctcat": 1, "response": 0}, "29": {"stimulus": 50, "trial": 29, "rt": 702, "correctcat": 1, "response": 1}, "1": {"stimulus": 50, "trial": 1, "rt": 949, "correctcat": 0, "response": 0}, "0": {"stimulus": 50, "trial": 0, "rt": 1601, "correctcat": 1, "response": 0}, "3": {"stimulus": 40, "trial": 3, "rt": 917, "correctcat": 1, "response": 1}, "2": {"stimulus": 32, "trial": 2, "rt": 878, "correctcat": 1, "response": 0}, "5": {"stimulus": 30, "trial": 5, "rt": 790, "correctcat": 0, "response": 1}, "4": {"stimulus": 32, "trial": 4, "rt": 1198, "correctcat": 0, "response": 0}, "7": {"stimulus": 41, "trial": 7, "rt": 973, "correctcat": 1, "response": 0}, "6": {"stimulus": 48, "trial": 6, "rt": 1324, "correctcat": 0, "response": 1}, "9": {"stimulus": 48, "trial": 9, "rt": 1160, "correctcat": 0, "response": 1}, "8": {"stimulus": 40, "trial": 8, "rt": 1542, "correctcat": 1, "response": 0}, "11": {"stimulus": 32, "trial": 11, "rt": 1007, "correctcat": 0, "response": 1}, "10": {"stimulus": 50, "trial": 10, "rt": 1278, "correctcat": 1, "response": 0}, "13": {"stimulus": 41, "trial": 13, "rt": 806, "correctcat": 1, "response": 0}, "12": {"stimulus": 32, "trial": 12, "rt": 1030, "correctcat": 1, "response": 1}, "15": {"stimulus": 50, "trial": 15, "rt": 862, "correctcat": 0, "response": 0}, "14": {"stimulus": 30, "trial": 14, "rt": 909, "correctcat": 0, "response": 0}, "17": {"stimulus": 50, "trial": 17, "rt": 831, "correctcat": 0, "response": 0}, "16": {"stimulus": 30, "trial": 16, "rt": 1375, "correctcat": 0, "response": 0}, "19": {"stimulus": 41, "trial": 19, "rt": 845, "correctcat": 1, "response": 0}, "18": {"stimulus": 48, "trial": 18, "rt": 814, "correctcat": 0, "response": 0}, "31": {"stimulus": 48, "trial": 31, "rt": 669, "correctcat": 0, "response": 1}, "30": {"stimulus": 41, "trial": 30, "rt": 918, "correctcat": 1, "response": 0}}, "experiment": {"Paradigm": "TACL", "Stimuli": "Size-Color Squares", "Experiment": "Assigning-Generated-Categories"}, "goodness": {"1": {"stimulus": 50, "trial": 1, "categoryRate": "NA", "rt": 1501, "rating": 8}, "0": {"stimulus": 32, "trial": 0, "categoryRate": "NA", "rt": 2205, "rating": 7}, "3": {"stimulus": 41, "trial": 3, "categoryRate": "NA", "rt": 1708, "rating": 7}, "2": {"stimulus": 50, "trial": 2, "categoryRate": "NA", "rt": 1117, "rating": 8}, "5": {"stimulus": 32, "trial": 5, "categoryRate": "NA", "rt": 2644, "rating": 7}, "4": {"stimulus": 30, "trial": 4, "categoryRate": "NA", "rt": 1557, "rating": 7}, "7": {"stimulus": 40, "trial": 7, "categoryRate": "NA", "rt": 1420, "rating": 6}, "6": {"stimulus": 48, "trial": 6, "categoryRate": "NA", "rt": 2213, "rating": 7}, "9": {"stimulus": -1, "trial": 9, "categoryRate": "Beta", "rt": 2004, "rating": 7}, "8": {"stimulus": -1, "trial": 8, "categoryRate": "Alpha", "rt": 1476, "rating": 7}}, "submit": {"timeTotal": 345093, "age": "20", "comments": "na", "sex": "female"}}