{"info": {"finish": 1521108650964, "participant": 132, "exposed": true, "stimuli": [12, 14, 30, 32, 59, 73, 66, 72], "lab": false, "pptmatch": 1, "start": 1521108426397, "catflip": false, "categories": [0, 0, 0, 0, 1, 1, 1, 1], "counterbalance": 1, "condition": "Bottom", "browser": {"platform": "Win32", "userAgent": "Mozilla/5.0 (Windows NT 10.0; Win64; x64) AppleWebKit/537.36 (KHTML, like Gecko) Chrome/64.0.3282.186 Safari/537.36"}}, "assignment": {"24": {"stimulus": 72, "trial": 24, "rt": 664, "correctcat": 1, "response": 1}, "25": {"stimulus": 66, "trial": 25, "rt": 906, "correctcat": 1, "response": 1}, "26": {"stimulus": 32, "trial": 26, "rt": 1024, "correctcat": 0, "response": 0}, "27": {"stimulus": 12, "trial": 27, "rt": 805, "correctcat": 0, "response": 0}, "20": {"stimulus": 32, "trial": 20, "rt": 859, "correctcat": 0, "response": 0}, "21": {"stimulus": 66, "trial": 21, "rt": 1018, "correctcat": 1, "response": 1}, "22": {"stimulus": 14, "trial": 22, "rt": 1104, "correctcat": 0, "response": 0}, "23": {"stimulus": 73, "trial": 23, "rt": 929, "correctcat": 1, "response": 1}, "28": {"stimulus": 73, "trial": 28, "rt": 903, "correctcat": 1, "response": 1}, "29": {"stimulus": 14, "trial": 29, "rt": 946, "correctcat": 0, "response": 0}, "1": {"stimulus": 12, "trial": 1, "rt": 2183, "correctcat": 0, "response": 0}, "0": {"stimulus": 14, "trial": 0, "rt": 2127, "correctcat": 0, "response": 0}, "3": {"stimulus": 30, "trial": 3, "rt": 867, "correctcat": 0, "response": 0}, "2": {"stimulus": 73, "trial": 2, "rt": 1028, "correctcat": 1, "response": 1}, "5": {"stimulus": 72, "trial": 5, "rt": 1355, "correctcat": 1, "response": 1}, "4": {"stimulus": 59, "trial": 4, "rt": 1071, "correctcat": 1, "response": 1}, "7": {"stimulus": 66, "trial": 7, "rt": 939, "correctcat": 1, "response": 1}, "6": {"stimulus": 32, "trial": 6, "rt": 938, "correctcat": 0, "response": 0}, "9": {"stimulus": 72, "trial": 9, "rt": 837, "correctcat": 1, "response": 1}, "8": {"stimulus": 59, "trial": 8, "rt": 1011, "correctcat": 1, "response": 1}, "11": {"stimulus": 32, "trial": 11, "rt": 939, "correctcat": 0, "response": 0}, "10": {"stimulus": 66, "trial": 10, "rt": 1214, "correctcat": 1, "response": 1}, "13": {"stimulus": 73, "trial": 13, "rt": 1005, "correctcat": 1, "response": 1}, "12": {"stimulus": 30, "trial": 12, "rt": 885, "correctcat": 0, "response": 0}, "15": {"stimulus": 14, "trial": 15, "rt": 649, "correctcat": 0, "response": 0}, "14": {"stimulus": 12, "trial": 14, "rt": 1107, "correctcat": 0, "response": 0}, "17": {"stimulus": 59, "trial": 17, "rt": 802, "correctcat": 1, "response": 1}, "16": {"stimulus": 72, "trial": 16, "rt": 1094, "correctcat": 1, "response": 1}, "19": {"stimulus": 30, "trial": 19, "rt": 832, "correctcat": 0, "response": 0}, "18": {"stimulus": 12, "trial": 18, "rt": 984, "correctcat": 0, "response": 0}, "31": {"stimulus": 59, "trial": 31, "rt": 1306, "correctcat": 1, "response": 1}, "30": {"stimulus": 30, "trial": 30, "rt": 1503, "correctcat": 0, "response": 0}}, "experiment": {"Paradigm": "TACL", "Stimuli": "Size-Color Squares", "Experiment": "Assigning-Generated-Categories"}, "goodness": {"1": {"stimulus": 12, "trial": 1, "categoryRate": "NA", "rt": 2226, "rating": 1}, "0": {"stimulus": 32, "trial": 0, "categoryRate": "NA", "rt": 9152, "rating": 4}, "3": {"stimulus": 66, "trial": 3, "categoryRate": "NA", "rt": 2017, "rating": 10}, "2": {"stimulus": 59, "trial": 2, "categoryRate": "NA", "rt": 2417, "rating": 8}, "5": {"stimulus": 72, "trial": 5, "categoryRate": "NA", "rt": 4210, "rating": 10}, "4": {"stimulus": 73, "trial": 4, "categoryRate": "NA", "rt": 2145, "rating": 10}, "7": {"stimulus": 14, "trial": 7, "categoryRate": "NA", "rt": 2058, "rating": 2}, "6": {"stimulus": 30, "trial": 6, "categoryRate": "NA", "rt": 2584, "rating": 3}, "9": {"stimulus": -1, "trial": 9, "categoryRate": "Alpha", "rt": 3609, "rating": 8}, "8": {"stimulus": -1, "trial": 8, "categoryRate": "Beta", "rt": 7625, "rating": 8}}, "submit": {"timeTotal": 225072, "age": "37", "comments": "this was fun! And the pay is fair. Thanks! :)", "sex": "female"}}