{"info": {"finish": 1521113248733, "participant": 139, "exposed": true, "stimuli": [12, 14, 30, 32, 64, 72, 36, 54], "lab": false, "pptmatch": 34, "start": 1521111967781, "catflip": false, "categories": [0, 0, 0, 0, 1, 1, 1, 1], "counterbalance": 6, "condition": "Bottom", "browser": {"platform": "Win32", "userAgent": "Mozilla/5.0 (Windows NT 10.0; Win64; x64) AppleWebKit/537.36 (KHTML, like Gecko) Chrome/64.0.3282.186 Safari/537.36"}}, "assignment": {"24": {"stimulus": 54, "trial": 24, "rt": 946, "correctcat": 1, "response": 1}, "25": {"stimulus": 64, "trial": 25, "rt": 835, "correctcat": 1, "response": 1}, "26": {"stimulus": 36, "trial": 26, "rt": 5445, "correctcat": 1, "response": 1}, "27": {"stimulus": 12, "trial": 27, "rt": 5297, "correctcat": 0, "response": 0}, "20": {"stimulus": 36, "trial": 20, "rt": 959, "correctcat": 1, "response": 1}, "21": {"stimulus": 30, "trial": 21, "rt": 2629, "correctcat": 0, "response": 0}, "22": {"stimulus": 12, "trial": 22, "rt": 3048, "correctcat": 0, "response": 0}, "23": {"stimulus": 64, "trial": 23, "rt": 1067, "correctcat": 1, "response": 1}, "28": {"stimulus": 72, "trial": 28, "rt": 761, "correctcat": 1, "response": 1}, "29": {"stimulus": 14, "trial": 29, "rt": 589, "correctcat": 0, "response": 0}, "1": {"stimulus": 30, "trial": 1, "rt": 1295, "correctcat": 0, "response": 1}, "0": {"stimulus": 36, "trial": 0, "rt": 2616, "correctcat": 1, "response": 0}, "3": {"stimulus": 54, "trial": 3, "rt": 659, "correctcat": 1, "response": 1}, "2": {"stimulus": 64, "trial": 2, "rt": 1269, "correctcat": 1, "response": 1}, "5": {"stimulus": 32, "trial": 5, "rt": 950, "correctcat": 0, "response": 0}, "4": {"stimulus": 72, "trial": 4, "rt": 608, "correctcat": 1, "response": 1}, "7": {"stimulus": 14, "trial": 7, "rt": 591, "correctcat": 0, "response": 0}, "6": {"stimulus": 12, "trial": 6, "rt": 571, "correctcat": 0, "response": 0}, "9": {"stimulus": 32, "trial": 9, "rt": 732, "correctcat": 0, "response": 0}, "8": {"stimulus": 30, "trial": 8, "rt": 744, "correctcat": 0, "response": 0}, "11": {"stimulus": 72, "trial": 11, "rt": 3448, "correctcat": 1, "response": 1}, "10": {"stimulus": 12, "trial": 10, "rt": 910, "correctcat": 0, "response": 0}, "13": {"stimulus": 14, "trial": 13, "rt": 1505, "correctcat": 0, "response": 0}, "12": {"stimulus": 64, "trial": 12, "rt": 773, "correctcat": 1, "response": 1}, "15": {"stimulus": 54, "trial": 15, "rt": 799, "correctcat": 1, "response": 1}, "14": {"stimulus": 36, "trial": 14, "rt": 6742, "correctcat": 1, "response": 1}, "17": {"stimulus": 72, "trial": 17, "rt": 3451, "correctcat": 1, "response": 1}, "16": {"stimulus": 14, "trial": 16, "rt": 1915, "correctcat": 0, "response": 0}, "19": {"stimulus": 54, "trial": 19, "rt": 1273, "correctcat": 1, "response": 1}, "18": {"stimulus": 32, "trial": 18, "rt": 810, "correctcat": 0, "response": 0}, "31": {"stimulus": 32, "trial": 31, "rt": 1327, "correctcat": 0, "response": 0}, "30": {"stimulus": 30, "trial": 30, "rt": 846, "correctcat": 0, "response": 0}}, "experiment": {"Paradigm": "TACL", "Stimuli": "Size-Color Squares", "Experiment": "Assigning-Generated-Categories"}, "goodness": {"1": {"stimulus": 12, "trial": 1, "categoryRate": "NA", "rt": 2983, "rating": 3}, "0": {"stimulus": 32, "trial": 0, "categoryRate": "NA", "rt": 10154, "rating": 7}, "3": {"stimulus": 36, "trial": 3, "categoryRate": "NA", "rt": 2264, "rating": 10}, "2": {"stimulus": 54, "trial": 2, "categoryRate": "NA", "rt": 2289, "rating": 10}, "5": {"stimulus": 72, "trial": 5, "categoryRate": "NA", "rt": 3293, "rating": 10}, "4": {"stimulus": 64, "trial": 4, "categoryRate": "NA", "rt": 3104, "rating": 8}, "7": {"stimulus": 14, "trial": 7, "categoryRate": "NA", "rt": 2215, "rating": 10}, "6": {"stimulus": 30, "trial": 6, "categoryRate": "NA", "rt": 5983, "rating": 10}, "9": {"stimulus": -1, "trial": 9, "categoryRate": "Beta", "rt": 7111, "rating": 1}, "8": {"stimulus": -1, "trial": 8, "categoryRate": "Alpha", "rt": 6763, "rating": 1}}, "submit": {"timeTotal": 1281195, "age": "19", "comments": "Was fun", "sex": "male"}}