{"info": {"finish": 1521112505425, "participant": 145, "exposed": true, "stimuli": [12, 14, 30, 32, 75, 76, 74, 73], "lab": false, "pptmatch": 2, "start": 1521112254107, "catflip": false, "categories": [0, 0, 0, 0, 1, 1, 1, 1], "counterbalance": 5, "condition": "Bottom", "browser": {"platform": "Linux x86_64", "userAgent": "Mozilla/5.0 (X11; CrOS x86_64 10176.76.0) AppleWebKit/537.36 (KHTML, like Gecko) Chrome/64.0.3282.190 Safari/537.36"}}, "assignment": {"24": {"stimulus": 12, "trial": 24, "rt": 583, "correctcat": 0, "response": 0}, "25": {"stimulus": 76, "trial": 25, "rt": 17909, "correctcat": 1, "response": 1}, "26": {"stimulus": 32, "trial": 26, "rt": 1864, "correctcat": 0, "response": 0}, "27": {"stimulus": 30, "trial": 27, "rt": 776, "correctcat": 0, "response": 1}, "20": {"stimulus": 76, "trial": 20, "rt": 2283, "correctcat": 1, "response": 0}, "21": {"stimulus": 30, "trial": 21, "rt": 468, "correctcat": 0, "response": 1}, "22": {"stimulus": 14, "trial": 22, "rt": 543, "correctcat": 0, "response": 0}, "23": {"stimulus": 74, "trial": 23, "rt": 1593, "correctcat": 1, "response": 1}, "28": {"stimulus": 14, "trial": 28, "rt": 556, "correctcat": 0, "response": 0}, "29": {"stimulus": 74, "trial": 29, "rt": 8598, "correctcat": 1, "response": 0}, "1": {"stimulus": 76, "trial": 1, "rt": 1292, "correctcat": 1, "response": 1}, "0": {"stimulus": 12, "trial": 0, "rt": 1961, "correctcat": 0, "response": 0}, "3": {"stimulus": 74, "trial": 3, "rt": 601, "correctcat": 1, "response": 1}, "2": {"stimulus": 75, "trial": 2, "rt": 1146, "correctcat": 1, "response": 0}, "5": {"stimulus": 73, "trial": 5, "rt": 4212, "correctcat": 1, "response": 0}, "4": {"stimulus": 30, "trial": 4, "rt": 1564, "correctcat": 0, "response": 1}, "7": {"stimulus": 32, "trial": 7, "rt": 724, "correctcat": 0, "response": 0}, "6": {"stimulus": 14, "trial": 6, "rt": 26939, "correctcat": 0, "response": 1}, "9": {"stimulus": 74, "trial": 9, "rt": 548, "correctcat": 1, "response": 0}, "8": {"stimulus": 14, "trial": 8, "rt": 413, "correctcat": 0, "response": 1}, "11": {"stimulus": 73, "trial": 11, "rt": 3272, "correctcat": 1, "response": 0}, "10": {"stimulus": 32, "trial": 10, "rt": 791, "correctcat": 0, "response": 1}, "13": {"stimulus": 30, "trial": 13, "rt": 4012, "correctcat": 0, "response": 1}, "12": {"stimulus": 12, "trial": 12, "rt": 808, "correctcat": 0, "response": 1}, "15": {"stimulus": 75, "trial": 15, "rt": 647, "correctcat": 1, "response": 0}, "14": {"stimulus": 76, "trial": 14, "rt": 644, "correctcat": 1, "response": 0}, "17": {"stimulus": 73, "trial": 17, "rt": 879, "correctcat": 1, "response": 0}, "16": {"stimulus": 75, "trial": 16, "rt": 1414, "correctcat": 1, "response": 1}, "19": {"stimulus": 32, "trial": 19, "rt": 1618, "correctcat": 0, "response": 0}, "18": {"stimulus": 12, "trial": 18, "rt": 2158, "correctcat": 0, "response": 1}, "31": {"stimulus": 73, "trial": 31, "rt": 902, "correctcat": 1, "response": 0}, "30": {"stimulus": 75, "trial": 30, "rt": 12027, "correctcat": 1, "response": 1}}, "experiment": {"Paradigm": "TACL", "Stimuli": "Size-Color Squares", "Experiment": "Assigning-Generated-Categories"}, "goodness": {"1": {"stimulus": 73, "trial": 1, "categoryRate": "NA", "rt": 7766, "rating": 10}, "0": {"stimulus": 76, "trial": 0, "categoryRate": "NA", "rt": 10454, "rating": 10}, "3": {"stimulus": 12, "trial": 3, "categoryRate": "NA", "rt": 2079, "rating": 0}, "2": {"stimulus": 75, "trial": 2, "categoryRate": "NA", "rt": 4605, "rating": 10}, "5": {"stimulus": 32, "trial": 5, "categoryRate": "NA", "rt": 2041, "rating": 10}, "4": {"stimulus": 74, "trial": 4, "categoryRate": "NA", "rt": 2241, "rating": 10}, "7": {"stimulus": 14, "trial": 7, "categoryRate": "NA", "rt": 1903, "rating": 0}, "6": {"stimulus": 30, "trial": 6, "categoryRate": "NA", "rt": 1868, "rating": 10}, "9": {"stimulus": -1, "trial": 9, "categoryRate": "Alpha", "rt": 2364, "rating": 10}, "8": {"stimulus": -1, "trial": 8, "categoryRate": "Beta", "rt": 3990, "rating": 10}}, "submit": {"timeTotal": 251649, "age": "25", "comments": "good experience and easy", "sex": "female"}}