{"info": {"finish": 1521117382663, "participant": 162, "exposed": true, "stimuli": [12, 14, 30, 32, 72, 80, 0, 8], "lab": false, "pptmatch": 50, "start": 1521116932383, "catflip": false, "categories": [0, 0, 0, 0, 1, 1, 1, 1], "counterbalance": 3, "condition": "Bottom", "browser": {"platform": "Win32", "userAgent": "Mozilla/5.0 (Windows NT 10.0; Win64; x64) AppleWebKit/537.36 (KHTML, like Gecko) Chrome/64.0.3282.186 Safari/537.36"}}, "assignment": {"24": {"stimulus": 72, "trial": 24, "rt": 1270, "correctcat": 1, "response": 1}, "25": {"stimulus": 0, "trial": 25, "rt": 1216, "correctcat": 1, "response": 1}, "26": {"stimulus": 30, "trial": 26, "rt": 1685, "correctcat": 0, "response": 0}, "27": {"stimulus": 12, "trial": 27, "rt": 1141, "correctcat": 0, "response": 0}, "20": {"stimulus": 32, "trial": 20, "rt": 1189, "correctcat": 0, "response": 0}, "21": {"stimulus": 30, "trial": 21, "rt": 646, "correctcat": 0, "response": 0}, "22": {"stimulus": 72, "trial": 22, "rt": 974, "correctcat": 1, "response": 1}, "23": {"stimulus": 8, "trial": 23, "rt": 1345, "correctcat": 1, "response": 0}, "28": {"stimulus": 32, "trial": 28, "rt": 829, "correctcat": 0, "response": 0}, "29": {"stimulus": 8, "trial": 29, "rt": 1430, "correctcat": 1, "response": 1}, "1": {"stimulus": 30, "trial": 1, "rt": 1125, "correctcat": 0, "response": 0}, "0": {"stimulus": 8, "trial": 0, "rt": 1960, "correctcat": 1, "response": 0}, "3": {"stimulus": 14, "trial": 3, "rt": 1454, "correctcat": 0, "response": 0}, "2": {"stimulus": 0, "trial": 2, "rt": 1062, "correctcat": 1, "response": 0}, "5": {"stimulus": 72, "trial": 5, "rt": 864, "correctcat": 1, "response": 0}, "4": {"stimulus": 32, "trial": 4, "rt": 872, "correctcat": 0, "response": 0}, "7": {"stimulus": 80, "trial": 7, "rt": 1858, "correctcat": 1, "response": 1}, "6": {"stimulus": 12, "trial": 6, "rt": 1143, "correctcat": 0, "response": 0}, "9": {"stimulus": 14, "trial": 9, "rt": 1526, "correctcat": 0, "response": 0}, "8": {"stimulus": 0, "trial": 8, "rt": 990, "correctcat": 1, "response": 0}, "11": {"stimulus": 12, "trial": 11, "rt": 1038, "correctcat": 0, "response": 0}, "10": {"stimulus": 30, "trial": 10, "rt": 2742, "correctcat": 0, "response": 1}, "13": {"stimulus": 80, "trial": 13, "rt": 1742, "correctcat": 1, "response": 1}, "12": {"stimulus": 72, "trial": 12, "rt": 1638, "correctcat": 1, "response": 1}, "15": {"stimulus": 32, "trial": 15, "rt": 2262, "correctcat": 0, "response": 0}, "14": {"stimulus": 8, "trial": 14, "rt": 2006, "correctcat": 1, "response": 1}, "17": {"stimulus": 14, "trial": 17, "rt": 37111, "correctcat": 0, "response": 0}, "16": {"stimulus": 0, "trial": 16, "rt": 1632, "correctcat": 1, "response": 1}, "19": {"stimulus": 12, "trial": 19, "rt": 1006, "correctcat": 0, "response": 0}, "18": {"stimulus": 80, "trial": 18, "rt": 3708, "correctcat": 1, "response": 1}, "31": {"stimulus": 14, "trial": 31, "rt": 1315, "correctcat": 0, "response": 0}, "30": {"stimulus": 80, "trial": 30, "rt": 1063, "correctcat": 1, "response": 1}}, "experiment": {"Paradigm": "TACL", "Stimuli": "Size-Color Squares", "Experiment": "Assigning-Generated-Categories"}, "goodness": {"1": {"stimulus": 72, "trial": 1, "categoryRate": "NA", "rt": 1837, "rating": 10}, "0": {"stimulus": 0, "trial": 0, "categoryRate": "NA", "rt": 36378, "rating": 10}, "3": {"stimulus": 32, "trial": 3, "categoryRate": "NA", "rt": 1989, "rating": 10}, "2": {"stimulus": 12, "trial": 2, "categoryRate": "NA", "rt": 3877, "rating": 10}, "5": {"stimulus": 8, "trial": 5, "categoryRate": "NA", "rt": 1925, "rating": 10}, "4": {"stimulus": 80, "trial": 4, "categoryRate": "NA", "rt": 1827, "rating": 10}, "7": {"stimulus": 30, "trial": 7, "categoryRate": "NA", "rt": 2301, "rating": 10}, "6": {"stimulus": 14, "trial": 6, "categoryRate": "NA", "rt": 2156, "rating": 10}, "9": {"stimulus": -1, "trial": 9, "categoryRate": "Beta", "rt": 2780, "rating": 10}, "8": {"stimulus": -1, "trial": 8, "categoryRate": "Alpha", "rt": 5829, "rating": 10}}, "submit": {"timeTotal": 450519, "age": "28", "comments": "", "sex": "female"}}