{"info": {"finish": 1521117445520, "participant": 163, "exposed": true, "stimuli": [12, 14, 30, 32, 72, 80, 78, 77], "lab": false, "pptmatch": 19, "start": 1521117180626, "catflip": false, "categories": [0, 0, 0, 0, 1, 1, 1, 1], "counterbalance": 2, "condition": "Bottom", "browser": {"platform": "Win32", "userAgent": "Mozilla/5.0 (Windows NT 10.0; Win64; x64) AppleWebKit/537.36 (KHTML, like Gecko) Chrome/64.0.3282.186 Safari/537.36"}}, "assignment": {"24": {"stimulus": 78, "trial": 24, "rt": 1120, "correctcat": 1, "response": 1}, "25": {"stimulus": 77, "trial": 25, "rt": 1481, "correctcat": 1, "response": 1}, "26": {"stimulus": 14, "trial": 26, "rt": 859, "correctcat": 0, "response": 0}, "27": {"stimulus": 32, "trial": 27, "rt": 1499, "correctcat": 0, "response": 0}, "20": {"stimulus": 80, "trial": 20, "rt": 971, "correctcat": 1, "response": 1}, "21": {"stimulus": 30, "trial": 21, "rt": 1140, "correctcat": 0, "response": 0}, "22": {"stimulus": 72, "trial": 22, "rt": 1154, "correctcat": 1, "response": 1}, "23": {"stimulus": 12, "trial": 23, "rt": 1324, "correctcat": 0, "response": 0}, "28": {"stimulus": 80, "trial": 28, "rt": 890, "correctcat": 1, "response": 1}, "29": {"stimulus": 72, "trial": 29, "rt": 834, "correctcat": 1, "response": 1}, "1": {"stimulus": 12, "trial": 1, "rt": 1383, "correctcat": 0, "response": 0}, "0": {"stimulus": 32, "trial": 0, "rt": 3308, "correctcat": 0, "response": 0}, "3": {"stimulus": 78, "trial": 3, "rt": 1384, "correctcat": 1, "response": 1}, "2": {"stimulus": 72, "trial": 2, "rt": 961, "correctcat": 1, "response": 0}, "5": {"stimulus": 77, "trial": 5, "rt": 1739, "correctcat": 1, "response": 1}, "4": {"stimulus": 80, "trial": 4, "rt": 1031, "correctcat": 1, "response": 1}, "7": {"stimulus": 14, "trial": 7, "rt": 1692, "correctcat": 0, "response": 0}, "6": {"stimulus": 30, "trial": 6, "rt": 1211, "correctcat": 0, "response": 0}, "9": {"stimulus": 72, "trial": 9, "rt": 1273, "correctcat": 1, "response": 1}, "8": {"stimulus": 80, "trial": 8, "rt": 1152, "correctcat": 1, "response": 1}, "11": {"stimulus": 32, "trial": 11, "rt": 1071, "correctcat": 0, "response": 0}, "10": {"stimulus": 78, "trial": 10, "rt": 1255, "correctcat": 1, "response": 1}, "13": {"stimulus": 12, "trial": 13, "rt": 849, "correctcat": 0, "response": 0}, "12": {"stimulus": 14, "trial": 12, "rt": 1102, "correctcat": 0, "response": 0}, "15": {"stimulus": 77, "trial": 15, "rt": 1213, "correctcat": 1, "response": 1}, "14": {"stimulus": 30, "trial": 14, "rt": 1089, "correctcat": 0, "response": 0}, "17": {"stimulus": 77, "trial": 17, "rt": 1236, "correctcat": 1, "response": 1}, "16": {"stimulus": 32, "trial": 16, "rt": 984, "correctcat": 0, "response": 0}, "19": {"stimulus": 14, "trial": 19, "rt": 946, "correctcat": 0, "response": 0}, "18": {"stimulus": 78, "trial": 18, "rt": 745, "correctcat": 1, "response": 1}, "31": {"stimulus": 12, "trial": 31, "rt": 608, "correctcat": 0, "response": 0}, "30": {"stimulus": 30, "trial": 30, "rt": 903, "correctcat": 0, "response": 0}}, "experiment": {"Paradigm": "TACL", "Stimuli": "Size-Color Squares", "Experiment": "Assigning-Generated-Categories"}, "goodness": {"1": {"stimulus": 78, "trial": 1, "categoryRate": "NA", "rt": 26340, "rating": 10}, "0": {"stimulus": 12, "trial": 0, "categoryRate": "NA", "rt": 9563, "rating": 10}, "3": {"stimulus": 30, "trial": 3, "categoryRate": "NA", "rt": 8865, "rating": 7}, "2": {"stimulus": 77, "trial": 2, "categoryRate": "NA", "rt": 5019, "rating": 10}, "5": {"stimulus": 72, "trial": 5, "categoryRate": "NA", "rt": 3721, "rating": 9}, "4": {"stimulus": 14, "trial": 4, "categoryRate": "NA", "rt": 2564, "rating": 10}, "7": {"stimulus": 80, "trial": 7, "categoryRate": "NA", "rt": 3470, "rating": 6}, "6": {"stimulus": 32, "trial": 6, "categoryRate": "NA", "rt": 3203, "rating": 8}, "9": {"stimulus": -1, "trial": 9, "categoryRate": "Beta", "rt": 4085, "rating": 10}, "8": {"stimulus": -1, "trial": 8, "categoryRate": "Alpha", "rt": 11309, "rating": 10}}, "submit": {"timeTotal": 265178, "age": "41", "comments": "no comment", "sex": "Male"}}