{"info": {"finish": 1521118713097, "participant": 167, "exposed": true, "stimuli": [12, 14, 30, 32, 72, 80, 0, 8], "lab": false, "pptmatch": 50, "start": 1521118357775, "catflip": false, "categories": [0, 0, 0, 0, 1, 1, 1, 1], "counterbalance": 3, "condition": "Bottom", "browser": {"platform": "Win32", "userAgent": "Mozilla/5.0 (Windows NT 10.0; Win64; x64) AppleWebKit/537.36 (KHTML, like Gecko) Chrome/65.0.3325.146 Safari/537.36"}}, "assignment": {"24": {"stimulus": 12, "trial": 24, "rt": 9011, "correctcat": 0, "response": 0}, "25": {"stimulus": 8, "trial": 25, "rt": 2014, "correctcat": 1, "response": 1}, "26": {"stimulus": 80, "trial": 26, "rt": 1742, "correctcat": 1, "response": 1}, "27": {"stimulus": 0, "trial": 27, "rt": 2419, "correctcat": 1, "response": 0}, "20": {"stimulus": 30, "trial": 20, "rt": 1073, "correctcat": 0, "response": 0}, "21": {"stimulus": 80, "trial": 21, "rt": 1291, "correctcat": 1, "response": 1}, "22": {"stimulus": 0, "trial": 22, "rt": 2396, "correctcat": 1, "response": 0}, "23": {"stimulus": 72, "trial": 23, "rt": 3055, "correctcat": 1, "response": 0}, "28": {"stimulus": 72, "trial": 28, "rt": 1510, "correctcat": 1, "response": 0}, "29": {"stimulus": 32, "trial": 29, "rt": 8508, "correctcat": 0, "response": 0}, "1": {"stimulus": 30, "trial": 1, "rt": 2070, "correctcat": 0, "response": 0}, "0": {"stimulus": 14, "trial": 0, "rt": 4472, "correctcat": 0, "response": 0}, "3": {"stimulus": 0, "trial": 3, "rt": 3489, "correctcat": 1, "response": 0}, "2": {"stimulus": 32, "trial": 2, "rt": 1571, "correctcat": 0, "response": 0}, "5": {"stimulus": 72, "trial": 5, "rt": 1866, "correctcat": 1, "response": 1}, "4": {"stimulus": 8, "trial": 4, "rt": 4776, "correctcat": 1, "response": 1}, "7": {"stimulus": 80, "trial": 7, "rt": 1203, "correctcat": 1, "response": 1}, "6": {"stimulus": 12, "trial": 6, "rt": 1399, "correctcat": 0, "response": 0}, "9": {"stimulus": 0, "trial": 9, "rt": 1475, "correctcat": 1, "response": 0}, "8": {"stimulus": 30, "trial": 8, "rt": 1444, "correctcat": 0, "response": 0}, "11": {"stimulus": 32, "trial": 11, "rt": 1184, "correctcat": 0, "response": 0}, "10": {"stimulus": 14, "trial": 10, "rt": 1285, "correctcat": 0, "response": 0}, "13": {"stimulus": 8, "trial": 13, "rt": 1356, "correctcat": 1, "response": 0}, "12": {"stimulus": 80, "trial": 12, "rt": 1149, "correctcat": 1, "response": 1}, "15": {"stimulus": 12, "trial": 15, "rt": 1612, "correctcat": 0, "response": 0}, "14": {"stimulus": 72, "trial": 14, "rt": 1289, "correctcat": 1, "response": 0}, "17": {"stimulus": 8, "trial": 17, "rt": 2466, "correctcat": 1, "response": 0}, "16": {"stimulus": 32, "trial": 16, "rt": 1825, "correctcat": 0, "response": 1}, "19": {"stimulus": 14, "trial": 19, "rt": 4925, "correctcat": 0, "response": 0}, "18": {"stimulus": 12, "trial": 18, "rt": 1107, "correctcat": 0, "response": 0}, "31": {"stimulus": 14, "trial": 31, "rt": 3160, "correctcat": 0, "response": 0}, "30": {"stimulus": 30, "trial": 30, "rt": 1520, "correctcat": 0, "response": 0}}, "experiment": {"Paradigm": "TACL", "Stimuli": "Size-Color Squares", "Experiment": "Assigning-Generated-Categories"}, "goodness": {"1": {"stimulus": 32, "trial": 1, "categoryRate": "NA", "rt": 2561, "rating": 10}, "0": {"stimulus": 72, "trial": 0, "categoryRate": "NA", "rt": 76909, "rating": 0}, "3": {"stimulus": 0, "trial": 3, "categoryRate": "NA", "rt": 1536, "rating": 10}, "2": {"stimulus": 8, "trial": 2, "categoryRate": "NA", "rt": 1888, "rating": 10}, "5": {"stimulus": 30, "trial": 5, "categoryRate": "NA", "rt": 1784, "rating": 10}, "4": {"stimulus": 80, "trial": 4, "categoryRate": "NA", "rt": 2335, "rating": 0}, "7": {"stimulus": 14, "trial": 7, "categoryRate": "NA", "rt": 1542, "rating": 10}, "6": {"stimulus": 12, "trial": 6, "categoryRate": "NA", "rt": 1338, "rating": 10}, "9": {"stimulus": -1, "trial": 9, "categoryRate": "Alpha", "rt": 2933, "rating": 9}, "8": {"stimulus": -1, "trial": 8, "categoryRate": "Beta", "rt": 15887, "rating": 9}}, "submit": {"timeTotal": 355609, "age": "28", "comments": "Its enjoyable", "sex": "female"}}