{"info": {"finish": 1521119230580, "participant": 168, "exposed": true, "stimuli": [12, 14, 30, 32, 72, 80, 8, 0], "lab": false, "pptmatch": 63, "start": 1521118806110, "catflip": false, "categories": [0, 0, 0, 0, 1, 1, 1, 1], "counterbalance": 2, "condition": "Bottom", "browser": {"platform": "MacIntel", "userAgent": "Mozilla/5.0 (Macintosh; Intel Mac OS X 10_13_3) AppleWebKit/537.36 (KHTML, like Gecko) Chrome/64.0.3282.186 Safari/537.36"}}, "assignment": {"24": {"stimulus": 14, "trial": 24, "rt": 354, "correctcat": 0, "response": 1}, "25": {"stimulus": 12, "trial": 25, "rt": 307, "correctcat": 0, "response": 1}, "26": {"stimulus": 30, "trial": 26, "rt": 205, "correctcat": 0, "response": 1}, "27": {"stimulus": 32, "trial": 27, "rt": 508, "correctcat": 0, "response": 1}, "20": {"stimulus": 0, "trial": 20, "rt": 216, "correctcat": 1, "response": 1}, "21": {"stimulus": 8, "trial": 21, "rt": 447, "correctcat": 1, "response": 1}, "22": {"stimulus": 72, "trial": 22, "rt": 440, "correctcat": 1, "response": 1}, "23": {"stimulus": 80, "trial": 23, "rt": 414, "correctcat": 1, "response": 1}, "28": {"stimulus": 80, "trial": 28, "rt": 1167, "correctcat": 1, "response": 1}, "29": {"stimulus": 8, "trial": 29, "rt": 884, "correctcat": 1, "response": 1}, "1": {"stimulus": 30, "trial": 1, "rt": 133585, "correctcat": 0, "response": 0}, "0": {"stimulus": 72, "trial": 0, "rt": 4989, "correctcat": 1, "response": 0}, "3": {"stimulus": 0, "trial": 3, "rt": 1560, "correctcat": 1, "response": 0}, "2": {"stimulus": 80, "trial": 2, "rt": 47246, "correctcat": 1, "response": 1}, "5": {"stimulus": 8, "trial": 5, "rt": 183, "correctcat": 1, "response": 1}, "4": {"stimulus": 12, "trial": 4, "rt": 1200, "correctcat": 0, "response": 1}, "7": {"stimulus": 32, "trial": 7, "rt": 254, "correctcat": 0, "response": 1}, "6": {"stimulus": 14, "trial": 6, "rt": 398, "correctcat": 0, "response": 1}, "9": {"stimulus": 32, "trial": 9, "rt": 367, "correctcat": 0, "response": 1}, "8": {"stimulus": 72, "trial": 8, "rt": 288, "correctcat": 1, "response": 1}, "11": {"stimulus": 8, "trial": 11, "rt": 300, "correctcat": 1, "response": 1}, "10": {"stimulus": 14, "trial": 10, "rt": 152, "correctcat": 0, "response": 1}, "13": {"stimulus": 30, "trial": 13, "rt": 300, "correctcat": 0, "response": 1}, "12": {"stimulus": 0, "trial": 12, "rt": 238, "correctcat": 1, "response": 1}, "15": {"stimulus": 80, "trial": 15, "rt": 289, "correctcat": 1, "response": 1}, "14": {"stimulus": 12, "trial": 14, "rt": 438, "correctcat": 0, "response": 1}, "17": {"stimulus": 14, "trial": 17, "rt": 1129, "correctcat": 0, "response": 1}, "16": {"stimulus": 32, "trial": 16, "rt": 403, "correctcat": 0, "response": 1}, "19": {"stimulus": 12, "trial": 19, "rt": 368, "correctcat": 0, "response": 1}, "18": {"stimulus": 30, "trial": 18, "rt": 923, "correctcat": 0, "response": 1}, "31": {"stimulus": 0, "trial": 31, "rt": 435, "correctcat": 1, "response": 1}, "30": {"stimulus": 72, "trial": 30, "rt": 684, "correctcat": 1, "response": 1}}, "experiment": {"Paradigm": "TACL", "Stimuli": "Size-Color Squares", "Experiment": "Assigning-Generated-Categories"}, "goodness": {"1": {"stimulus": 12, "trial": 1, "categoryRate": "NA", "rt": 4078, "rating": 7}, "0": {"stimulus": 14, "trial": 0, "categoryRate": "NA", "rt": 76901, "rating": 9}, "3": {"stimulus": 32, "trial": 3, "categoryRate": "NA", "rt": 3043, "rating": 8}, "2": {"stimulus": 8, "trial": 2, "categoryRate": "NA", "rt": 2795, "rating": 7}, "5": {"stimulus": 72, "trial": 5, "categoryRate": "NA", "rt": 932, "rating": 7}, "4": {"stimulus": 0, "trial": 4, "categoryRate": "NA", "rt": 1027, "rating": 6}, "7": {"stimulus": 80, "trial": 7, "categoryRate": "NA", "rt": 1724, "rating": 6}, "6": {"stimulus": 30, "trial": 6, "categoryRate": "NA", "rt": 2004, "rating": 8}, "9": {"stimulus": -1, "trial": 9, "categoryRate": "Alpha", "rt": 1229, "rating": 4}, "8": {"stimulus": -1, "trial": 8, "categoryRate": "Beta", "rt": 1956, "rating": 6}}, "submit": {"timeTotal": 424615, "age": "28", "comments": "", "sex": "male"}}