{"info": {"finish": 1521119574084, "participant": 169, "exposed": true, "stimuli": [30, 32, 48, 50, 7, 8, 5, 6], "lab": false, "pptmatch": 3, "start": 1521119382065, "catflip": true, "categories": [1, 1, 1, 1, 0, 0, 0, 0], "counterbalance": 2, "condition": "Middle", "browser": {"platform": "Win32", "userAgent": "Mozilla/5.0 (Windows NT 6.3; Win64; x64) AppleWebKit/537.36 (KHTML, like Gecko) Chrome/64.0.3282.186 Safari/537.36"}}, "assignment": {"24": {"stimulus": 50, "trial": 24, "rt": 730, "correctcat": 1, "response": 1}, "25": {"stimulus": 5, "trial": 25, "rt": 897, "correctcat": 0, "response": 1}, "26": {"stimulus": 6, "trial": 26, "rt": 748, "correctcat": 0, "response": 0}, "27": {"stimulus": 30, "trial": 27, "rt": 804, "correctcat": 1, "response": 1}, "20": {"stimulus": 6, "trial": 20, "rt": 666, "correctcat": 0, "response": 1}, "21": {"stimulus": 30, "trial": 21, "rt": 640, "correctcat": 1, "response": 0}, "22": {"stimulus": 5, "trial": 22, "rt": 574, "correctcat": 0, "response": 1}, "23": {"stimulus": 48, "trial": 23, "rt": 763, "correctcat": 1, "response": 0}, "28": {"stimulus": 48, "trial": 28, "rt": 723, "correctcat": 1, "response": 0}, "29": {"stimulus": 8, "trial": 29, "rt": 660, "correctcat": 0, "response": 1}, "1": {"stimulus": 6, "trial": 1, "rt": 2202, "correctcat": 0, "response": 1}, "0": {"stimulus": 30, "trial": 0, "rt": 2881, "correctcat": 1, "response": 1}, "3": {"stimulus": 32, "trial": 3, "rt": 984, "correctcat": 1, "response": 1}, "2": {"stimulus": 7, "trial": 2, "rt": 3092, "correctcat": 0, "response": 0}, "5": {"stimulus": 5, "trial": 5, "rt": 1584, "correctcat": 0, "response": 1}, "4": {"stimulus": 48, "trial": 4, "rt": 1036, "correctcat": 1, "response": 1}, "7": {"stimulus": 50, "trial": 7, "rt": 1068, "correctcat": 1, "response": 1}, "6": {"stimulus": 8, "trial": 6, "rt": 888, "correctcat": 0, "response": 0}, "9": {"stimulus": 48, "trial": 9, "rt": 794, "correctcat": 1, "response": 1}, "8": {"stimulus": 32, "trial": 8, "rt": 915, "correctcat": 1, "response": 0}, "11": {"stimulus": 5, "trial": 11, "rt": 1025, "correctcat": 0, "response": 0}, "10": {"stimulus": 6, "trial": 10, "rt": 964, "correctcat": 0, "response": 1}, "13": {"stimulus": 50, "trial": 13, "rt": 957, "correctcat": 1, "response": 0}, "12": {"stimulus": 30, "trial": 12, "rt": 948, "correctcat": 1, "response": 1}, "15": {"stimulus": 7, "trial": 15, "rt": 840, "correctcat": 0, "response": 0}, "14": {"stimulus": 8, "trial": 14, "rt": 616, "correctcat": 0, "response": 1}, "17": {"stimulus": 50, "trial": 17, "rt": 799, "correctcat": 1, "response": 0}, "16": {"stimulus": 8, "trial": 16, "rt": 776, "correctcat": 0, "response": 1}, "19": {"stimulus": 7, "trial": 19, "rt": 957, "correctcat": 0, "response": 0}, "18": {"stimulus": 32, "trial": 18, "rt": 860, "correctcat": 1, "response": 1}, "31": {"stimulus": 7, "trial": 31, "rt": 659, "correctcat": 0, "response": 1}, "30": {"stimulus": 32, "trial": 30, "rt": 760, "correctcat": 1, "response": 0}}, "experiment": {"Paradigm": "TACL", "Stimuli": "Size-Color Squares", "Experiment": "Assigning-Generated-Categories"}, "goodness": {"1": {"stimulus": 30, "trial": 1, "categoryRate": "NA", "rt": 3717, "rating": 6}, "0": {"stimulus": 6, "trial": 0, "categoryRate": "NA", "rt": 9119, "rating": 3}, "3": {"stimulus": 8, "trial": 3, "categoryRate": "NA", "rt": 2533, "rating": 2}, "2": {"stimulus": 32, "trial": 2, "categoryRate": "NA", "rt": 3307, "rating": 7}, "5": {"stimulus": 50, "trial": 5, "categoryRate": "NA", "rt": 1597, "rating": 8}, "4": {"stimulus": 48, "trial": 4, "categoryRate": "NA", "rt": 2254, "rating": 7}, "7": {"stimulus": 5, "trial": 7, "categoryRate": "NA", "rt": 3872, "rating": 3}, "6": {"stimulus": 7, "trial": 6, "categoryRate": "NA", "rt": 1461, "rating": 1}, "9": {"stimulus": -1, "trial": 9, "categoryRate": "Alpha", "rt": 4076, "rating": 6}, "8": {"stimulus": -1, "trial": 8, "categoryRate": "Beta", "rt": 12426, "rating": 3}}, "submit": {"timeTotal": 192407, "age": "34", "comments": "", "sex": "Female"}}