{"info": {"finish": 1521121809165, "participant": 172, "exposed": true, "stimuli": [12, 14, 30, 32, 59, 73, 66, 72], "lab": false, "pptmatch": 1, "start": 1521121336900, "catflip": false, "categories": [0, 0, 0, 0, 1, 1, 1, 1], "counterbalance": 1, "condition": "Bottom", "browser": {"platform": "Win32", "userAgent": "Mozilla/5.0 (Windows NT 6.1; Win64; x64) AppleWebKit/537.36 (KHTML, like Gecko) Chrome/64.0.3282.186 Safari/537.36"}}, "assignment": {"24": {"stimulus": 59, "trial": 24, "rt": 1002, "correctcat": 1, "response": 1}, "25": {"stimulus": 72, "trial": 25, "rt": 625, "correctcat": 1, "response": 1}, "26": {"stimulus": 14, "trial": 26, "rt": 577, "correctcat": 0, "response": 0}, "27": {"stimulus": 12, "trial": 27, "rt": 629, "correctcat": 0, "response": 0}, "20": {"stimulus": 73, "trial": 20, "rt": 837, "correctcat": 1, "response": 1}, "21": {"stimulus": 30, "trial": 21, "rt": 787, "correctcat": 0, "response": 0}, "22": {"stimulus": 59, "trial": 22, "rt": 1540, "correctcat": 1, "response": 1}, "23": {"stimulus": 14, "trial": 23, "rt": 987, "correctcat": 0, "response": 0}, "28": {"stimulus": 32, "trial": 28, "rt": 761, "correctcat": 0, "response": 0}, "29": {"stimulus": 66, "trial": 29, "rt": 715, "correctcat": 1, "response": 1}, "1": {"stimulus": 14, "trial": 1, "rt": 1064, "correctcat": 0, "response": 0}, "0": {"stimulus": 73, "trial": 0, "rt": 3228, "correctcat": 1, "response": 0}, "3": {"stimulus": 72, "trial": 3, "rt": 438, "correctcat": 1, "response": 1}, "2": {"stimulus": 30, "trial": 2, "rt": 1031, "correctcat": 0, "response": 0}, "5": {"stimulus": 32, "trial": 5, "rt": 765, "correctcat": 0, "response": 0}, "4": {"stimulus": 12, "trial": 4, "rt": 749, "correctcat": 0, "response": 0}, "7": {"stimulus": 66, "trial": 7, "rt": 843, "correctcat": 1, "response": 1}, "6": {"stimulus": 59, "trial": 6, "rt": 1574, "correctcat": 1, "response": 1}, "9": {"stimulus": 72, "trial": 9, "rt": 593, "correctcat": 1, "response": 1}, "8": {"stimulus": 73, "trial": 8, "rt": 623, "correctcat": 1, "response": 1}, "11": {"stimulus": 66, "trial": 11, "rt": 1206, "correctcat": 1, "response": 1}, "10": {"stimulus": 14, "trial": 10, "rt": 1164, "correctcat": 0, "response": 0}, "13": {"stimulus": 30, "trial": 13, "rt": 1740, "correctcat": 0, "response": 0}, "12": {"stimulus": 59, "trial": 12, "rt": 1157, "correctcat": 1, "response": 0}, "15": {"stimulus": 32, "trial": 15, "rt": 1325, "correctcat": 0, "response": 0}, "14": {"stimulus": 12, "trial": 14, "rt": 791, "correctcat": 0, "response": 0}, "17": {"stimulus": 32, "trial": 17, "rt": 1088, "correctcat": 0, "response": 0}, "16": {"stimulus": 66, "trial": 16, "rt": 1260, "correctcat": 1, "response": 1}, "19": {"stimulus": 72, "trial": 19, "rt": 1009, "correctcat": 1, "response": 1}, "18": {"stimulus": 12, "trial": 18, "rt": 1039, "correctcat": 0, "response": 0}, "31": {"stimulus": 30, "trial": 31, "rt": 929, "correctcat": 0, "response": 0}, "30": {"stimulus": 73, "trial": 30, "rt": 949, "correctcat": 1, "response": 1}}, "experiment": {"Paradigm": "TACL", "Stimuli": "Size-Color Squares", "Experiment": "Assigning-Generated-Categories"}, "goodness": {"1": {"stimulus": 66, "trial": 1, "categoryRate": "NA", "rt": 8927, "rating": 8}, "0": {"stimulus": 73, "trial": 0, "categoryRate": "NA", "rt": 9909, "rating": 0}, "3": {"stimulus": 72, "trial": 3, "categoryRate": "NA", "rt": 1793, "rating": 10}, "2": {"stimulus": 14, "trial": 2, "categoryRate": "NA", "rt": 4938, "rating": 8}, "5": {"stimulus": 12, "trial": 5, "categoryRate": "NA", "rt": 1758, "rating": 3}, "4": {"stimulus": 59, "trial": 4, "categoryRate": "NA", "rt": 1861, "rating": 7}, "7": {"stimulus": 30, "trial": 7, "categoryRate": "NA", "rt": 3329, "rating": 2}, "6": {"stimulus": 32, "trial": 6, "categoryRate": "NA", "rt": 1896, "rating": 7}, "9": {"stimulus": -1, "trial": 9, "categoryRate": "Beta", "rt": 2818, "rating": 10}, "8": {"stimulus": -1, "trial": 8, "categoryRate": "Alpha", "rt": 7378, "rating": 10}}, "submit": {"timeTotal": 472364, "age": "24", "comments": "", "sex": "Male"}}