{"info": {"finish": 1521123435648, "participant": 176, "exposed": true, "stimuli": [30, 32, 48, 50, 41, 32, 50, 40], "lab": false, "pptmatch": 44, "start": 1521123248940, "catflip": false, "categories": [0, 0, 0, 0, 1, 1, 1, 1], "counterbalance": 7, "condition": "Middle", "browser": {"platform": "Win32", "userAgent": "Mozilla/5.0 (Windows NT 6.3; Win64; x64) AppleWebKit/537.36 (KHTML, like Gecko) Chrome/64.0.3282.186 Safari/537.36"}}, "assignment": {"24": {"stimulus": 30, "trial": 24, "rt": 523, "correctcat": 0, "response": 1}, "25": {"stimulus": 50, "trial": 25, "rt": 861, "correctcat": 0, "response": 1}, "26": {"stimulus": 41, "trial": 26, "rt": 1054, "correctcat": 1, "response": 0}, "27": {"stimulus": 50, "trial": 27, "rt": 1363, "correctcat": 1, "response": 1}, "20": {"stimulus": 40, "trial": 20, "rt": 726, "correctcat": 1, "response": 0}, "21": {"stimulus": 50, "trial": 21, "rt": 906, "correctcat": 1, "response": 0}, "22": {"stimulus": 41, "trial": 22, "rt": 561, "correctcat": 1, "response": 1}, "23": {"stimulus": 32, "trial": 23, "rt": 397, "correctcat": 0, "response": 1}, "28": {"stimulus": 40, "trial": 28, "rt": 1181, "correctcat": 1, "response": 0}, "29": {"stimulus": 32, "trial": 29, "rt": 882, "correctcat": 1, "response": 1}, "1": {"stimulus": 48, "trial": 1, "rt": 741, "correctcat": 0, "response": 1}, "0": {"stimulus": 41, "trial": 0, "rt": 1962, "correctcat": 1, "response": 0}, "3": {"stimulus": 50, "trial": 3, "rt": 2490, "correctcat": 1, "response": 1}, "2": {"stimulus": 40, "trial": 2, "rt": 657, "correctcat": 1, "response": 1}, "5": {"stimulus": 32, "trial": 5, "rt": 1399, "correctcat": 1, "response": 0}, "4": {"stimulus": 32, "trial": 4, "rt": 641, "correctcat": 0, "response": 1}, "7": {"stimulus": 50, "trial": 7, "rt": 1048, "correctcat": 0, "response": 1}, "6": {"stimulus": 30, "trial": 6, "rt": 1275, "correctcat": 0, "response": 0}, "9": {"stimulus": 48, "trial": 9, "rt": 1439, "correctcat": 0, "response": 1}, "8": {"stimulus": 50, "trial": 8, "rt": 1134, "correctcat": 0, "response": 1}, "11": {"stimulus": 41, "trial": 11, "rt": 584, "correctcat": 1, "response": 0}, "10": {"stimulus": 32, "trial": 10, "rt": 1157, "correctcat": 0, "response": 0}, "13": {"stimulus": 40, "trial": 13, "rt": 805, "correctcat": 1, "response": 0}, "12": {"stimulus": 30, "trial": 12, "rt": 451, "correctcat": 0, "response": 0}, "15": {"stimulus": 32, "trial": 15, "rt": 1054, "correctcat": 1, "response": 0}, "14": {"stimulus": 50, "trial": 14, "rt": 780, "correctcat": 1, "response": 0}, "17": {"stimulus": 50, "trial": 17, "rt": 2050, "correctcat": 0, "response": 0}, "16": {"stimulus": 32, "trial": 16, "rt": 4969, "correctcat": 1, "response": 1}, "19": {"stimulus": 30, "trial": 19, "rt": 530, "correctcat": 0, "response": 0}, "18": {"stimulus": 48, "trial": 18, "rt": 663, "correctcat": 0, "response": 1}, "31": {"stimulus": 48, "trial": 31, "rt": 2412, "correctcat": 0, "response": 0}, "30": {"stimulus": 32, "trial": 30, "rt": 640, "correctcat": 0, "response": 1}}, "experiment": {"Paradigm": "TACL", "Stimuli": "Size-Color Squares", "Experiment": "Assigning-Generated-Categories"}, "goodness": {"1": {"stimulus": 48, "trial": 1, "categoryRate": "NA", "rt": 1252, "rating": 3}, "0": {"stimulus": 32, "trial": 0, "categoryRate": "NA", "rt": 8412, "rating": 2}, "3": {"stimulus": 50, "trial": 3, "categoryRate": "NA", "rt": 2231, "rating": 4}, "2": {"stimulus": 50, "trial": 2, "categoryRate": "NA", "rt": 1863, "rating": 4}, "5": {"stimulus": 32, "trial": 5, "categoryRate": "NA", "rt": 7401, "rating": 4}, "4": {"stimulus": 40, "trial": 4, "categoryRate": "NA", "rt": 3143, "rating": 4}, "7": {"stimulus": 41, "trial": 7, "categoryRate": "NA", "rt": 2373, "rating": 5}, "6": {"stimulus": 30, "trial": 6, "categoryRate": "NA", "rt": 3205, "rating": 5}, "9": {"stimulus": -1, "trial": 9, "categoryRate": "Alpha", "rt": 2749, "rating": 0}, "8": {"stimulus": -1, "trial": 8, "categoryRate": "Beta", "rt": 4649, "rating": 0}}, "submit": {"timeTotal": 186918, "age": "35", "comments": "I don't know what this was about.", "sex": "male"}}