{"info": {"finish": 1521124295486, "participant": 178, "exposed": true, "stimuli": [12, 14, 30, 32, 75, 76, 74, 73], "lab": false, "pptmatch": 2, "start": 1521124037912, "catflip": false, "categories": [0, 0, 0, 0, 1, 1, 1, 1], "counterbalance": 5, "condition": "Bottom", "browser": {"platform": "Win64", "userAgent": "Mozilla/5.0 (Windows NT 10.0; Win64; x64; rv:59.0) Gecko/20100101 Firefox/59.0"}}, "assignment": {"24": {"stimulus": 75, "trial": 24, "rt": 1054, "correctcat": 1, "response": 1}, "25": {"stimulus": 14, "trial": 25, "rt": 858, "correctcat": 0, "response": 0}, "26": {"stimulus": 30, "trial": 26, "rt": 1094, "correctcat": 0, "response": 0}, "27": {"stimulus": 74, "trial": 27, "rt": 804, "correctcat": 1, "response": 1}, "20": {"stimulus": 14, "trial": 20, "rt": 1294, "correctcat": 0, "response": 0}, "21": {"stimulus": 30, "trial": 21, "rt": 1340, "correctcat": 0, "response": 0}, "22": {"stimulus": 75, "trial": 22, "rt": 786, "correctcat": 1, "response": 1}, "23": {"stimulus": 32, "trial": 23, "rt": 1104, "correctcat": 0, "response": 0}, "28": {"stimulus": 32, "trial": 28, "rt": 808, "correctcat": 0, "response": 0}, "29": {"stimulus": 12, "trial": 29, "rt": 1234, "correctcat": 0, "response": 0}, "1": {"stimulus": 75, "trial": 1, "rt": 1536, "correctcat": 1, "response": 0}, "0": {"stimulus": 30, "trial": 0, "rt": 2266, "correctcat": 0, "response": 1}, "3": {"stimulus": 12, "trial": 3, "rt": 2370, "correctcat": 0, "response": 1}, "2": {"stimulus": 76, "trial": 2, "rt": 1074, "correctcat": 1, "response": 1}, "5": {"stimulus": 73, "trial": 5, "rt": 1504, "correctcat": 1, "response": 1}, "4": {"stimulus": 74, "trial": 4, "rt": 1386, "correctcat": 1, "response": 1}, "7": {"stimulus": 14, "trial": 7, "rt": 1042, "correctcat": 0, "response": 0}, "6": {"stimulus": 32, "trial": 6, "rt": 1050, "correctcat": 0, "response": 0}, "9": {"stimulus": 76, "trial": 9, "rt": 1342, "correctcat": 1, "response": 1}, "8": {"stimulus": 73, "trial": 8, "rt": 892, "correctcat": 1, "response": 1}, "11": {"stimulus": 74, "trial": 11, "rt": 1158, "correctcat": 1, "response": 1}, "10": {"stimulus": 12, "trial": 10, "rt": 954, "correctcat": 0, "response": 0}, "13": {"stimulus": 14, "trial": 13, "rt": 1002, "correctcat": 0, "response": 0}, "12": {"stimulus": 32, "trial": 12, "rt": 2292, "correctcat": 0, "response": 0}, "15": {"stimulus": 30, "trial": 15, "rt": 1440, "correctcat": 0, "response": 0}, "14": {"stimulus": 75, "trial": 14, "rt": 826, "correctcat": 1, "response": 1}, "17": {"stimulus": 76, "trial": 17, "rt": 772, "correctcat": 1, "response": 1}, "16": {"stimulus": 12, "trial": 16, "rt": 1912, "correctcat": 0, "response": 0}, "19": {"stimulus": 73, "trial": 19, "rt": 690, "correctcat": 1, "response": 1}, "18": {"stimulus": 74, "trial": 18, "rt": 692, "correctcat": 1, "response": 1}, "31": {"stimulus": 76, "trial": 31, "rt": 1000, "correctcat": 1, "response": 1}, "30": {"stimulus": 73, "trial": 30, "rt": 820, "correctcat": 1, "response": 1}}, "experiment": {"Paradigm": "TACL", "Stimuli": "Size-Color Squares", "Experiment": "Assigning-Generated-Categories"}, "goodness": {"1": {"stimulus": 75, "trial": 1, "categoryRate": "NA", "rt": 2548, "rating": 3}, "0": {"stimulus": 76, "trial": 0, "categoryRate": "NA", "rt": 18796, "rating": 3}, "3": {"stimulus": 30, "trial": 3, "categoryRate": "NA", "rt": 2592, "rating": 6}, "2": {"stimulus": 12, "trial": 2, "categoryRate": "NA", "rt": 2026, "rating": 10}, "5": {"stimulus": 14, "trial": 5, "categoryRate": "NA", "rt": 1808, "rating": 9}, "4": {"stimulus": 32, "trial": 4, "categoryRate": "NA", "rt": 2554, "rating": 7}, "7": {"stimulus": 73, "trial": 7, "categoryRate": "NA", "rt": 2236, "rating": 9}, "6": {"stimulus": 74, "trial": 6, "categoryRate": "NA", "rt": 3436, "rating": 10}, "9": {"stimulus": -1, "trial": 9, "categoryRate": "Beta", "rt": 5200, "rating": 10}, "8": {"stimulus": -1, "trial": 8, "categoryRate": "Alpha", "rt": 11188, "rating": 6}}, "submit": {}}