{"info": {"finish": 1521124330372, "participant": 181, "exposed": true, "stimuli": [12, 14, 30, 32, 72, 80, 8, 0], "lab": false, "pptmatch": 63, "start": 1521124077875, "catflip": true, "categories": [1, 1, 1, 1, 0, 0, 0, 0], "counterbalance": 2, "condition": "Bottom", "browser": {"platform": "Win32", "userAgent": "Mozilla/5.0 (Windows NT 10.0; WOW64) AppleWebKit/537.36 (KHTML, like Gecko) Chrome/64.0.3282.186 Safari/537.36"}}, "assignment": {"24": {"stimulus": 12, "trial": 24, "rt": 1428, "correctcat": 1, "response": 1}, "25": {"stimulus": 80, "trial": 25, "rt": 1450, "correctcat": 0, "response": 0}, "26": {"stimulus": 0, "trial": 26, "rt": 1184, "correctcat": 0, "response": 0}, "27": {"stimulus": 14, "trial": 27, "rt": 1494, "correctcat": 1, "response": 1}, "20": {"stimulus": 14, "trial": 20, "rt": 925, "correctcat": 1, "response": 1}, "21": {"stimulus": 8, "trial": 21, "rt": 1656, "correctcat": 0, "response": 0}, "22": {"stimulus": 80, "trial": 22, "rt": 831, "correctcat": 0, "response": 0}, "23": {"stimulus": 12, "trial": 23, "rt": 855, "correctcat": 1, "response": 0}, "28": {"stimulus": 30, "trial": 28, "rt": 1814, "correctcat": 1, "response": 1}, "29": {"stimulus": 72, "trial": 29, "rt": 1379, "correctcat": 0, "response": 0}, "1": {"stimulus": 14, "trial": 1, "rt": 1536, "correctcat": 1, "response": 1}, "0": {"stimulus": 72, "trial": 0, "rt": 4552, "correctcat": 0, "response": 0}, "3": {"stimulus": 12, "trial": 3, "rt": 892, "correctcat": 1, "response": 1}, "2": {"stimulus": 32, "trial": 2, "rt": 1082, "correctcat": 1, "response": 1}, "5": {"stimulus": 30, "trial": 5, "rt": 1754, "correctcat": 1, "response": 1}, "4": {"stimulus": 0, "trial": 4, "rt": 1214, "correctcat": 0, "response": 1}, "7": {"stimulus": 80, "trial": 7, "rt": 1714, "correctcat": 0, "response": 0}, "6": {"stimulus": 8, "trial": 6, "rt": 1174, "correctcat": 0, "response": 1}, "9": {"stimulus": 12, "trial": 9, "rt": 4360, "correctcat": 1, "response": 0}, "8": {"stimulus": 80, "trial": 8, "rt": 1183, "correctcat": 0, "response": 0}, "11": {"stimulus": 8, "trial": 11, "rt": 1149, "correctcat": 0, "response": 0}, "10": {"stimulus": 30, "trial": 10, "rt": 1619, "correctcat": 1, "response": 0}, "13": {"stimulus": 14, "trial": 13, "rt": 1151, "correctcat": 1, "response": 1}, "12": {"stimulus": 0, "trial": 12, "rt": 1533, "correctcat": 0, "response": 1}, "15": {"stimulus": 72, "trial": 15, "rt": 5176, "correctcat": 0, "response": 0}, "14": {"stimulus": 32, "trial": 14, "rt": 1169, "correctcat": 1, "response": 1}, "17": {"stimulus": 0, "trial": 17, "rt": 1001, "correctcat": 0, "response": 0}, "16": {"stimulus": 72, "trial": 16, "rt": 955, "correctcat": 0, "response": 0}, "19": {"stimulus": 30, "trial": 19, "rt": 1127, "correctcat": 1, "response": 1}, "18": {"stimulus": 32, "trial": 18, "rt": 1427, "correctcat": 1, "response": 1}, "31": {"stimulus": 32, "trial": 31, "rt": 1390, "correctcat": 1, "response": 1}, "30": {"stimulus": 8, "trial": 30, "rt": 1634, "correctcat": 0, "response": 0}}, "experiment": {"Paradigm": "TACL", "Stimuli": "Size-Color Squares", "Experiment": "Assigning-Generated-Categories"}, "goodness": {"1": {"stimulus": 8, "trial": 1, "categoryRate": "NA", "rt": 4873, "rating": 10}, "0": {"stimulus": 80, "trial": 0, "categoryRate": "NA", "rt": 19406, "rating": 10}, "3": {"stimulus": 14, "trial": 3, "categoryRate": "NA", "rt": 3505, "rating": 10}, "2": {"stimulus": 30, "trial": 2, "categoryRate": "NA", "rt": 8197, "rating": 10}, "5": {"stimulus": 12, "trial": 5, "categoryRate": "NA", "rt": 2934, "rating": 0}, "4": {"stimulus": 0, "trial": 4, "categoryRate": "NA", "rt": 9494, "rating": 0}, "7": {"stimulus": 32, "trial": 7, "categoryRate": "NA", "rt": 3213, "rating": 10}, "6": {"stimulus": 72, "trial": 6, "categoryRate": "NA", "rt": 2691, "rating": 0}, "9": {"stimulus": -1, "trial": 9, "categoryRate": "Beta", "rt": 6548, "rating": 10}, "8": {"stimulus": -1, "trial": 8, "categoryRate": "Alpha", "rt": 12116, "rating": 10}}, "submit": {"timeTotal": 252867, "age": "40", "comments": "", "sex": "Female"}}