{"info": {"finish": 1521124821422, "participant": 184, "exposed": true, "stimuli": [12, 14, 30, 32, 22, 39, 36, 43], "lab": false, "pptmatch": 41, "start": 1521124225862, "catflip": true, "categories": [1, 1, 1, 1, 0, 0, 0, 0], "counterbalance": 5, "condition": "Bottom", "browser": {"platform": "Win32", "userAgent": "Mozilla/5.0 (Windows NT 10.0; Win64; x64) AppleWebKit/537.36 (KHTML, like Gecko) Chrome/64.0.3282.186 Safari/537.36"}}, "assignment": {"24": {"stimulus": 14, "trial": 24, "rt": 1885, "correctcat": 1, "response": 1}, "25": {"stimulus": 32, "trial": 25, "rt": 1625, "correctcat": 1, "response": 1}, "26": {"stimulus": 36, "trial": 26, "rt": 1543, "correctcat": 0, "response": 0}, "27": {"stimulus": 22, "trial": 27, "rt": 1319, "correctcat": 0, "response": 1}, "20": {"stimulus": 22, "trial": 20, "rt": 1873, "correctcat": 0, "response": 0}, "21": {"stimulus": 14, "trial": 21, "rt": 1681, "correctcat": 1, "response": 0}, "22": {"stimulus": 43, "trial": 22, "rt": 1312, "correctcat": 0, "response": 0}, "23": {"stimulus": 30, "trial": 23, "rt": 1383, "correctcat": 1, "response": 1}, "28": {"stimulus": 39, "trial": 28, "rt": 1350, "correctcat": 0, "response": 1}, "29": {"stimulus": 12, "trial": 29, "rt": 1105, "correctcat": 1, "response": 1}, "1": {"stimulus": 12, "trial": 1, "rt": 1528, "correctcat": 1, "response": 1}, "0": {"stimulus": 32, "trial": 0, "rt": 4008, "correctcat": 1, "response": 1}, "3": {"stimulus": 22, "trial": 3, "rt": 2975, "correctcat": 0, "response": 1}, "2": {"stimulus": 36, "trial": 2, "rt": 2717, "correctcat": 0, "response": 0}, "5": {"stimulus": 39, "trial": 5, "rt": 1374, "correctcat": 0, "response": 1}, "4": {"stimulus": 30, "trial": 4, "rt": 1544, "correctcat": 1, "response": 1}, "7": {"stimulus": 43, "trial": 7, "rt": 1831, "correctcat": 0, "response": 0}, "6": {"stimulus": 14, "trial": 6, "rt": 2166, "correctcat": 1, "response": 0}, "9": {"stimulus": 39, "trial": 9, "rt": 1221, "correctcat": 0, "response": 1}, "8": {"stimulus": 30, "trial": 8, "rt": 1246, "correctcat": 1, "response": 1}, "11": {"stimulus": 22, "trial": 11, "rt": 2183, "correctcat": 0, "response": 0}, "10": {"stimulus": 14, "trial": 10, "rt": 1480, "correctcat": 1, "response": 0}, "13": {"stimulus": 32, "trial": 13, "rt": 2087, "correctcat": 1, "response": 0}, "12": {"stimulus": 36, "trial": 12, "rt": 2264, "correctcat": 0, "response": 0}, "15": {"stimulus": 12, "trial": 15, "rt": 1864, "correctcat": 1, "response": 1}, "14": {"stimulus": 43, "trial": 14, "rt": 1478, "correctcat": 0, "response": 0}, "17": {"stimulus": 12, "trial": 17, "rt": 1192, "correctcat": 1, "response": 1}, "16": {"stimulus": 32, "trial": 16, "rt": 1799, "correctcat": 1, "response": 0}, "19": {"stimulus": 36, "trial": 19, "rt": 1408, "correctcat": 0, "response": 0}, "18": {"stimulus": 39, "trial": 18, "rt": 1766, "correctcat": 0, "response": 1}, "31": {"stimulus": 30, "trial": 31, "rt": 1638, "correctcat": 1, "response": 1}, "30": {"stimulus": 43, "trial": 30, "rt": 1424, "correctcat": 0, "response": 0}}, "experiment": {"Paradigm": "TACL", "Stimuli": "Size-Color Squares", "Experiment": "Assigning-Generated-Categories"}, "goodness": {"1": {"stimulus": 22, "trial": 1, "categoryRate": "NA", "rt": 6054, "rating": 6}, "0": {"stimulus": 39, "trial": 0, "categoryRate": "NA", "rt": 18276, "rating": 7}, "3": {"stimulus": 14, "trial": 3, "categoryRate": "NA", "rt": 4781, "rating": 4}, "2": {"stimulus": 36, "trial": 2, "categoryRate": "NA", "rt": 4991, "rating": 10}, "5": {"stimulus": 30, "trial": 5, "categoryRate": "NA", "rt": 3597, "rating": 10}, "4": {"stimulus": 12, "trial": 4, "categoryRate": "NA", "rt": 5180, "rating": 7}, "7": {"stimulus": 43, "trial": 7, "categoryRate": "NA", "rt": 5117, "rating": 10}, "6": {"stimulus": 32, "trial": 6, "categoryRate": "NA", "rt": 4134, "rating": 6}, "9": {"stimulus": -1, "trial": 9, "categoryRate": "Beta", "rt": 7622, "rating": 7}, "8": {"stimulus": -1, "trial": 8, "categoryRate": "Alpha", "rt": 14325, "rating": 8}}, "submit": {"timeTotal": 595870, "age": "50", "comments": "I found it to be quite interesting", "sex": "Male"}}