{"info": {"finish": 1521125042717, "participant": 188, "exposed": true, "stimuli": [12, 14, 30, 32, 73, 72, 75, 74], "lab": false, "pptmatch": 4, "start": 1521124886409, "catflip": true, "categories": [1, 1, 1, 1, 0, 0, 0, 0], "counterbalance": 0, "condition": "Bottom", "browser": {"platform": "Win32", "userAgent": "Mozilla/5.0 (Windows NT 10.0; Win64; x64) AppleWebKit/537.36 (KHTML, like Gecko) Chrome/64.0.3282.186 Safari/537.36"}}, "assignment": {"24": {"stimulus": 74, "trial": 24, "rt": 612, "correctcat": 0, "response": 0}, "25": {"stimulus": 32, "trial": 25, "rt": 673, "correctcat": 1, "response": 1}, "26": {"stimulus": 73, "trial": 26, "rt": 536, "correctcat": 0, "response": 0}, "27": {"stimulus": 30, "trial": 27, "rt": 551, "correctcat": 1, "response": 1}, "20": {"stimulus": 73, "trial": 20, "rt": 1454, "correctcat": 0, "response": 0}, "21": {"stimulus": 72, "trial": 21, "rt": 592, "correctcat": 0, "response": 0}, "22": {"stimulus": 12, "trial": 22, "rt": 591, "correctcat": 1, "response": 1}, "23": {"stimulus": 14, "trial": 23, "rt": 584, "correctcat": 1, "response": 1}, "28": {"stimulus": 72, "trial": 28, "rt": 741, "correctcat": 0, "response": 0}, "29": {"stimulus": 75, "trial": 29, "rt": 592, "correctcat": 0, "response": 0}, "1": {"stimulus": 30, "trial": 1, "rt": 851, "correctcat": 1, "response": 1}, "0": {"stimulus": 32, "trial": 0, "rt": 1265, "correctcat": 1, "response": 0}, "3": {"stimulus": 14, "trial": 3, "rt": 880, "correctcat": 1, "response": 1}, "2": {"stimulus": 74, "trial": 2, "rt": 910, "correctcat": 0, "response": 1}, "5": {"stimulus": 72, "trial": 5, "rt": 1478, "correctcat": 0, "response": 0}, "4": {"stimulus": 75, "trial": 4, "rt": 1703, "correctcat": 0, "response": 0}, "7": {"stimulus": 12, "trial": 7, "rt": 604, "correctcat": 1, "response": 1}, "6": {"stimulus": 73, "trial": 6, "rt": 651, "correctcat": 0, "response": 0}, "9": {"stimulus": 12, "trial": 9, "rt": 629, "correctcat": 1, "response": 1}, "8": {"stimulus": 75, "trial": 8, "rt": 685, "correctcat": 0, "response": 0}, "11": {"stimulus": 73, "trial": 11, "rt": 683, "correctcat": 0, "response": 0}, "10": {"stimulus": 32, "trial": 10, "rt": 688, "correctcat": 1, "response": 1}, "13": {"stimulus": 74, "trial": 13, "rt": 622, "correctcat": 0, "response": 0}, "12": {"stimulus": 72, "trial": 12, "rt": 564, "correctcat": 0, "response": 0}, "15": {"stimulus": 14, "trial": 15, "rt": 546, "correctcat": 1, "response": 1}, "14": {"stimulus": 30, "trial": 14, "rt": 580, "correctcat": 1, "response": 1}, "17": {"stimulus": 30, "trial": 17, "rt": 559, "correctcat": 1, "response": 1}, "16": {"stimulus": 74, "trial": 16, "rt": 633, "correctcat": 0, "response": 0}, "19": {"stimulus": 32, "trial": 19, "rt": 2276, "correctcat": 1, "response": 1}, "18": {"stimulus": 75, "trial": 18, "rt": 583, "correctcat": 0, "response": 0}, "31": {"stimulus": 12, "trial": 31, "rt": 738, "correctcat": 1, "response": 1}, "30": {"stimulus": 14, "trial": 30, "rt": 1217, "correctcat": 1, "response": 1}}, "experiment": {"Paradigm": "TACL", "Stimuli": "Size-Color Squares", "Experiment": "Assigning-Generated-Categories"}, "goodness": {"1": {"stimulus": 32, "trial": 1, "categoryRate": "NA", "rt": 2990, "rating": 10}, "0": {"stimulus": 30, "trial": 0, "categoryRate": "NA", "rt": 6669, "rating": 9}, "3": {"stimulus": 14, "trial": 3, "categoryRate": "NA", "rt": 2582, "rating": 10}, "2": {"stimulus": 75, "trial": 2, "categoryRate": "NA", "rt": 1811, "rating": 10}, "5": {"stimulus": 74, "trial": 5, "categoryRate": "NA", "rt": 1212, "rating": 10}, "4": {"stimulus": 72, "trial": 4, "categoryRate": "NA", "rt": 2809, "rating": 10}, "7": {"stimulus": 12, "trial": 7, "categoryRate": "NA", "rt": 1727, "rating": 10}, "6": {"stimulus": 73, "trial": 6, "categoryRate": "NA", "rt": 1538, "rating": 10}, "9": {"stimulus": -1, "trial": 9, "categoryRate": "Beta", "rt": 1408, "rating": 10}, "8": {"stimulus": -1, "trial": 8, "categoryRate": "Alpha", "rt": 3015, "rating": 10}}, "submit": {"timeTotal": 156521, "age": "29", "comments": "interesting", "sex": "Female"}}