{"info": {"finish": 1521130718573, "participant": 193, "exposed": true, "stimuli": [12, 14, 30, 32, 73, 72, 75, 74], "lab": false, "pptmatch": 4, "start": 1521130507699, "catflip": false, "categories": [0, 0, 0, 0, 1, 1, 1, 1], "counterbalance": 0, "condition": "Bottom", "browser": {"platform": "Win32", "userAgent": "Mozilla/5.0 (Windows NT 10.0; Win64; x64) AppleWebKit/537.36 (KHTML, like Gecko) Chrome/64.0.3282.186 Safari/537.36"}}, "assignment": {"24": {"stimulus": 32, "trial": 24, "rt": 1639, "correctcat": 0, "response": 0}, "25": {"stimulus": 73, "trial": 25, "rt": 1415, "correctcat": 1, "response": 1}, "26": {"stimulus": 72, "trial": 26, "rt": 855, "correctcat": 1, "response": 1}, "27": {"stimulus": 30, "trial": 27, "rt": 734, "correctcat": 0, "response": 0}, "20": {"stimulus": 74, "trial": 20, "rt": 1490, "correctcat": 1, "response": 1}, "21": {"stimulus": 30, "trial": 21, "rt": 1028, "correctcat": 0, "response": 0}, "22": {"stimulus": 14, "trial": 22, "rt": 896, "correctcat": 0, "response": 0}, "23": {"stimulus": 73, "trial": 23, "rt": 757, "correctcat": 1, "response": 1}, "28": {"stimulus": 14, "trial": 28, "rt": 798, "correctcat": 0, "response": 0}, "29": {"stimulus": 75, "trial": 29, "rt": 996, "correctcat": 1, "response": 1}, "1": {"stimulus": 30, "trial": 1, "rt": 1228, "correctcat": 0, "response": 1}, "0": {"stimulus": 75, "trial": 0, "rt": 3290, "correctcat": 1, "response": 1}, "3": {"stimulus": 74, "trial": 3, "rt": 1314, "correctcat": 1, "response": 1}, "2": {"stimulus": 72, "trial": 2, "rt": 813, "correctcat": 1, "response": 1}, "5": {"stimulus": 32, "trial": 5, "rt": 764, "correctcat": 0, "response": 0}, "4": {"stimulus": 12, "trial": 4, "rt": 794, "correctcat": 0, "response": 0}, "7": {"stimulus": 14, "trial": 7, "rt": 837, "correctcat": 0, "response": 0}, "6": {"stimulus": 73, "trial": 6, "rt": 766, "correctcat": 1, "response": 1}, "9": {"stimulus": 75, "trial": 9, "rt": 1121, "correctcat": 1, "response": 1}, "8": {"stimulus": 73, "trial": 8, "rt": 817, "correctcat": 1, "response": 1}, "11": {"stimulus": 74, "trial": 11, "rt": 942, "correctcat": 1, "response": 1}, "10": {"stimulus": 30, "trial": 10, "rt": 1154, "correctcat": 0, "response": 0}, "13": {"stimulus": 12, "trial": 13, "rt": 917, "correctcat": 0, "response": 0}, "12": {"stimulus": 32, "trial": 12, "rt": 712, "correctcat": 0, "response": 0}, "15": {"stimulus": 14, "trial": 15, "rt": 1045, "correctcat": 0, "response": 0}, "14": {"stimulus": 72, "trial": 14, "rt": 766, "correctcat": 1, "response": 1}, "17": {"stimulus": 75, "trial": 17, "rt": 845, "correctcat": 1, "response": 1}, "16": {"stimulus": 72, "trial": 16, "rt": 1117, "correctcat": 1, "response": 1}, "19": {"stimulus": 32, "trial": 19, "rt": 721, "correctcat": 0, "response": 0}, "18": {"stimulus": 12, "trial": 18, "rt": 767, "correctcat": 0, "response": 0}, "31": {"stimulus": 12, "trial": 31, "rt": 435, "correctcat": 0, "response": 0}, "30": {"stimulus": 74, "trial": 30, "rt": 431, "correctcat": 1, "response": 1}}, "experiment": {"Paradigm": "TACL", "Stimuli": "Size-Color Squares", "Experiment": "Assigning-Generated-Categories"}, "goodness": {"1": {"stimulus": 12, "trial": 1, "categoryRate": "NA", "rt": 1975, "rating": 10}, "0": {"stimulus": 72, "trial": 0, "categoryRate": "NA", "rt": 10364, "rating": 10}, "3": {"stimulus": 75, "trial": 3, "categoryRate": "NA", "rt": 1995, "rating": 10}, "2": {"stimulus": 74, "trial": 2, "categoryRate": "NA", "rt": 2017, "rating": 10}, "5": {"stimulus": 73, "trial": 5, "categoryRate": "NA", "rt": 1872, "rating": 10}, "4": {"stimulus": 30, "trial": 4, "categoryRate": "NA", "rt": 2353, "rating": 10}, "7": {"stimulus": 14, "trial": 7, "categoryRate": "NA", "rt": 2144, "rating": 10}, "6": {"stimulus": 32, "trial": 6, "categoryRate": "NA", "rt": 3279, "rating": 10}, "9": {"stimulus": -1, "trial": 9, "categoryRate": "Beta", "rt": 4519, "rating": 10}, "8": {"stimulus": -1, "trial": 8, "categoryRate": "Alpha", "rt": 9959, "rating": 10}}, "submit": {"timeTotal": 211107, "age": "39", "comments": "", "sex": "Female"}}