{"info": {"finish": 1521135872216, "participant": 205, "exposed": true, "stimuli": [12, 14, 30, 32, 67, 76, 80, 78], "lab": false, "pptmatch": 8, "start": 1521135122844, "catflip": true, "categories": [1, 1, 1, 1, 0, 0, 0, 0], "counterbalance": 2, "condition": "Bottom", "browser": {"platform": "Win32", "userAgent": "Mozilla/5.0 (Windows NT 10.0; Win64; x64) AppleWebKit/537.36 (KHTML, like Gecko) Chrome/65.0.3325.162 Safari/537.36"}}, "assignment": {"24": {"stimulus": 32, "trial": 24, "rt": 1269, "correctcat": 1, "response": 1}, "25": {"stimulus": 12, "trial": 25, "rt": 879, "correctcat": 1, "response": 1}, "26": {"stimulus": 78, "trial": 26, "rt": 723, "correctcat": 0, "response": 0}, "27": {"stimulus": 30, "trial": 27, "rt": 1069, "correctcat": 1, "response": 1}, "20": {"stimulus": 78, "trial": 20, "rt": 830, "correctcat": 0, "response": 0}, "21": {"stimulus": 32, "trial": 21, "rt": 765, "correctcat": 1, "response": 1}, "22": {"stimulus": 80, "trial": 22, "rt": 811, "correctcat": 0, "response": 0}, "23": {"stimulus": 12, "trial": 23, "rt": 766, "correctcat": 1, "response": 1}, "28": {"stimulus": 67, "trial": 28, "rt": 735, "correctcat": 0, "response": 0}, "29": {"stimulus": 76, "trial": 29, "rt": 687, "correctcat": 0, "response": 0}, "1": {"stimulus": 67, "trial": 1, "rt": 1506, "correctcat": 0, "response": 0}, "0": {"stimulus": 12, "trial": 0, "rt": 2404, "correctcat": 1, "response": 1}, "3": {"stimulus": 76, "trial": 3, "rt": 741, "correctcat": 0, "response": 0}, "2": {"stimulus": 30, "trial": 2, "rt": 2025, "correctcat": 1, "response": 1}, "5": {"stimulus": 78, "trial": 5, "rt": 614, "correctcat": 0, "response": 0}, "4": {"stimulus": 80, "trial": 4, "rt": 998, "correctcat": 0, "response": 0}, "7": {"stimulus": 14, "trial": 7, "rt": 710, "correctcat": 1, "response": 1}, "6": {"stimulus": 32, "trial": 6, "rt": 1053, "correctcat": 1, "response": 1}, "9": {"stimulus": 12, "trial": 9, "rt": 1031, "correctcat": 1, "response": 1}, "8": {"stimulus": 67, "trial": 8, "rt": 751, "correctcat": 0, "response": 0}, "11": {"stimulus": 78, "trial": 11, "rt": 557, "correctcat": 0, "response": 0}, "10": {"stimulus": 76, "trial": 10, "rt": 819, "correctcat": 0, "response": 0}, "13": {"stimulus": 14, "trial": 13, "rt": 691, "correctcat": 1, "response": 1}, "12": {"stimulus": 32, "trial": 12, "rt": 792, "correctcat": 1, "response": 1}, "15": {"stimulus": 80, "trial": 15, "rt": 896, "correctcat": 0, "response": 0}, "14": {"stimulus": 30, "trial": 14, "rt": 878, "correctcat": 1, "response": 1}, "17": {"stimulus": 76, "trial": 17, "rt": 3675, "correctcat": 0, "response": 0}, "16": {"stimulus": 30, "trial": 16, "rt": 1525, "correctcat": 1, "response": 1}, "19": {"stimulus": 14, "trial": 19, "rt": 782, "correctcat": 1, "response": 1}, "18": {"stimulus": 67, "trial": 18, "rt": 749, "correctcat": 0, "response": 0}, "31": {"stimulus": 14, "trial": 31, "rt": 780, "correctcat": 1, "response": 1}, "30": {"stimulus": 80, "trial": 30, "rt": 717, "correctcat": 0, "response": 0}}, "experiment": {"Paradigm": "TACL", "Stimuli": "Size-Color Squares", "Experiment": "Assigning-Generated-Categories"}, "goodness": {"1": {"stimulus": 12, "trial": 1, "categoryRate": "NA", "rt": 2127, "rating": 7}, "0": {"stimulus": 67, "trial": 0, "categoryRate": "NA", "rt": 14839, "rating": 6}, "3": {"stimulus": 78, "trial": 3, "categoryRate": "NA", "rt": 2112, "rating": 2}, "2": {"stimulus": 80, "trial": 2, "categoryRate": "NA", "rt": 1375, "rating": 3}, "5": {"stimulus": 32, "trial": 5, "categoryRate": "NA", "rt": 1629, "rating": 5}, "4": {"stimulus": 30, "trial": 4, "categoryRate": "NA", "rt": 2510, "rating": 6}, "7": {"stimulus": 14, "trial": 7, "categoryRate": "NA", "rt": 1805, "rating": 3}, "6": {"stimulus": 76, "trial": 6, "categoryRate": "NA", "rt": 1167, "rating": 3}, "9": {"stimulus": -1, "trial": 9, "categoryRate": "Beta", "rt": 2001, "rating": 8}, "8": {"stimulus": -1, "trial": 8, "categoryRate": "Alpha", "rt": 3704, "rating": 3}}, "submit": {"timeTotal": 749473, "age": "34", "comments": "no idea", "sex": "male"}}