{"info": {"finish": 1521137713673, "participant": 213, "exposed": true, "stimuli": [12, 14, 30, 32, 72, 79, 66, 76], "lab": false, "pptmatch": 35, "start": 1521137495835, "catflip": false, "categories": [0, 0, 0, 0, 1, 1, 1, 1], "counterbalance": 3, "condition": "Bottom", "browser": {"platform": "Win32", "userAgent": "Mozilla/5.0 (Windows NT 6.1) AppleWebKit/537.36 (KHTML, like Gecko) Chrome/64.0.3282.186 Safari/537.36"}}, "assignment": {"24": {"stimulus": 32, "trial": 24, "rt": 1040, "correctcat": 0, "response": 0}, "25": {"stimulus": 30, "trial": 25, "rt": 851, "correctcat": 0, "response": 0}, "26": {"stimulus": 72, "trial": 26, "rt": 1314, "correctcat": 1, "response": 1}, "27": {"stimulus": 79, "trial": 27, "rt": 1001, "correctcat": 1, "response": 1}, "20": {"stimulus": 32, "trial": 20, "rt": 7345, "correctcat": 0, "response": 0}, "21": {"stimulus": 12, "trial": 21, "rt": 737, "correctcat": 0, "response": 0}, "22": {"stimulus": 66, "trial": 22, "rt": 2060, "correctcat": 1, "response": 1}, "23": {"stimulus": 72, "trial": 23, "rt": 1897, "correctcat": 1, "response": 1}, "28": {"stimulus": 66, "trial": 28, "rt": 991, "correctcat": 1, "response": 1}, "29": {"stimulus": 14, "trial": 29, "rt": 1750, "correctcat": 0, "response": 0}, "1": {"stimulus": 32, "trial": 1, "rt": 1707, "correctcat": 0, "response": 1}, "0": {"stimulus": 79, "trial": 0, "rt": 2977, "correctcat": 1, "response": 0}, "3": {"stimulus": 14, "trial": 3, "rt": 1290, "correctcat": 0, "response": 0}, "2": {"stimulus": 72, "trial": 2, "rt": 3320, "correctcat": 1, "response": 0}, "5": {"stimulus": 12, "trial": 5, "rt": 1273, "correctcat": 0, "response": 0}, "4": {"stimulus": 30, "trial": 4, "rt": 914, "correctcat": 0, "response": 0}, "7": {"stimulus": 66, "trial": 7, "rt": 744, "correctcat": 1, "response": 1}, "6": {"stimulus": 76, "trial": 6, "rt": 1111, "correctcat": 1, "response": 1}, "9": {"stimulus": 32, "trial": 9, "rt": 1352, "correctcat": 0, "response": 0}, "8": {"stimulus": 72, "trial": 8, "rt": 612, "correctcat": 1, "response": 1}, "11": {"stimulus": 14, "trial": 11, "rt": 1368, "correctcat": 0, "response": 0}, "10": {"stimulus": 76, "trial": 10, "rt": 1062, "correctcat": 1, "response": 1}, "13": {"stimulus": 79, "trial": 13, "rt": 1094, "correctcat": 1, "response": 1}, "12": {"stimulus": 12, "trial": 12, "rt": 1493, "correctcat": 0, "response": 0}, "15": {"stimulus": 30, "trial": 15, "rt": 1928, "correctcat": 0, "response": 0}, "14": {"stimulus": 66, "trial": 14, "rt": 1476, "correctcat": 1, "response": 1}, "17": {"stimulus": 79, "trial": 17, "rt": 1126, "correctcat": 1, "response": 1}, "16": {"stimulus": 76, "trial": 16, "rt": 923, "correctcat": 1, "response": 1}, "19": {"stimulus": 30, "trial": 19, "rt": 1353, "correctcat": 0, "response": 0}, "18": {"stimulus": 14, "trial": 18, "rt": 1250, "correctcat": 0, "response": 0}, "31": {"stimulus": 76, "trial": 31, "rt": 1445, "correctcat": 1, "response": 1}, "30": {"stimulus": 12, "trial": 30, "rt": 1288, "correctcat": 0, "response": 0}}, "experiment": {"Paradigm": "TACL", "Stimuli": "Size-Color Squares", "Experiment": "Assigning-Generated-Categories"}, "goodness": {"1": {"stimulus": 32, "trial": 1, "categoryRate": "NA", "rt": 2394, "rating": 10}, "0": {"stimulus": 76, "trial": 0, "categoryRate": "NA", "rt": 21954, "rating": 9}, "3": {"stimulus": 79, "trial": 3, "categoryRate": "NA", "rt": 4899, "rating": 7}, "2": {"stimulus": 30, "trial": 2, "categoryRate": "NA", "rt": 2512, "rating": 8}, "5": {"stimulus": 66, "trial": 5, "categoryRate": "NA", "rt": 2114, "rating": 6}, "4": {"stimulus": 72, "trial": 4, "categoryRate": "NA", "rt": 4908, "rating": 8}, "7": {"stimulus": 12, "trial": 7, "categoryRate": "NA", "rt": 3352, "rating": 8}, "6": {"stimulus": 14, "trial": 6, "categoryRate": "NA", "rt": 2448, "rating": 9}, "9": {"stimulus": -1, "trial": 9, "categoryRate": "Beta", "rt": 3927, "rating": 10}, "8": {"stimulus": -1, "trial": 8, "categoryRate": "Alpha", "rt": 6906, "rating": 10}}, "submit": {"timeTotal": 218077, "age": "29", "comments": "interesting", "sex": "male"}}