{"info": {"finish": 1521138255121, "participant": 214, "exposed": true, "stimuli": [12, 14, 30, 32, 22, 39, 36, 43], "lab": false, "pptmatch": 41, "start": 1521137999880, "catflip": true, "categories": [1, 1, 1, 1, 0, 0, 0, 0], "counterbalance": 5, "condition": "Bottom", "browser": {"platform": "Win32", "userAgent": "Mozilla/5.0 (Windows NT 10.0; Win64; x64) AppleWebKit/537.36 (KHTML, like Gecko) Chrome/64.0.3282.186 Safari/537.36"}}, "assignment": {"24": {"stimulus": 43, "trial": 24, "rt": 1730, "correctcat": 0, "response": 0}, "25": {"stimulus": 36, "trial": 25, "rt": 890, "correctcat": 0, "response": 1}, "26": {"stimulus": 12, "trial": 26, "rt": 2438, "correctcat": 1, "response": 1}, "27": {"stimulus": 39, "trial": 27, "rt": 1978, "correctcat": 0, "response": 1}, "20": {"stimulus": 36, "trial": 20, "rt": 3064, "correctcat": 0, "response": 1}, "21": {"stimulus": 12, "trial": 21, "rt": 3881, "correctcat": 1, "response": 0}, "22": {"stimulus": 14, "trial": 22, "rt": 1076, "correctcat": 1, "response": 1}, "23": {"stimulus": 30, "trial": 23, "rt": 2732, "correctcat": 1, "response": 0}, "28": {"stimulus": 14, "trial": 28, "rt": 1269, "correctcat": 1, "response": 0}, "29": {"stimulus": 22, "trial": 29, "rt": 1310, "correctcat": 0, "response": 0}, "1": {"stimulus": 22, "trial": 1, "rt": 1655, "correctcat": 0, "response": 1}, "0": {"stimulus": 36, "trial": 0, "rt": 3468, "correctcat": 0, "response": 0}, "3": {"stimulus": 12, "trial": 3, "rt": 2121, "correctcat": 1, "response": 1}, "2": {"stimulus": 14, "trial": 2, "rt": 818, "correctcat": 1, "response": 0}, "5": {"stimulus": 32, "trial": 5, "rt": 799, "correctcat": 1, "response": 0}, "4": {"stimulus": 43, "trial": 4, "rt": 1950, "correctcat": 0, "response": 1}, "7": {"stimulus": 30, "trial": 7, "rt": 1118, "correctcat": 1, "response": 0}, "6": {"stimulus": 39, "trial": 6, "rt": 2737, "correctcat": 0, "response": 1}, "9": {"stimulus": 43, "trial": 9, "rt": 1517, "correctcat": 0, "response": 1}, "8": {"stimulus": 39, "trial": 8, "rt": 1060, "correctcat": 0, "response": 0}, "11": {"stimulus": 36, "trial": 11, "rt": 1338, "correctcat": 0, "response": 1}, "10": {"stimulus": 12, "trial": 10, "rt": 1063, "correctcat": 1, "response": 0}, "13": {"stimulus": 22, "trial": 13, "rt": 1146, "correctcat": 0, "response": 0}, "12": {"stimulus": 30, "trial": 12, "rt": 1401, "correctcat": 1, "response": 1}, "15": {"stimulus": 32, "trial": 15, "rt": 1800, "correctcat": 1, "response": 1}, "14": {"stimulus": 14, "trial": 14, "rt": 1640, "correctcat": 1, "response": 0}, "17": {"stimulus": 22, "trial": 17, "rt": 2229, "correctcat": 0, "response": 0}, "16": {"stimulus": 32, "trial": 16, "rt": 2517, "correctcat": 1, "response": 1}, "19": {"stimulus": 43, "trial": 19, "rt": 1438, "correctcat": 0, "response": 1}, "18": {"stimulus": 39, "trial": 18, "rt": 3370, "correctcat": 0, "response": 1}, "31": {"stimulus": 32, "trial": 31, "rt": 2448, "correctcat": 1, "response": 0}, "30": {"stimulus": 30, "trial": 30, "rt": 1850, "correctcat": 1, "response": 1}}, "experiment": {"Paradigm": "TACL", "Stimuli": "Size-Color Squares", "Experiment": "Assigning-Generated-Categories"}, "goodness": {"1": {"stimulus": 43, "trial": 1, "categoryRate": "NA", "rt": 2368, "rating": 3}, "0": {"stimulus": 39, "trial": 0, "categoryRate": "NA", "rt": 15423, "rating": 3}, "3": {"stimulus": 12, "trial": 3, "categoryRate": "NA", "rt": 2223, "rating": 2}, "2": {"stimulus": 30, "trial": 2, "categoryRate": "NA", "rt": 3104, "rating": 7}, "5": {"stimulus": 22, "trial": 5, "categoryRate": "NA", "rt": 3784, "rating": 6}, "4": {"stimulus": 36, "trial": 4, "categoryRate": "NA", "rt": 4539, "rating": 3}, "7": {"stimulus": 32, "trial": 7, "categoryRate": "NA", "rt": 1807, "rating": 3}, "6": {"stimulus": 14, "trial": 6, "categoryRate": "NA", "rt": 2751, "rating": 2}, "9": {"stimulus": -1, "trial": 9, "categoryRate": "Beta", "rt": 3178, "rating": 8}, "8": {"stimulus": -1, "trial": 8, "categoryRate": "Alpha", "rt": 11548, "rating": 3}}, "submit": {"timeTotal": 255460, "age": "49", "comments": "None, thank you.", "sex": "Male"}}