{"info": {"finish": 1521143387759, "participant": 226, "exposed": true, "stimuli": [12, 14, 30, 32, 75, 76, 74, 73], "lab": false, "pptmatch": 2, "start": 1521143189048, "catflip": false, "categories": [0, 0, 0, 0, 1, 1, 1, 1], "counterbalance": 5, "condition": "Bottom", "browser": {"platform": "Win32", "userAgent": "Mozilla/5.0 (Windows NT 6.1; Win64; x64) AppleWebKit/537.36 (KHTML, like Gecko) Chrome/64.0.3282.186 Safari/537.36"}}, "assignment": {"24": {"stimulus": 12, "trial": 24, "rt": 1292, "correctcat": 0, "response": 0}, "25": {"stimulus": 30, "trial": 25, "rt": 797, "correctcat": 0, "response": 0}, "26": {"stimulus": 32, "trial": 26, "rt": 813, "correctcat": 0, "response": 0}, "27": {"stimulus": 76, "trial": 27, "rt": 1117, "correctcat": 1, "response": 1}, "20": {"stimulus": 12, "trial": 20, "rt": 765, "correctcat": 0, "response": 0}, "21": {"stimulus": 76, "trial": 21, "rt": 1166, "correctcat": 1, "response": 1}, "22": {"stimulus": 74, "trial": 22, "rt": 821, "correctcat": 1, "response": 1}, "23": {"stimulus": 73, "trial": 23, "rt": 1006, "correctcat": 1, "response": 1}, "28": {"stimulus": 74, "trial": 28, "rt": 941, "correctcat": 1, "response": 1}, "29": {"stimulus": 75, "trial": 29, "rt": 598, "correctcat": 1, "response": 1}, "1": {"stimulus": 30, "trial": 1, "rt": 1445, "correctcat": 0, "response": 0}, "0": {"stimulus": 14, "trial": 0, "rt": 3127, "correctcat": 0, "response": 0}, "3": {"stimulus": 73, "trial": 3, "rt": 1402, "correctcat": 1, "response": 1}, "2": {"stimulus": 75, "trial": 2, "rt": 1813, "correctcat": 1, "response": 0}, "5": {"stimulus": 32, "trial": 5, "rt": 1789, "correctcat": 0, "response": 0}, "4": {"stimulus": 76, "trial": 4, "rt": 931, "correctcat": 1, "response": 1}, "7": {"stimulus": 74, "trial": 7, "rt": 1397, "correctcat": 1, "response": 1}, "6": {"stimulus": 12, "trial": 6, "rt": 1046, "correctcat": 0, "response": 0}, "9": {"stimulus": 12, "trial": 9, "rt": 821, "correctcat": 0, "response": 0}, "8": {"stimulus": 14, "trial": 8, "rt": 1062, "correctcat": 0, "response": 0}, "11": {"stimulus": 76, "trial": 11, "rt": 1173, "correctcat": 1, "response": 1}, "10": {"stimulus": 73, "trial": 10, "rt": 1150, "correctcat": 1, "response": 1}, "13": {"stimulus": 30, "trial": 13, "rt": 1110, "correctcat": 0, "response": 0}, "12": {"stimulus": 75, "trial": 12, "rt": 1476, "correctcat": 1, "response": 1}, "15": {"stimulus": 74, "trial": 15, "rt": 1110, "correctcat": 1, "response": 1}, "14": {"stimulus": 32, "trial": 14, "rt": 893, "correctcat": 0, "response": 0}, "17": {"stimulus": 75, "trial": 17, "rt": 1447, "correctcat": 1, "response": 1}, "16": {"stimulus": 30, "trial": 16, "rt": 1319, "correctcat": 0, "response": 0}, "19": {"stimulus": 14, "trial": 19, "rt": 686, "correctcat": 0, "response": 0}, "18": {"stimulus": 32, "trial": 18, "rt": 1205, "correctcat": 0, "response": 0}, "31": {"stimulus": 73, "trial": 31, "rt": 1316, "correctcat": 1, "response": 1}, "30": {"stimulus": 14, "trial": 30, "rt": 1022, "correctcat": 0, "response": 0}}, "experiment": {"Paradigm": "TACL", "Stimuli": "Size-Color Squares", "Experiment": "Assigning-Generated-Categories"}, "goodness": {"1": {"stimulus": 12, "trial": 1, "categoryRate": "NA", "rt": 2412, "rating": 10}, "0": {"stimulus": 14, "trial": 0, "categoryRate": "NA", "rt": 6748, "rating": 10}, "3": {"stimulus": 73, "trial": 3, "categoryRate": "NA", "rt": 2716, "rating": 10}, "2": {"stimulus": 30, "trial": 2, "categoryRate": "NA", "rt": 3475, "rating": 10}, "5": {"stimulus": 74, "trial": 5, "categoryRate": "NA", "rt": 2228, "rating": 10}, "4": {"stimulus": 32, "trial": 4, "categoryRate": "NA", "rt": 2493, "rating": 10}, "7": {"stimulus": 76, "trial": 7, "categoryRate": "NA", "rt": 1941, "rating": 10}, "6": {"stimulus": 75, "trial": 6, "categoryRate": "NA", "rt": 2092, "rating": 10}, "9": {"stimulus": -1, "trial": 9, "categoryRate": "Beta", "rt": 2947, "rating": 10}, "8": {"stimulus": -1, "trial": 8, "categoryRate": "Alpha", "rt": 7449, "rating": 10}}, "submit": {"timeTotal": 198980, "age": "40", "comments": "Not sure what results you were looking for, but thank you for paying well. It's much appreciated.", "sex": "female"}}