{"info": {"finish": 1521145772975, "participant": 232, "exposed": true, "stimuli": [12, 14, 30, 32, 75, 76, 74, 73], "lab": false, "pptmatch": 2, "start": 1521145533805, "catflip": false, "categories": [0, 0, 0, 0, 1, 1, 1, 1], "counterbalance": 5, "condition": "Bottom", "browser": {"platform": "Win32", "userAgent": "Mozilla/5.0 (Windows NT 6.1; Win64; x64) AppleWebKit/537.36 (KHTML, like Gecko) Chrome/64.0.3282.186 Safari/537.36"}}, "assignment": {"24": {"stimulus": 76, "trial": 24, "rt": 723, "correctcat": 1, "response": 1}, "25": {"stimulus": 73, "trial": 25, "rt": 697, "correctcat": 1, "response": 1}, "26": {"stimulus": 74, "trial": 26, "rt": 855, "correctcat": 1, "response": 1}, "27": {"stimulus": 32, "trial": 27, "rt": 901, "correctcat": 0, "response": 0}, "20": {"stimulus": 32, "trial": 20, "rt": 978, "correctcat": 0, "response": 0}, "21": {"stimulus": 75, "trial": 21, "rt": 1354, "correctcat": 1, "response": 1}, "22": {"stimulus": 30, "trial": 22, "rt": 893, "correctcat": 0, "response": 0}, "23": {"stimulus": 14, "trial": 23, "rt": 918, "correctcat": 0, "response": 0}, "28": {"stimulus": 30, "trial": 28, "rt": 987, "correctcat": 0, "response": 0}, "29": {"stimulus": 14, "trial": 29, "rt": 979, "correctcat": 0, "response": 0}, "1": {"stimulus": 32, "trial": 1, "rt": 2489, "correctcat": 0, "response": 1}, "0": {"stimulus": 12, "trial": 0, "rt": 3241, "correctcat": 0, "response": 1}, "3": {"stimulus": 73, "trial": 3, "rt": 1762, "correctcat": 1, "response": 0}, "2": {"stimulus": 74, "trial": 2, "rt": 1482, "correctcat": 1, "response": 0}, "5": {"stimulus": 14, "trial": 5, "rt": 1324, "correctcat": 0, "response": 1}, "4": {"stimulus": 75, "trial": 4, "rt": 966, "correctcat": 1, "response": 1}, "7": {"stimulus": 30, "trial": 7, "rt": 2771, "correctcat": 0, "response": 0}, "6": {"stimulus": 76, "trial": 6, "rt": 1191, "correctcat": 1, "response": 1}, "9": {"stimulus": 74, "trial": 9, "rt": 674, "correctcat": 1, "response": 1}, "8": {"stimulus": 75, "trial": 8, "rt": 1160, "correctcat": 1, "response": 0}, "11": {"stimulus": 73, "trial": 11, "rt": 870, "correctcat": 1, "response": 1}, "10": {"stimulus": 32, "trial": 10, "rt": 1233, "correctcat": 0, "response": 0}, "13": {"stimulus": 30, "trial": 13, "rt": 1216, "correctcat": 0, "response": 0}, "12": {"stimulus": 14, "trial": 12, "rt": 1347, "correctcat": 0, "response": 0}, "15": {"stimulus": 12, "trial": 15, "rt": 997, "correctcat": 0, "response": 0}, "14": {"stimulus": 76, "trial": 14, "rt": 947, "correctcat": 1, "response": 1}, "17": {"stimulus": 76, "trial": 17, "rt": 878, "correctcat": 1, "response": 1}, "16": {"stimulus": 74, "trial": 16, "rt": 830, "correctcat": 1, "response": 1}, "19": {"stimulus": 73, "trial": 19, "rt": 783, "correctcat": 1, "response": 1}, "18": {"stimulus": 12, "trial": 18, "rt": 1022, "correctcat": 0, "response": 0}, "31": {"stimulus": 12, "trial": 31, "rt": 910, "correctcat": 0, "response": 0}, "30": {"stimulus": 75, "trial": 30, "rt": 1121, "correctcat": 1, "response": 1}}, "experiment": {"Paradigm": "TACL", "Stimuli": "Size-Color Squares", "Experiment": "Assigning-Generated-Categories"}, "goodness": {"1": {"stimulus": 75, "trial": 1, "categoryRate": "NA", "rt": 8068, "rating": 10}, "0": {"stimulus": 12, "trial": 0, "categoryRate": "NA", "rt": 12378, "rating": 10}, "3": {"stimulus": 30, "trial": 3, "categoryRate": "NA", "rt": 2772, "rating": 10}, "2": {"stimulus": 74, "trial": 2, "categoryRate": "NA", "rt": 2584, "rating": 10}, "5": {"stimulus": 32, "trial": 5, "categoryRate": "NA", "rt": 3116, "rating": 10}, "4": {"stimulus": 14, "trial": 4, "categoryRate": "NA", "rt": 2913, "rating": 10}, "7": {"stimulus": 73, "trial": 7, "categoryRate": "NA", "rt": 3742, "rating": 10}, "6": {"stimulus": 76, "trial": 6, "categoryRate": "NA", "rt": 2977, "rating": 10}, "9": {"stimulus": -1, "trial": 9, "categoryRate": "Beta", "rt": 4816, "rating": 10}, "8": {"stimulus": -1, "trial": 8, "categoryRate": "Alpha", "rt": 9445, "rating": 10}}, "submit": {"timeTotal": 239322, "age": "39", "comments": "It was fun and engaging!", "sex": "Female"}}