{"info": {"finish": 1521161954288, "participant": 238, "exposed": true, "stimuli": [12, 14, 30, 32, 17, 8, 35, 26], "lab": false, "pptmatch": 48, "start": 1521161750449, "catflip": true, "categories": [1, 1, 1, 1, 0, 0, 0, 0], "counterbalance": 4, "condition": "Bottom", "browser": {"platform": "Win32", "userAgent": "Mozilla/5.0 (Windows NT 6.1; Win64; x64) AppleWebKit/537.36 (KHTML, like Gecko) Chrome/64.0.3282.167 Safari/537.36"}}, "assignment": {"24": {"stimulus": 30, "trial": 24, "rt": 877, "correctcat": 1, "response": 1}, "25": {"stimulus": 17, "trial": 25, "rt": 891, "correctcat": 0, "response": 0}, "26": {"stimulus": 26, "trial": 26, "rt": 979, "correctcat": 0, "response": 0}, "27": {"stimulus": 32, "trial": 27, "rt": 876, "correctcat": 1, "response": 1}, "20": {"stimulus": 12, "trial": 20, "rt": 990, "correctcat": 1, "response": 1}, "21": {"stimulus": 14, "trial": 21, "rt": 1564, "correctcat": 1, "response": 1}, "22": {"stimulus": 35, "trial": 22, "rt": 901, "correctcat": 0, "response": 0}, "23": {"stimulus": 32, "trial": 23, "rt": 1002, "correctcat": 1, "response": 1}, "28": {"stimulus": 35, "trial": 28, "rt": 1238, "correctcat": 0, "response": 0}, "29": {"stimulus": 8, "trial": 29, "rt": 1149, "correctcat": 0, "response": 0}, "1": {"stimulus": 8, "trial": 1, "rt": 2235, "correctcat": 0, "response": 0}, "0": {"stimulus": 17, "trial": 0, "rt": 3833, "correctcat": 0, "response": 0}, "3": {"stimulus": 14, "trial": 3, "rt": 1667, "correctcat": 1, "response": 1}, "2": {"stimulus": 30, "trial": 2, "rt": 2047, "correctcat": 1, "response": 0}, "5": {"stimulus": 12, "trial": 5, "rt": 1734, "correctcat": 1, "response": 1}, "4": {"stimulus": 32, "trial": 4, "rt": 676, "correctcat": 1, "response": 1}, "7": {"stimulus": 26, "trial": 7, "rt": 902, "correctcat": 0, "response": 0}, "6": {"stimulus": 35, "trial": 6, "rt": 1418, "correctcat": 0, "response": 0}, "9": {"stimulus": 26, "trial": 9, "rt": 1068, "correctcat": 0, "response": 0}, "8": {"stimulus": 30, "trial": 8, "rt": 1047, "correctcat": 1, "response": 1}, "11": {"stimulus": 17, "trial": 11, "rt": 1058, "correctcat": 0, "response": 0}, "10": {"stimulus": 12, "trial": 10, "rt": 866, "correctcat": 1, "response": 1}, "13": {"stimulus": 35, "trial": 13, "rt": 1072, "correctcat": 0, "response": 0}, "12": {"stimulus": 32, "trial": 12, "rt": 788, "correctcat": 1, "response": 1}, "15": {"stimulus": 14, "trial": 15, "rt": 944, "correctcat": 1, "response": 1}, "14": {"stimulus": 8, "trial": 14, "rt": 1110, "correctcat": 0, "response": 0}, "17": {"stimulus": 17, "trial": 17, "rt": 1003, "correctcat": 0, "response": 0}, "16": {"stimulus": 30, "trial": 16, "rt": 960, "correctcat": 1, "response": 1}, "19": {"stimulus": 26, "trial": 19, "rt": 1036, "correctcat": 0, "response": 0}, "18": {"stimulus": 8, "trial": 18, "rt": 888, "correctcat": 0, "response": 0}, "31": {"stimulus": 12, "trial": 31, "rt": 970, "correctcat": 1, "response": 1}, "30": {"stimulus": 14, "trial": 30, "rt": 820, "correctcat": 1, "response": 1}}, "experiment": {"Paradigm": "TACL", "Stimuli": "Size-Color Squares", "Experiment": "Assigning-Generated-Categories"}, "goodness": {"1": {"stimulus": 26, "trial": 1, "categoryRate": "NA", "rt": 5179, "rating": 9}, "0": {"stimulus": 12, "trial": 0, "categoryRate": "NA", "rt": 6049, "rating": 9}, "3": {"stimulus": 17, "trial": 3, "categoryRate": "NA", "rt": 2411, "rating": 9}, "2": {"stimulus": 14, "trial": 2, "categoryRate": "NA", "rt": 2199, "rating": 9}, "5": {"stimulus": 30, "trial": 5, "categoryRate": "NA", "rt": 3199, "rating": 9}, "4": {"stimulus": 8, "trial": 4, "categoryRate": "NA", "rt": 3438, "rating": 9}, "7": {"stimulus": 35, "trial": 7, "categoryRate": "NA", "rt": 3626, "rating": 9}, "6": {"stimulus": 32, "trial": 6, "categoryRate": "NA", "rt": 4639, "rating": 7}, "9": {"stimulus": -1, "trial": 9, "categoryRate": "Beta", "rt": 3985, "rating": 8}, "8": {"stimulus": -1, "trial": 8, "categoryRate": "Alpha", "rt": 7010, "rating": 9}}, "submit": {"timeTotal": 204017, "age": "55", "comments": "easy! thanks!", "sex": "male"}}