{"info": {"finish": 1521162175433, "participant": 240, "exposed": true, "stimuli": [12, 14, 30, 32, 9, 0, 27, 1], "lab": false, "pptmatch": 86, "start": 1521161759022, "catflip": true, "categories": [1, 1, 1, 1, 0, 0, 0, 0], "counterbalance": 5, "condition": "Bottom", "browser": {"platform": "Win64", "userAgent": "Mozilla/5.0 (Windows NT 6.3; Win64; x64; rv:58.0) Gecko/20100101 Firefox/58.0"}}, "assignment": {"24": {"stimulus": 1, "trial": 24, "rt": 829, "correctcat": 0, "response": 0}, "25": {"stimulus": 14, "trial": 25, "rt": 792, "correctcat": 1, "response": 1}, "26": {"stimulus": 12, "trial": 26, "rt": 1028, "correctcat": 1, "response": 1}, "27": {"stimulus": 27, "trial": 27, "rt": 1539, "correctcat": 0, "response": 0}, "20": {"stimulus": 30, "trial": 20, "rt": 842, "correctcat": 1, "response": 1}, "21": {"stimulus": 12, "trial": 21, "rt": 790, "correctcat": 1, "response": 1}, "22": {"stimulus": 0, "trial": 22, "rt": 734, "correctcat": 0, "response": 0}, "23": {"stimulus": 32, "trial": 23, "rt": 901, "correctcat": 1, "response": 1}, "28": {"stimulus": 9, "trial": 28, "rt": 724, "correctcat": 0, "response": 0}, "29": {"stimulus": 0, "trial": 29, "rt": 589, "correctcat": 0, "response": 0}, "1": {"stimulus": 14, "trial": 1, "rt": 1777, "correctcat": 1, "response": 1}, "0": {"stimulus": 1, "trial": 0, "rt": 4082, "correctcat": 0, "response": 0}, "3": {"stimulus": 0, "trial": 3, "rt": 1467, "correctcat": 0, "response": 0}, "2": {"stimulus": 27, "trial": 2, "rt": 1643, "correctcat": 0, "response": 0}, "5": {"stimulus": 32, "trial": 5, "rt": 1345, "correctcat": 1, "response": 1}, "4": {"stimulus": 9, "trial": 4, "rt": 881, "correctcat": 0, "response": 0}, "7": {"stimulus": 12, "trial": 7, "rt": 919, "correctcat": 1, "response": 1}, "6": {"stimulus": 30, "trial": 6, "rt": 1434, "correctcat": 1, "response": 1}, "9": {"stimulus": 14, "trial": 9, "rt": 714, "correctcat": 1, "response": 1}, "8": {"stimulus": 32, "trial": 8, "rt": 787, "correctcat": 1, "response": 1}, "11": {"stimulus": 30, "trial": 11, "rt": 1034, "correctcat": 1, "response": 1}, "10": {"stimulus": 0, "trial": 10, "rt": 1035, "correctcat": 0, "response": 0}, "13": {"stimulus": 9, "trial": 13, "rt": 828, "correctcat": 0, "response": 0}, "12": {"stimulus": 1, "trial": 12, "rt": 1290, "correctcat": 0, "response": 0}, "15": {"stimulus": 27, "trial": 15, "rt": 825, "correctcat": 0, "response": 0}, "14": {"stimulus": 12, "trial": 14, "rt": 1201, "correctcat": 1, "response": 1}, "17": {"stimulus": 9, "trial": 17, "rt": 987, "correctcat": 0, "response": 0}, "16": {"stimulus": 14, "trial": 16, "rt": 802, "correctcat": 1, "response": 1}, "19": {"stimulus": 1, "trial": 19, "rt": 986, "correctcat": 0, "response": 0}, "18": {"stimulus": 27, "trial": 18, "rt": 1072, "correctcat": 0, "response": 0}, "31": {"stimulus": 32, "trial": 31, "rt": 1079, "correctcat": 1, "response": 1}, "30": {"stimulus": 30, "trial": 30, "rt": 1266, "correctcat": 1, "response": 1}}, "experiment": {"Paradigm": "TACL", "Stimuli": "Size-Color Squares", "Experiment": "Assigning-Generated-Categories"}, "goodness": {"1": {"stimulus": 1, "trial": 1, "categoryRate": "NA", "rt": 2242, "rating": 2}, "0": {"stimulus": 30, "trial": 0, "categoryRate": "NA", "rt": 7044, "rating": 7}, "3": {"stimulus": 9, "trial": 3, "categoryRate": "NA", "rt": 1608, "rating": 0}, "2": {"stimulus": 32, "trial": 2, "categoryRate": "NA", "rt": 1763, "rating": 10}, "5": {"stimulus": 14, "trial": 5, "categoryRate": "NA", "rt": 1598, "rating": 10}, "4": {"stimulus": 27, "trial": 4, "categoryRate": "NA", "rt": 4280, "rating": 10}, "7": {"stimulus": 12, "trial": 7, "categoryRate": "NA", "rt": 1863, "rating": 7}, "6": {"stimulus": 0, "trial": 6, "categoryRate": "NA", "rt": 4131, "rating": 10}, "9": {"stimulus": -1, "trial": 9, "categoryRate": "Beta", "rt": 2086, "rating": 7}, "8": {"stimulus": -1, "trial": 8, "categoryRate": "Alpha", "rt": 26301, "rating": 9}}, "submit": {}}