{"info": {"finish": 1521165013773, "participant": 247, "exposed": true, "stimuli": [12, 14, 30, 32, 17, 63, 28, 32], "lab": false, "pptmatch": 115, "start": 1521164777863, "catflip": true, "categories": [1, 1, 1, 1, 0, 0, 0, 0], "counterbalance": 7, "condition": "Bottom", "browser": {"platform": "Win32", "userAgent": "Mozilla/5.0 (Windows NT 10.0; Win64; x64) AppleWebKit/537.36 (KHTML, like Gecko) Chrome/64.0.3282.186 Safari/537.36"}}, "assignment": {"24": {"stimulus": 30, "trial": 24, "rt": 2561, "correctcat": 1, "response": 0}, "25": {"stimulus": 32, "trial": 25, "rt": 976, "correctcat": 1, "response": 1}, "26": {"stimulus": 32, "trial": 26, "rt": 620, "correctcat": 0, "response": 1}, "27": {"stimulus": 17, "trial": 27, "rt": 2090, "correctcat": 0, "response": 1}, "20": {"stimulus": 30, "trial": 20, "rt": 1405, "correctcat": 1, "response": 1}, "21": {"stimulus": 14, "trial": 21, "rt": 8869, "correctcat": 1, "response": 1}, "22": {"stimulus": 32, "trial": 22, "rt": 404, "correctcat": 1, "response": 1}, "23": {"stimulus": 63, "trial": 23, "rt": 1231, "correctcat": 0, "response": 1}, "28": {"stimulus": 28, "trial": 28, "rt": 3034, "correctcat": 0, "response": 1}, "29": {"stimulus": 14, "trial": 29, "rt": 7830, "correctcat": 1, "response": 1}, "1": {"stimulus": 32, "trial": 1, "rt": 1023, "correctcat": 0, "response": 1}, "0": {"stimulus": 28, "trial": 0, "rt": 2013, "correctcat": 0, "response": 0}, "3": {"stimulus": 30, "trial": 3, "rt": 589, "correctcat": 1, "response": 0}, "2": {"stimulus": 14, "trial": 2, "rt": 680, "correctcat": 1, "response": 0}, "5": {"stimulus": 63, "trial": 5, "rt": 1048, "correctcat": 0, "response": 1}, "4": {"stimulus": 12, "trial": 4, "rt": 1513, "correctcat": 1, "response": 1}, "7": {"stimulus": 17, "trial": 7, "rt": 1022, "correctcat": 0, "response": 0}, "6": {"stimulus": 32, "trial": 6, "rt": 891, "correctcat": 1, "response": 1}, "9": {"stimulus": 32, "trial": 9, "rt": 803, "correctcat": 0, "response": 1}, "8": {"stimulus": 12, "trial": 8, "rt": 1067, "correctcat": 1, "response": 1}, "11": {"stimulus": 14, "trial": 11, "rt": 2263, "correctcat": 1, "response": 1}, "10": {"stimulus": 63, "trial": 10, "rt": 1728, "correctcat": 0, "response": 0}, "13": {"stimulus": 17, "trial": 13, "rt": 1953, "correctcat": 0, "response": 0}, "12": {"stimulus": 30, "trial": 12, "rt": 874, "correctcat": 1, "response": 0}, "15": {"stimulus": 32, "trial": 15, "rt": 1261, "correctcat": 1, "response": 1}, "14": {"stimulus": 28, "trial": 14, "rt": 1045, "correctcat": 0, "response": 1}, "17": {"stimulus": 28, "trial": 17, "rt": 1416, "correctcat": 0, "response": 1}, "16": {"stimulus": 12, "trial": 16, "rt": 1156, "correctcat": 1, "response": 1}, "19": {"stimulus": 32, "trial": 19, "rt": 3843, "correctcat": 0, "response": 1}, "18": {"stimulus": 17, "trial": 18, "rt": 1629, "correctcat": 0, "response": 0}, "31": {"stimulus": 63, "trial": 31, "rt": 9816, "correctcat": 0, "response": 0}, "30": {"stimulus": 12, "trial": 30, "rt": 16418, "correctcat": 1, "response": 0}}, "experiment": {"Paradigm": "TACL", "Stimuli": "Size-Color Squares", "Experiment": "Assigning-Generated-Categories"}, "goodness": {"1": {"stimulus": 63, "trial": 1, "categoryRate": "NA", "rt": 2985, "rating": 6}, "0": {"stimulus": 32, "trial": 0, "categoryRate": "NA", "rt": 1976, "rating": 7}, "3": {"stimulus": 30, "trial": 3, "categoryRate": "NA", "rt": 2220, "rating": 6}, "2": {"stimulus": 17, "trial": 2, "categoryRate": "NA", "rt": 1985, "rating": 7}, "5": {"stimulus": 14, "trial": 5, "categoryRate": "NA", "rt": 1869, "rating": 6}, "4": {"stimulus": 28, "trial": 4, "categoryRate": "NA", "rt": 1560, "rating": 7}, "7": {"stimulus": 12, "trial": 7, "categoryRate": "NA", "rt": 2597, "rating": 6}, "6": {"stimulus": 32, "trial": 6, "categoryRate": "NA", "rt": 1833, "rating": 7}, "9": {"stimulus": -1, "trial": 9, "categoryRate": "Beta", "rt": 6411, "rating": 7}, "8": {"stimulus": -1, "trial": 8, "categoryRate": "Alpha", "rt": 2780, "rating": 6}}, "submit": {"timeTotal": 236362, "age": "21", "comments": "", "sex": "female"}}