{"info": {"finish": 1521061600081, "participant": 25, "exposed": true, "stimuli": [12, 14, 30, 32, 11, 47, 15, 64], "lab": false, "pptmatch": 25, "start": 1521061260460, "catflip": true, "categories": [1, 1, 1, 1, 0, 0, 0, 0], "counterbalance": 7, "condition": "Bottom", "browser": {"platform": "Linux x86_64", "userAgent": "Mozilla/5.0 (X11; Ubuntu; Linux x86_64; rv:58.0) Gecko/20100101 Firefox/58.0"}}, "assignment": {"24": {"stimulus": 12, "trial": 24, "rt": 2076, "correctcat": 1, "response": 1}, "25": {"stimulus": 14, "trial": 25, "rt": 1176, "correctcat": 1, "response": 0}, "26": {"stimulus": 47, "trial": 26, "rt": 1029, "correctcat": 0, "response": 0}, "27": {"stimulus": 11, "trial": 27, "rt": 1045, "correctcat": 0, "response": 1}, "20": {"stimulus": 12, "trial": 20, "rt": 1254, "correctcat": 1, "response": 0}, "21": {"stimulus": 15, "trial": 21, "rt": 1317, "correctcat": 0, "response": 1}, "22": {"stimulus": 30, "trial": 22, "rt": 1376, "correctcat": 1, "response": 0}, "23": {"stimulus": 32, "trial": 23, "rt": 1782, "correctcat": 1, "response": 1}, "28": {"stimulus": 15, "trial": 28, "rt": 1069, "correctcat": 0, "response": 1}, "29": {"stimulus": 32, "trial": 29, "rt": 1556, "correctcat": 1, "response": 0}, "1": {"stimulus": 11, "trial": 1, "rt": 1190, "correctcat": 0, "response": 1}, "0": {"stimulus": 30, "trial": 0, "rt": 1883, "correctcat": 1, "response": 0}, "3": {"stimulus": 64, "trial": 3, "rt": 1632, "correctcat": 0, "response": 1}, "2": {"stimulus": 15, "trial": 2, "rt": 1312, "correctcat": 0, "response": 1}, "5": {"stimulus": 14, "trial": 5, "rt": 1180, "correctcat": 1, "response": 0}, "4": {"stimulus": 12, "trial": 4, "rt": 1335, "correctcat": 1, "response": 0}, "7": {"stimulus": 32, "trial": 7, "rt": 1188, "correctcat": 1, "response": 1}, "6": {"stimulus": 47, "trial": 6, "rt": 1348, "correctcat": 0, "response": 1}, "9": {"stimulus": 30, "trial": 9, "rt": 914, "correctcat": 1, "response": 0}, "8": {"stimulus": 14, "trial": 8, "rt": 1011, "correctcat": 1, "response": 1}, "11": {"stimulus": 11, "trial": 11, "rt": 1141, "correctcat": 0, "response": 1}, "10": {"stimulus": 32, "trial": 10, "rt": 1124, "correctcat": 1, "response": 0}, "13": {"stimulus": 15, "trial": 13, "rt": 910, "correctcat": 0, "response": 1}, "12": {"stimulus": 47, "trial": 12, "rt": 1378, "correctcat": 0, "response": 0}, "15": {"stimulus": 64, "trial": 15, "rt": 1140, "correctcat": 0, "response": 0}, "14": {"stimulus": 12, "trial": 14, "rt": 1801, "correctcat": 1, "response": 1}, "17": {"stimulus": 14, "trial": 17, "rt": 1024, "correctcat": 1, "response": 1}, "16": {"stimulus": 47, "trial": 16, "rt": 1502, "correctcat": 0, "response": 1}, "19": {"stimulus": 64, "trial": 19, "rt": 901, "correctcat": 0, "response": 0}, "18": {"stimulus": 11, "trial": 18, "rt": 1158, "correctcat": 0, "response": 0}, "31": {"stimulus": 30, "trial": 31, "rt": 2431, "correctcat": 1, "response": 1}, "30": {"stimulus": 64, "trial": 30, "rt": 1139, "correctcat": 0, "response": 0}}, "experiment": {"Paradigm": "TACL", "Stimuli": "Size-Color Squares", "Experiment": "Assigning-Generated-Categories"}, "goodness": {"1": {"stimulus": 14, "trial": 1, "categoryRate": "NA", "rt": 3404, "rating": 7}, "0": {"stimulus": 11, "trial": 0, "categoryRate": "NA", "rt": 9812, "rating": 3}, "3": {"stimulus": 64, "trial": 3, "categoryRate": "NA", "rt": 2400, "rating": 10}, "2": {"stimulus": 47, "trial": 2, "categoryRate": "NA", "rt": 3705, "rating": 4}, "5": {"stimulus": 32, "trial": 5, "categoryRate": "NA", "rt": 3168, "rating": 4}, "4": {"stimulus": 15, "trial": 4, "categoryRate": "NA", "rt": 2814, "rating": 7}, "7": {"stimulus": 12, "trial": 7, "categoryRate": "NA", "rt": 2572, "rating": 3}, "6": {"stimulus": 30, "trial": 6, "categoryRate": "NA", "rt": 3494, "rating": 6}, "9": {"stimulus": -1, "trial": 9, "categoryRate": "Beta", "rt": 4096, "rating": 3}, "8": {"stimulus": -1, "trial": 8, "categoryRate": "Alpha", "rt": 15726, "rating": 2}}, "submit": {}}