{"info": {"finish": 1521519559609, "participant": 251, "exposed": true, "stimuli": [12, 14, 30, 32, 78, 76, 79, 74], "lab": false, "pptmatch": 28, "start": 1521519145157, "catflip": true, "categories": [1, 1, 1, 1, 0, 0, 0, 0], "counterbalance": 1, "condition": "Bottom", "browser": {"platform": "Win32", "userAgent": "Mozilla/5.0 (Windows NT 10.0; Win64; x64) AppleWebKit/537.36 (KHTML, like Gecko) Chrome/64.0.3282.186 Safari/537.36"}}, "assignment": {"24": {"stimulus": 14, "trial": 24, "rt": 1373, "correctcat": 1, "response": 1}, "25": {"stimulus": 79, "trial": 25, "rt": 987, "correctcat": 0, "response": 0}, "26": {"stimulus": 30, "trial": 26, "rt": 947, "correctcat": 1, "response": 1}, "27": {"stimulus": 74, "trial": 27, "rt": 1127, "correctcat": 0, "response": 0}, "20": {"stimulus": 76, "trial": 20, "rt": 5094, "correctcat": 0, "response": 0}, "21": {"stimulus": 78, "trial": 21, "rt": 2081, "correctcat": 0, "response": 0}, "22": {"stimulus": 74, "trial": 22, "rt": 1445, "correctcat": 0, "response": 0}, "23": {"stimulus": 14, "trial": 23, "rt": 2098, "correctcat": 1, "response": 1}, "28": {"stimulus": 32, "trial": 28, "rt": 908, "correctcat": 1, "response": 1}, "29": {"stimulus": 12, "trial": 29, "rt": 1053, "correctcat": 1, "response": 1}, "1": {"stimulus": 12, "trial": 1, "rt": 1189, "correctcat": 1, "response": 1}, "0": {"stimulus": 74, "trial": 0, "rt": 6679, "correctcat": 0, "response": 0}, "3": {"stimulus": 14, "trial": 3, "rt": 822, "correctcat": 1, "response": 1}, "2": {"stimulus": 78, "trial": 2, "rt": 1126, "correctcat": 0, "response": 0}, "5": {"stimulus": 30, "trial": 5, "rt": 1222, "correctcat": 1, "response": 1}, "4": {"stimulus": 76, "trial": 4, "rt": 876, "correctcat": 0, "response": 0}, "7": {"stimulus": 32, "trial": 7, "rt": 2709, "correctcat": 1, "response": 1}, "6": {"stimulus": 79, "trial": 6, "rt": 1038, "correctcat": 0, "response": 0}, "9": {"stimulus": 12, "trial": 9, "rt": 2910, "correctcat": 1, "response": 1}, "8": {"stimulus": 14, "trial": 8, "rt": 2447, "correctcat": 1, "response": 1}, "11": {"stimulus": 79, "trial": 11, "rt": 3669, "correctcat": 0, "response": 0}, "10": {"stimulus": 78, "trial": 10, "rt": 2195, "correctcat": 0, "response": 0}, "13": {"stimulus": 76, "trial": 13, "rt": 3104, "correctcat": 0, "response": 0}, "12": {"stimulus": 30, "trial": 12, "rt": 950, "correctcat": 1, "response": 1}, "15": {"stimulus": 74, "trial": 15, "rt": 1687, "correctcat": 0, "response": 0}, "14": {"stimulus": 32, "trial": 14, "rt": 3920, "correctcat": 1, "response": 1}, "17": {"stimulus": 79, "trial": 17, "rt": 2678, "correctcat": 0, "response": 0}, "16": {"stimulus": 12, "trial": 16, "rt": 1022, "correctcat": 1, "response": 1}, "19": {"stimulus": 32, "trial": 19, "rt": 12332, "correctcat": 1, "response": 1}, "18": {"stimulus": 30, "trial": 18, "rt": 2625, "correctcat": 1, "response": 1}, "31": {"stimulus": 78, "trial": 31, "rt": 3781, "correctcat": 0, "response": 0}, "30": {"stimulus": 76, "trial": 30, "rt": 2150, "correctcat": 0, "response": 0}}, "experiment": {"Paradigm": "TACL", "Stimuli": "Size-Color Squares", "Experiment": "Assigning-Generated-Categories"}, "goodness": {"1": {"stimulus": 12, "trial": 1, "categoryRate": "NA", "rt": 3052, "rating": 10}, "0": {"stimulus": 30, "trial": 0, "categoryRate": "NA", "rt": 5379, "rating": 10}, "3": {"stimulus": 32, "trial": 3, "categoryRate": "NA", "rt": 2156, "rating": 10}, "2": {"stimulus": 74, "trial": 2, "categoryRate": "NA", "rt": 2284, "rating": 0}, "5": {"stimulus": 78, "trial": 5, "categoryRate": "NA", "rt": 1845, "rating": 0}, "4": {"stimulus": 76, "trial": 4, "categoryRate": "NA", "rt": 2188, "rating": 0}, "7": {"stimulus": 14, "trial": 7, "categoryRate": "NA", "rt": 2059, "rating": 10}, "6": {"stimulus": 79, "trial": 6, "categoryRate": "NA", "rt": 2044, "rating": 0}, "9": {"stimulus": -1, "trial": 9, "categoryRate": "Beta", "rt": 9588, "rating": 10}, "8": {"stimulus": -1, "trial": 8, "categoryRate": "Alpha", "rt": 39403, "rating": 0}}, "submit": {"timeTotal": 414757, "age": "52", "comments": "I  think if all the colors correspond with each other or no", "sex": "female"}}