{"info": {"finish": 1521064169878, "participant": 27, "exposed": true, "stimuli": [30, 32, 48, 50, 80, 8, 0, 72], "lab": false, "pptmatch": 27, "start": 1521063977488, "catflip": false, "categories": [0, 0, 0, 0, 1, 1, 1, 1], "counterbalance": 4, "condition": "Middle", "browser": {"platform": "Win32", "userAgent": "Mozilla/5.0 (Windows NT 6.1; Win64; x64) AppleWebKit/537.36 (KHTML, like Gecko) Chrome/64.0.3282.186 Safari/537.36"}}, "assignment": {"24": {"stimulus": 80, "trial": 24, "rt": 1854, "correctcat": 1, "response": 1}, "25": {"stimulus": 8, "trial": 25, "rt": 1922, "correctcat": 1, "response": 1}, "26": {"stimulus": 50, "trial": 26, "rt": 1006, "correctcat": 0, "response": 0}, "27": {"stimulus": 72, "trial": 27, "rt": 1070, "correctcat": 1, "response": 1}, "20": {"stimulus": 80, "trial": 20, "rt": 1526, "correctcat": 1, "response": 0}, "21": {"stimulus": 50, "trial": 21, "rt": 1674, "correctcat": 0, "response": 0}, "22": {"stimulus": 48, "trial": 22, "rt": 1278, "correctcat": 0, "response": 0}, "23": {"stimulus": 0, "trial": 23, "rt": 1090, "correctcat": 1, "response": 1}, "28": {"stimulus": 32, "trial": 28, "rt": 902, "correctcat": 0, "response": 0}, "29": {"stimulus": 0, "trial": 29, "rt": 910, "correctcat": 1, "response": 1}, "1": {"stimulus": 0, "trial": 1, "rt": 990, "correctcat": 1, "response": 0}, "0": {"stimulus": 80, "trial": 0, "rt": 2139, "correctcat": 1, "response": 0}, "3": {"stimulus": 30, "trial": 3, "rt": 1147, "correctcat": 0, "response": 1}, "2": {"stimulus": 8, "trial": 2, "rt": 1614, "correctcat": 1, "response": 0}, "5": {"stimulus": 50, "trial": 5, "rt": 1225, "correctcat": 0, "response": 1}, "4": {"stimulus": 72, "trial": 4, "rt": 2166, "correctcat": 1, "response": 1}, "7": {"stimulus": 48, "trial": 7, "rt": 1089, "correctcat": 0, "response": 1}, "6": {"stimulus": 32, "trial": 6, "rt": 1322, "correctcat": 0, "response": 0}, "9": {"stimulus": 72, "trial": 9, "rt": 2448, "correctcat": 1, "response": 0}, "8": {"stimulus": 80, "trial": 8, "rt": 1326, "correctcat": 1, "response": 0}, "11": {"stimulus": 8, "trial": 11, "rt": 1306, "correctcat": 1, "response": 0}, "10": {"stimulus": 32, "trial": 10, "rt": 1242, "correctcat": 0, "response": 0}, "13": {"stimulus": 0, "trial": 13, "rt": 1621, "correctcat": 1, "response": 1}, "12": {"stimulus": 30, "trial": 12, "rt": 1127, "correctcat": 0, "response": 0}, "15": {"stimulus": 50, "trial": 15, "rt": 1199, "correctcat": 0, "response": 0}, "14": {"stimulus": 48, "trial": 14, "rt": 1995, "correctcat": 0, "response": 1}, "17": {"stimulus": 30, "trial": 17, "rt": 1930, "correctcat": 0, "response": 0}, "16": {"stimulus": 8, "trial": 16, "rt": 1355, "correctcat": 1, "response": 1}, "19": {"stimulus": 32, "trial": 19, "rt": 2058, "correctcat": 0, "response": 0}, "18": {"stimulus": 72, "trial": 18, "rt": 1030, "correctcat": 1, "response": 1}, "31": {"stimulus": 30, "trial": 31, "rt": 1030, "correctcat": 0, "response": 0}, "30": {"stimulus": 48, "trial": 30, "rt": 978, "correctcat": 0, "response": 0}}, "experiment": {"Paradigm": "TACL", "Stimuli": "Size-Color Squares", "Experiment": "Assigning-Generated-Categories"}, "goodness": {"1": {"stimulus": 48, "trial": 1, "categoryRate": "NA", "rt": 3132, "rating": 3}, "0": {"stimulus": 80, "trial": 0, "categoryRate": "NA", "rt": 9467, "rating": 8}, "3": {"stimulus": 30, "trial": 3, "categoryRate": "NA", "rt": 3297, "rating": 8}, "2": {"stimulus": 72, "trial": 2, "categoryRate": "NA", "rt": 2558, "rating": 6}, "5": {"stimulus": 8, "trial": 5, "categoryRate": "NA", "rt": 1964, "rating": 3}, "4": {"stimulus": 0, "trial": 4, "categoryRate": "NA", "rt": 2368, "rating": 1}, "7": {"stimulus": 32, "trial": 7, "categoryRate": "NA", "rt": 2585, "rating": 9}, "6": {"stimulus": 50, "trial": 6, "categoryRate": "NA", "rt": 2145, "rating": 9}, "9": {"stimulus": -1, "trial": 9, "categoryRate": "Beta", "rt": 3068, "rating": 3}, "8": {"stimulus": -1, "trial": 8, "categoryRate": "Alpha", "rt": 6995, "rating": 10}}, "submit": {"timeTotal": 192774, "age": "34", "comments": "", "sex": "Female"}}