{"info": {"finish": 1521065252769, "participant": 31, "exposed": true, "stimuli": [12, 14, 30, 32, 63, 64, 80, 68], "lab": false, "pptmatch": 31, "start": 1521065014276, "catflip": false, "categories": [0, 0, 0, 0, 1, 1, 1, 1], "counterbalance": 1, "condition": "Bottom", "browser": {"platform": "Win32", "userAgent": "Mozilla/5.0 (Windows NT 10.0; WOW64) AppleWebKit/537.36 (KHTML, like Gecko) Chrome/65.0.3325.162 Safari/537.36"}}, "assignment": {"24": {"stimulus": 64, "trial": 24, "rt": 1412, "correctcat": 1, "response": 1}, "25": {"stimulus": 63, "trial": 25, "rt": 750, "correctcat": 1, "response": 1}, "26": {"stimulus": 12, "trial": 26, "rt": 1029, "correctcat": 0, "response": 0}, "27": {"stimulus": 14, "trial": 27, "rt": 966, "correctcat": 0, "response": 0}, "20": {"stimulus": 80, "trial": 20, "rt": 920, "correctcat": 1, "response": 1}, "21": {"stimulus": 63, "trial": 21, "rt": 1336, "correctcat": 1, "response": 1}, "22": {"stimulus": 64, "trial": 22, "rt": 816, "correctcat": 1, "response": 1}, "23": {"stimulus": 32, "trial": 23, "rt": 1033, "correctcat": 0, "response": 0}, "28": {"stimulus": 32, "trial": 28, "rt": 874, "correctcat": 0, "response": 0}, "29": {"stimulus": 68, "trial": 29, "rt": 989, "correctcat": 1, "response": 1}, "1": {"stimulus": 80, "trial": 1, "rt": 1541, "correctcat": 1, "response": 1}, "0": {"stimulus": 32, "trial": 0, "rt": 1860, "correctcat": 0, "response": 0}, "3": {"stimulus": 14, "trial": 3, "rt": 872, "correctcat": 0, "response": 0}, "2": {"stimulus": 64, "trial": 2, "rt": 1552, "correctcat": 1, "response": 1}, "5": {"stimulus": 63, "trial": 5, "rt": 1023, "correctcat": 1, "response": 1}, "4": {"stimulus": 12, "trial": 4, "rt": 1023, "correctcat": 0, "response": 0}, "7": {"stimulus": 68, "trial": 7, "rt": 768, "correctcat": 1, "response": 1}, "6": {"stimulus": 30, "trial": 6, "rt": 927, "correctcat": 0, "response": 0}, "9": {"stimulus": 80, "trial": 9, "rt": 918, "correctcat": 1, "response": 1}, "8": {"stimulus": 68, "trial": 8, "rt": 1415, "correctcat": 1, "response": 1}, "11": {"stimulus": 12, "trial": 11, "rt": 8879, "correctcat": 0, "response": 0}, "10": {"stimulus": 63, "trial": 10, "rt": 969, "correctcat": 1, "response": 1}, "13": {"stimulus": 30, "trial": 13, "rt": 1190, "correctcat": 0, "response": 0}, "12": {"stimulus": 14, "trial": 12, "rt": 1194, "correctcat": 0, "response": 0}, "15": {"stimulus": 32, "trial": 15, "rt": 16182, "correctcat": 0, "response": 0}, "14": {"stimulus": 64, "trial": 14, "rt": 975, "correctcat": 1, "response": 1}, "17": {"stimulus": 30, "trial": 17, "rt": 1072, "correctcat": 0, "response": 0}, "16": {"stimulus": 12, "trial": 16, "rt": 925, "correctcat": 0, "response": 0}, "19": {"stimulus": 68, "trial": 19, "rt": 976, "correctcat": 1, "response": 1}, "18": {"stimulus": 14, "trial": 18, "rt": 559, "correctcat": 0, "response": 0}, "31": {"stimulus": 30, "trial": 31, "rt": 1351, "correctcat": 0, "response": 0}, "30": {"stimulus": 80, "trial": 30, "rt": 858, "correctcat": 1, "response": 1}}, "experiment": {"Paradigm": "TACL", "Stimuli": "Size-Color Squares", "Experiment": "Assigning-Generated-Categories"}, "goodness": {"1": {"stimulus": 68, "trial": 1, "categoryRate": "NA", "rt": 3564, "rating": 8}, "0": {"stimulus": 30, "trial": 0, "categoryRate": "NA", "rt": 7826, "rating": 6}, "3": {"stimulus": 12, "trial": 3, "categoryRate": "NA", "rt": 4744, "rating": 8}, "2": {"stimulus": 14, "trial": 2, "categoryRate": "NA", "rt": 5424, "rating": 7}, "5": {"stimulus": 80, "trial": 5, "categoryRate": "NA", "rt": 5548, "rating": 6}, "4": {"stimulus": 63, "trial": 4, "categoryRate": "NA", "rt": 3244, "rating": 8}, "7": {"stimulus": 32, "trial": 7, "categoryRate": "NA", "rt": 3414, "rating": 7}, "6": {"stimulus": 64, "trial": 6, "categoryRate": "NA", "rt": 2885, "rating": 7}, "9": {"stimulus": -1, "trial": 9, "categoryRate": "Alpha", "rt": 4028, "rating": 9}, "8": {"stimulus": -1, "trial": 8, "categoryRate": "Beta", "rt": 12124, "rating": 9}}, "submit": {"timeTotal": 238840, "age": "49", "comments": "Everything was fine. Thank you.", "sex": "male"}}