{"info": {"finish": 1521067371294, "participant": 39, "exposed": true, "stimuli": [30, 32, 48, 50, 8, 0, 72, 4], "lab": false, "pptmatch": 39, "start": 1521067003436, "catflip": false, "categories": [0, 0, 0, 0, 1, 1, 1, 1], "counterbalance": 5, "condition": "Middle", "browser": {"platform": "Win32", "userAgent": "Mozilla/5.0 (Windows NT 10.0; Win64; x64) AppleWebKit/537.36 (KHTML, like Gecko) Chrome/64.0.3282.186 Safari/537.36"}}, "assignment": {"24": {"stimulus": 32, "trial": 24, "rt": 22614, "correctcat": 0, "response": 1}, "25": {"stimulus": 50, "trial": 25, "rt": 894, "correctcat": 0, "response": 0}, "26": {"stimulus": 72, "trial": 26, "rt": 2413, "correctcat": 1, "response": 1}, "27": {"stimulus": 30, "trial": 27, "rt": 5505, "correctcat": 0, "response": 0}, "20": {"stimulus": 8, "trial": 20, "rt": 749, "correctcat": 1, "response": 1}, "21": {"stimulus": 72, "trial": 21, "rt": 2598, "correctcat": 1, "response": 1}, "22": {"stimulus": 0, "trial": 22, "rt": 1366, "correctcat": 1, "response": 1}, "23": {"stimulus": 4, "trial": 23, "rt": 13700, "correctcat": 1, "response": 0}, "28": {"stimulus": 4, "trial": 28, "rt": 11508, "correctcat": 1, "response": 0}, "29": {"stimulus": 0, "trial": 29, "rt": 3109, "correctcat": 1, "response": 1}, "1": {"stimulus": 32, "trial": 1, "rt": 1141, "correctcat": 0, "response": 0}, "0": {"stimulus": 30, "trial": 0, "rt": 2360, "correctcat": 0, "response": 1}, "3": {"stimulus": 72, "trial": 3, "rt": 967, "correctcat": 1, "response": 1}, "2": {"stimulus": 50, "trial": 2, "rt": 855, "correctcat": 0, "response": 0}, "5": {"stimulus": 0, "trial": 5, "rt": 1107, "correctcat": 1, "response": 1}, "4": {"stimulus": 8, "trial": 4, "rt": 1589, "correctcat": 1, "response": 1}, "7": {"stimulus": 4, "trial": 7, "rt": 981, "correctcat": 1, "response": 0}, "6": {"stimulus": 48, "trial": 6, "rt": 902, "correctcat": 0, "response": 0}, "9": {"stimulus": 8, "trial": 9, "rt": 670, "correctcat": 1, "response": 1}, "8": {"stimulus": 0, "trial": 8, "rt": 1278, "correctcat": 1, "response": 1}, "11": {"stimulus": 4, "trial": 11, "rt": 1045, "correctcat": 1, "response": 1}, "10": {"stimulus": 72, "trial": 10, "rt": 2044, "correctcat": 1, "response": 0}, "13": {"stimulus": 30, "trial": 13, "rt": 853, "correctcat": 0, "response": 1}, "12": {"stimulus": 50, "trial": 12, "rt": 1453, "correctcat": 0, "response": 0}, "15": {"stimulus": 48, "trial": 15, "rt": 6525, "correctcat": 0, "response": 1}, "14": {"stimulus": 32, "trial": 14, "rt": 1151, "correctcat": 0, "response": 1}, "17": {"stimulus": 50, "trial": 17, "rt": 7526, "correctcat": 0, "response": 0}, "16": {"stimulus": 48, "trial": 16, "rt": 847, "correctcat": 0, "response": 1}, "19": {"stimulus": 32, "trial": 19, "rt": 26179, "correctcat": 0, "response": 1}, "18": {"stimulus": 30, "trial": 18, "rt": 2397, "correctcat": 0, "response": 0}, "31": {"stimulus": 48, "trial": 31, "rt": 1054, "correctcat": 0, "response": 0}, "30": {"stimulus": 8, "trial": 30, "rt": 19059, "correctcat": 1, "response": 1}}, "experiment": {"Paradigm": "TACL", "Stimuli": "Size-Color Squares", "Experiment": "Assigning-Generated-Categories"}, "goodness": {"1": {"stimulus": 48, "trial": 1, "categoryRate": "NA", "rt": 1828, "rating": 7}, "0": {"stimulus": 30, "trial": 0, "categoryRate": "NA", "rt": 6852, "rating": 10}, "3": {"stimulus": 8, "trial": 3, "categoryRate": "NA", "rt": 1373, "rating": 2}, "2": {"stimulus": 72, "trial": 2, "categoryRate": "NA", "rt": 2629, "rating": 2}, "5": {"stimulus": 4, "trial": 5, "categoryRate": "NA", "rt": 2916, "rating": 5}, "4": {"stimulus": 32, "trial": 4, "categoryRate": "NA", "rt": 4077, "rating": 4}, "7": {"stimulus": 0, "trial": 7, "categoryRate": "NA", "rt": 2267, "rating": 2}, "6": {"stimulus": 50, "trial": 6, "categoryRate": "NA", "rt": 1564, "rating": 7}, "9": {"stimulus": -1, "trial": 9, "categoryRate": "Alpha", "rt": 1987, "rating": 9}, "8": {"stimulus": -1, "trial": 8, "categoryRate": "Beta", "rt": 48042, "rating": 7}}, "submit": {"timeTotal": 368132, "age": "25", "comments": "", "sex": "Male"}}