{"info": {"finish": 1521073717076, "participant": 46, "exposed": true, "stimuli": [12, 14, 30, 32, 64, 63, 46, 74], "lab": false, "pptmatch": 46, "start": 1521070507126, "catflip": true, "categories": [1, 1, 1, 1, 0, 0, 0, 0], "counterbalance": 0, "condition": "Bottom", "browser": {"platform": "Win32", "userAgent": "Mozilla/5.0 (Windows NT 6.1; Win64; x64) AppleWebKit/537.36 (KHTML, like Gecko) Chrome/64.0.3282.186 Safari/537.36"}}, "assignment": {"24": {"stimulus": 14, "trial": 24, "rt": 817, "correctcat": 1, "response": 1}, "25": {"stimulus": 64, "trial": 25, "rt": 784, "correctcat": 0, "response": 0}, "26": {"stimulus": 32, "trial": 26, "rt": 926, "correctcat": 1, "response": 1}, "27": {"stimulus": 46, "trial": 27, "rt": 768, "correctcat": 0, "response": 0}, "20": {"stimulus": 74, "trial": 20, "rt": 1543, "correctcat": 0, "response": 1}, "21": {"stimulus": 64, "trial": 21, "rt": 902, "correctcat": 0, "response": 0}, "22": {"stimulus": 63, "trial": 22, "rt": 879, "correctcat": 0, "response": 0}, "23": {"stimulus": 30, "trial": 23, "rt": 784, "correctcat": 1, "response": 1}, "28": {"stimulus": 30, "trial": 28, "rt": 928, "correctcat": 1, "response": 1}, "29": {"stimulus": 74, "trial": 29, "rt": 1503, "correctcat": 0, "response": 1}, "1": {"stimulus": 14, "trial": 1, "rt": 1527, "correctcat": 1, "response": 0}, "0": {"stimulus": 46, "trial": 0, "rt": 2784, "correctcat": 0, "response": 1}, "3": {"stimulus": 30, "trial": 3, "rt": 817, "correctcat": 1, "response": 0}, "2": {"stimulus": 74, "trial": 2, "rt": 1896, "correctcat": 0, "response": 0}, "5": {"stimulus": 63, "trial": 5, "rt": 675, "correctcat": 0, "response": 0}, "4": {"stimulus": 64, "trial": 4, "rt": 676, "correctcat": 0, "response": 0}, "7": {"stimulus": 32, "trial": 7, "rt": 689, "correctcat": 1, "response": 1}, "6": {"stimulus": 12, "trial": 6, "rt": 793, "correctcat": 1, "response": 1}, "9": {"stimulus": 74, "trial": 9, "rt": 817, "correctcat": 0, "response": 0}, "8": {"stimulus": 14, "trial": 8, "rt": 662, "correctcat": 1, "response": 1}, "11": {"stimulus": 63, "trial": 11, "rt": 782, "correctcat": 0, "response": 0}, "10": {"stimulus": 32, "trial": 10, "rt": 944, "correctcat": 1, "response": 1}, "13": {"stimulus": 30, "trial": 13, "rt": 856, "correctcat": 1, "response": 1}, "12": {"stimulus": 46, "trial": 12, "rt": 1215, "correctcat": 0, "response": 0}, "15": {"stimulus": 64, "trial": 15, "rt": 813, "correctcat": 0, "response": 0}, "14": {"stimulus": 12, "trial": 14, "rt": 570, "correctcat": 1, "response": 1}, "17": {"stimulus": 12, "trial": 17, "rt": 1637, "correctcat": 1, "response": 1}, "16": {"stimulus": 32, "trial": 16, "rt": 857, "correctcat": 1, "response": 1}, "19": {"stimulus": 14, "trial": 19, "rt": 958, "correctcat": 1, "response": 1}, "18": {"stimulus": 46, "trial": 18, "rt": 968, "correctcat": 0, "response": 0}, "31": {"stimulus": 12, "trial": 31, "rt": 871, "correctcat": 1, "response": 1}, "30": {"stimulus": 63, "trial": 30, "rt": 1800, "correctcat": 0, "response": 0}}, "experiment": {"Paradigm": "TACL", "Stimuli": "Size-Color Squares", "Experiment": "Assigning-Generated-Categories"}, "goodness": {"1": {"stimulus": 14, "trial": 1, "categoryRate": "NA", "rt": 20749, "rating": 10}, "0": {"stimulus": 74, "trial": 0, "categoryRate": "NA", "rt": 8401, "rating": 5}, "3": {"stimulus": 30, "trial": 3, "categoryRate": "NA", "rt": 1836, "rating": 10}, "2": {"stimulus": 63, "trial": 2, "categoryRate": "NA", "rt": 1582, "rating": 10}, "5": {"stimulus": 46, "trial": 5, "categoryRate": "NA", "rt": 1949, "rating": 10}, "4": {"stimulus": 64, "trial": 4, "categoryRate": "NA", "rt": 1301, "rating": 10}, "7": {"stimulus": 12, "trial": 7, "categoryRate": "NA", "rt": 1926, "rating": 10}, "6": {"stimulus": 32, "trial": 6, "categoryRate": "NA", "rt": 1374, "rating": 10}, "9": {"stimulus": -1, "trial": 9, "categoryRate": "Alpha", "rt": 4866, "rating": 10}, "8": {"stimulus": -1, "trial": 8, "categoryRate": "Beta", "rt": 10934, "rating": 10}}, "submit": {"timeTotal": 3210104, "age": "31", "comments": "I was not quite sure what you meant with \"how well it fits its category\" as I was expecting one of the categories to be listed.  In the end, I put 10 since it kinda had to be well to fit into its category to be categorized as such.", "sex": "Male"}}