{"info": {"finish": 1521071445243, "participant": 54, "exposed": true, "stimuli": [30, 32, 48, 50, 4, 76, 8, 80], "lab": false, "pptmatch": 54, "start": 1521071110240, "catflip": true, "categories": [1, 1, 1, 1, 0, 0, 0, 0], "counterbalance": 3, "condition": "Middle", "browser": {"platform": "Win32", "userAgent": "Mozilla/5.0 (Windows NT 6.1; Win64; x64) AppleWebKit/537.36 (KHTML, like Gecko) Chrome/67.0.3370.0 Safari/537.36"}}, "assignment": {"24": {"stimulus": 76, "trial": 24, "rt": 1111, "correctcat": 0, "response": 0}, "25": {"stimulus": 50, "trial": 25, "rt": 1214, "correctcat": 1, "response": 1}, "26": {"stimulus": 4, "trial": 26, "rt": 1416, "correctcat": 0, "response": 0}, "27": {"stimulus": 80, "trial": 27, "rt": 1290, "correctcat": 0, "response": 0}, "20": {"stimulus": 80, "trial": 20, "rt": 2189, "correctcat": 0, "response": 1}, "21": {"stimulus": 30, "trial": 21, "rt": 1405, "correctcat": 1, "response": 1}, "22": {"stimulus": 48, "trial": 22, "rt": 1263, "correctcat": 1, "response": 1}, "23": {"stimulus": 8, "trial": 23, "rt": 1034, "correctcat": 0, "response": 0}, "28": {"stimulus": 48, "trial": 28, "rt": 1248, "correctcat": 1, "response": 1}, "29": {"stimulus": 8, "trial": 29, "rt": 1288, "correctcat": 0, "response": 0}, "1": {"stimulus": 80, "trial": 1, "rt": 2151, "correctcat": 0, "response": 1}, "0": {"stimulus": 32, "trial": 0, "rt": 3117, "correctcat": 1, "response": 0}, "3": {"stimulus": 76, "trial": 3, "rt": 934, "correctcat": 0, "response": 0}, "2": {"stimulus": 8, "trial": 2, "rt": 1292, "correctcat": 0, "response": 0}, "5": {"stimulus": 48, "trial": 5, "rt": 2798, "correctcat": 1, "response": 0}, "4": {"stimulus": 4, "trial": 4, "rt": 1057, "correctcat": 0, "response": 0}, "7": {"stimulus": 30, "trial": 7, "rt": 1324, "correctcat": 1, "response": 1}, "6": {"stimulus": 50, "trial": 6, "rt": 1843, "correctcat": 1, "response": 1}, "9": {"stimulus": 30, "trial": 9, "rt": 1683, "correctcat": 1, "response": 1}, "8": {"stimulus": 50, "trial": 8, "rt": 4703, "correctcat": 1, "response": 1}, "11": {"stimulus": 48, "trial": 11, "rt": 1267, "correctcat": 1, "response": 1}, "10": {"stimulus": 80, "trial": 10, "rt": 1427, "correctcat": 0, "response": 0}, "13": {"stimulus": 8, "trial": 13, "rt": 996, "correctcat": 0, "response": 0}, "12": {"stimulus": 4, "trial": 12, "rt": 1285, "correctcat": 0, "response": 0}, "15": {"stimulus": 32, "trial": 15, "rt": 2037, "correctcat": 1, "response": 1}, "14": {"stimulus": 76, "trial": 14, "rt": 1147, "correctcat": 0, "response": 0}, "17": {"stimulus": 4, "trial": 17, "rt": 1135, "correctcat": 0, "response": 0}, "16": {"stimulus": 76, "trial": 16, "rt": 1067, "correctcat": 0, "response": 0}, "19": {"stimulus": 50, "trial": 19, "rt": 1175, "correctcat": 1, "response": 1}, "18": {"stimulus": 32, "trial": 18, "rt": 1085, "correctcat": 1, "response": 1}, "31": {"stimulus": 30, "trial": 31, "rt": 948, "correctcat": 1, "response": 1}, "30": {"stimulus": 32, "trial": 30, "rt": 1247, "correctcat": 1, "response": 1}}, "experiment": {"Paradigm": "TACL", "Stimuli": "Size-Color Squares", "Experiment": "Assigning-Generated-Categories"}, "goodness": {"1": {"stimulus": 8, "trial": 1, "categoryRate": "NA", "rt": 5605, "rating": 10}, "0": {"stimulus": 30, "trial": 0, "categoryRate": "NA", "rt": 15915, "rating": 7}, "3": {"stimulus": 80, "trial": 3, "categoryRate": "NA", "rt": 2529, "rating": 10}, "2": {"stimulus": 48, "trial": 2, "categoryRate": "NA", "rt": 3864, "rating": 6}, "5": {"stimulus": 50, "trial": 5, "categoryRate": "NA", "rt": 96117, "rating": 7}, "4": {"stimulus": 4, "trial": 4, "categoryRate": "NA", "rt": 2462, "rating": 10}, "7": {"stimulus": 76, "trial": 7, "categoryRate": "NA", "rt": 2659, "rating": 10}, "6": {"stimulus": 32, "trial": 6, "categoryRate": "NA", "rt": 3156, "rating": 6}, "9": {"stimulus": -1, "trial": 9, "categoryRate": "Beta", "rt": 3372, "rating": 7}, "8": {"stimulus": -1, "trial": 8, "categoryRate": "Alpha", "rt": 15119, "rating": 9}}, "submit": {"timeTotal": 335272, "age": "43", "comments": "Very strange. But fair pay!", "sex": "male"}}