{"info": {"finish": 1521071945381, "participant": 55, "exposed": true, "stimuli": [12, 14, 30, 32, 72, 80, 79, 0], "lab": false, "pptmatch": 55, "start": 1521071714069, "catflip": false, "categories": [0, 0, 0, 0, 1, 1, 1, 1], "counterbalance": 5, "condition": "Bottom", "browser": {"platform": "Win32", "userAgent": "Mozilla/5.0 (Windows NT 10.0; Win64; x64) AppleWebKit/537.36 (KHTML, like Gecko) Chrome/65.0.3325.162 Safari/537.36"}}, "assignment": {"24": {"stimulus": 72, "trial": 24, "rt": 5695, "correctcat": 1, "response": 1}, "25": {"stimulus": 79, "trial": 25, "rt": 849, "correctcat": 1, "response": 0}, "26": {"stimulus": 80, "trial": 26, "rt": 903, "correctcat": 1, "response": 1}, "27": {"stimulus": 14, "trial": 27, "rt": 2017, "correctcat": 0, "response": 0}, "20": {"stimulus": 72, "trial": 20, "rt": 474, "correctcat": 1, "response": 1}, "21": {"stimulus": 80, "trial": 21, "rt": 423, "correctcat": 1, "response": 1}, "22": {"stimulus": 79, "trial": 22, "rt": 964, "correctcat": 1, "response": 1}, "23": {"stimulus": 30, "trial": 23, "rt": 20972, "correctcat": 0, "response": 0}, "28": {"stimulus": 30, "trial": 28, "rt": 1321, "correctcat": 0, "response": 1}, "29": {"stimulus": 0, "trial": 29, "rt": 717, "correctcat": 1, "response": 0}, "1": {"stimulus": 80, "trial": 1, "rt": 1457, "correctcat": 1, "response": 0}, "0": {"stimulus": 72, "trial": 0, "rt": 2728, "correctcat": 1, "response": 1}, "3": {"stimulus": 30, "trial": 3, "rt": 2191, "correctcat": 0, "response": 0}, "2": {"stimulus": 12, "trial": 2, "rt": 1349, "correctcat": 0, "response": 1}, "5": {"stimulus": 32, "trial": 5, "rt": 1028, "correctcat": 0, "response": 0}, "4": {"stimulus": 0, "trial": 4, "rt": 1239, "correctcat": 1, "response": 1}, "7": {"stimulus": 14, "trial": 7, "rt": 2051, "correctcat": 0, "response": 1}, "6": {"stimulus": 79, "trial": 6, "rt": 1043, "correctcat": 1, "response": 0}, "9": {"stimulus": 14, "trial": 9, "rt": 1880, "correctcat": 0, "response": 1}, "8": {"stimulus": 30, "trial": 8, "rt": 5151, "correctcat": 0, "response": 0}, "11": {"stimulus": 32, "trial": 11, "rt": 417, "correctcat": 0, "response": 0}, "10": {"stimulus": 12, "trial": 10, "rt": 3639, "correctcat": 0, "response": 1}, "13": {"stimulus": 72, "trial": 13, "rt": 1338, "correctcat": 1, "response": 1}, "12": {"stimulus": 80, "trial": 12, "rt": 1241, "correctcat": 1, "response": 0}, "15": {"stimulus": 79, "trial": 15, "rt": 344, "correctcat": 1, "response": 0}, "14": {"stimulus": 0, "trial": 14, "rt": 1212, "correctcat": 1, "response": 1}, "17": {"stimulus": 32, "trial": 17, "rt": 972, "correctcat": 0, "response": 0}, "16": {"stimulus": 12, "trial": 16, "rt": 783, "correctcat": 0, "response": 1}, "19": {"stimulus": 14, "trial": 19, "rt": 1259, "correctcat": 0, "response": 0}, "18": {"stimulus": 0, "trial": 18, "rt": 2294, "correctcat": 1, "response": 1}, "31": {"stimulus": 12, "trial": 31, "rt": 852, "correctcat": 0, "response": 1}, "30": {"stimulus": 32, "trial": 30, "rt": 457, "correctcat": 0, "response": 1}}, "experiment": {"Paradigm": "TACL", "Stimuli": "Size-Color Squares", "Experiment": "Assigning-Generated-Categories"}, "goodness": {"1": {"stimulus": 80, "trial": 1, "categoryRate": "NA", "rt": 2232, "rating": 9}, "0": {"stimulus": 30, "trial": 0, "categoryRate": "NA", "rt": 4170, "rating": 3}, "3": {"stimulus": 79, "trial": 3, "categoryRate": "NA", "rt": 2507, "rating": 10}, "2": {"stimulus": 14, "trial": 2, "categoryRate": "NA", "rt": 2033, "rating": 3}, "5": {"stimulus": 72, "trial": 5, "categoryRate": "NA", "rt": 9187, "rating": 4}, "4": {"stimulus": 0, "trial": 4, "categoryRate": "NA", "rt": 2917, "rating": 0}, "7": {"stimulus": 32, "trial": 7, "categoryRate": "NA", "rt": 2162, "rating": 7}, "6": {"stimulus": 12, "trial": 6, "categoryRate": "NA", "rt": 3540, "rating": 5}, "9": {"stimulus": -1, "trial": 9, "categoryRate": "Alpha", "rt": 5601, "rating": 1}, "8": {"stimulus": -1, "trial": 8, "categoryRate": "Beta", "rt": 7915, "rating": 1}}, "submit": {"timeTotal": 231760, "age": "21", "comments": "", "sex": "male"}}