{"info": {"finish": 1521077987971, "participant": 58, "exposed": true, "stimuli": [30, 32, 48, 50, 64, 73, 63, 72], "lab": false, "pptmatch": 58, "start": 1521077708983, "catflip": false, "categories": [0, 0, 0, 0, 1, 1, 1, 1], "counterbalance": 7, "condition": "Middle", "browser": {"platform": "Win32", "userAgent": "Mozilla/5.0 (Windows NT 6.1; Win64; x64) AppleWebKit/537.36 (KHTML, like Gecko) Chrome/64.0.3282.186 Safari/537.36"}}, "assignment": {"24": {"stimulus": 73, "trial": 24, "rt": 1351, "correctcat": 1, "response": 1}, "25": {"stimulus": 64, "trial": 25, "rt": 993, "correctcat": 1, "response": 1}, "26": {"stimulus": 30, "trial": 26, "rt": 1160, "correctcat": 0, "response": 0}, "27": {"stimulus": 50, "trial": 27, "rt": 959, "correctcat": 0, "response": 0}, "20": {"stimulus": 30, "trial": 20, "rt": 1081, "correctcat": 0, "response": 0}, "21": {"stimulus": 63, "trial": 21, "rt": 1472, "correctcat": 1, "response": 1}, "22": {"stimulus": 50, "trial": 22, "rt": 1662, "correctcat": 0, "response": 0}, "23": {"stimulus": 72, "trial": 23, "rt": 1475, "correctcat": 1, "response": 1}, "28": {"stimulus": 48, "trial": 28, "rt": 969, "correctcat": 0, "response": 0}, "29": {"stimulus": 72, "trial": 29, "rt": 1733, "correctcat": 1, "response": 1}, "1": {"stimulus": 63, "trial": 1, "rt": 2025, "correctcat": 1, "response": 0}, "0": {"stimulus": 30, "trial": 0, "rt": 4747, "correctcat": 0, "response": 0}, "3": {"stimulus": 64, "trial": 3, "rt": 1326, "correctcat": 1, "response": 1}, "2": {"stimulus": 50, "trial": 2, "rt": 1399, "correctcat": 0, "response": 0}, "5": {"stimulus": 32, "trial": 5, "rt": 1148, "correctcat": 0, "response": 0}, "4": {"stimulus": 73, "trial": 4, "rt": 1129, "correctcat": 1, "response": 1}, "7": {"stimulus": 72, "trial": 7, "rt": 1405, "correctcat": 1, "response": 1}, "6": {"stimulus": 48, "trial": 6, "rt": 879, "correctcat": 0, "response": 0}, "9": {"stimulus": 48, "trial": 9, "rt": 1146, "correctcat": 0, "response": 0}, "8": {"stimulus": 64, "trial": 8, "rt": 1000, "correctcat": 1, "response": 1}, "11": {"stimulus": 50, "trial": 11, "rt": 864, "correctcat": 0, "response": 0}, "10": {"stimulus": 32, "trial": 10, "rt": 1139, "correctcat": 0, "response": 0}, "13": {"stimulus": 30, "trial": 13, "rt": 1414, "correctcat": 0, "response": 0}, "12": {"stimulus": 72, "trial": 12, "rt": 1571, "correctcat": 1, "response": 1}, "15": {"stimulus": 73, "trial": 15, "rt": 2316, "correctcat": 1, "response": 1}, "14": {"stimulus": 63, "trial": 14, "rt": 1298, "correctcat": 1, "response": 1}, "17": {"stimulus": 48, "trial": 17, "rt": 1424, "correctcat": 0, "response": 0}, "16": {"stimulus": 64, "trial": 16, "rt": 1226, "correctcat": 1, "response": 1}, "19": {"stimulus": 32, "trial": 19, "rt": 1257, "correctcat": 0, "response": 0}, "18": {"stimulus": 73, "trial": 18, "rt": 1723, "correctcat": 1, "response": 1}, "31": {"stimulus": 63, "trial": 31, "rt": 1443, "correctcat": 1, "response": 1}, "30": {"stimulus": 32, "trial": 30, "rt": 1406, "correctcat": 0, "response": 0}}, "experiment": {"Paradigm": "TACL", "Stimuli": "Size-Color Squares", "Experiment": "Assigning-Generated-Categories"}, "goodness": {"1": {"stimulus": 64, "trial": 1, "categoryRate": "NA", "rt": 2919, "rating": 4}, "0": {"stimulus": 48, "trial": 0, "categoryRate": "NA", "rt": 17810, "rating": 6}, "3": {"stimulus": 63, "trial": 3, "categoryRate": "NA", "rt": 3287, "rating": 9}, "2": {"stimulus": 50, "trial": 2, "categoryRate": "NA", "rt": 3108, "rating": 8}, "5": {"stimulus": 30, "trial": 5, "categoryRate": "NA", "rt": 2364, "rating": 7}, "4": {"stimulus": 32, "trial": 4, "categoryRate": "NA", "rt": 3683, "rating": 9}, "7": {"stimulus": 73, "trial": 7, "categoryRate": "NA", "rt": 2821, "rating": 6}, "6": {"stimulus": 72, "trial": 6, "categoryRate": "NA", "rt": 49128, "rating": 8}, "9": {"stimulus": -1, "trial": 9, "categoryRate": "Beta", "rt": 4267, "rating": 9}, "8": {"stimulus": -1, "trial": 8, "categoryRate": "Alpha", "rt": 11034, "rating": 10}}, "submit": {"timeTotal": 279523, "age": "29", "comments": "Very fun experiment.  It felt more like a game, so it was easy to focus on. ", "sex": "Female"}}