{"info": {"finish": 1521078858113, "participant": 64, "exposed": true, "stimuli": [30, 32, 48, 50, 26, 35, 52, 17], "lab": false, "pptmatch": 64, "start": 1521078550033, "catflip": false, "categories": [0, 0, 0, 0, 1, 1, 1, 1], "counterbalance": 7, "condition": "Middle", "browser": {"platform": "Win32", "userAgent": "Mozilla/5.0 (Windows NT 10.0; Win64; x64) AppleWebKit/537.36 (KHTML, like Gecko) Chrome/64.0.3282.186 Safari/537.36"}}, "assignment": {"24": {"stimulus": 26, "trial": 24, "rt": 957, "correctcat": 1, "response": 1}, "25": {"stimulus": 17, "trial": 25, "rt": 502, "correctcat": 1, "response": 1}, "26": {"stimulus": 35, "trial": 26, "rt": 468, "correctcat": 1, "response": 1}, "27": {"stimulus": 50, "trial": 27, "rt": 954, "correctcat": 0, "response": 0}, "20": {"stimulus": 17, "trial": 20, "rt": 567, "correctcat": 1, "response": 1}, "21": {"stimulus": 32, "trial": 21, "rt": 843, "correctcat": 0, "response": 0}, "22": {"stimulus": 48, "trial": 22, "rt": 525, "correctcat": 0, "response": 0}, "23": {"stimulus": 30, "trial": 23, "rt": 542, "correctcat": 0, "response": 0}, "28": {"stimulus": 32, "trial": 28, "rt": 1271, "correctcat": 0, "response": 0}, "29": {"stimulus": 48, "trial": 29, "rt": 551, "correctcat": 0, "response": 0}, "1": {"stimulus": 30, "trial": 1, "rt": 1070, "correctcat": 0, "response": 0}, "0": {"stimulus": 52, "trial": 0, "rt": 2492, "correctcat": 1, "response": 0}, "3": {"stimulus": 32, "trial": 3, "rt": 1420, "correctcat": 0, "response": 0}, "2": {"stimulus": 48, "trial": 2, "rt": 1519, "correctcat": 0, "response": 0}, "5": {"stimulus": 50, "trial": 5, "rt": 2123, "correctcat": 0, "response": 0}, "4": {"stimulus": 35, "trial": 4, "rt": 1098, "correctcat": 1, "response": 1}, "7": {"stimulus": 17, "trial": 7, "rt": 948, "correctcat": 1, "response": 1}, "6": {"stimulus": 26, "trial": 6, "rt": 72482, "correctcat": 1, "response": 1}, "9": {"stimulus": 50, "trial": 9, "rt": 1071, "correctcat": 0, "response": 0}, "8": {"stimulus": 30, "trial": 8, "rt": 896, "correctcat": 0, "response": 0}, "11": {"stimulus": 35, "trial": 11, "rt": 559, "correctcat": 1, "response": 1}, "10": {"stimulus": 52, "trial": 10, "rt": 768, "correctcat": 1, "response": 1}, "13": {"stimulus": 32, "trial": 13, "rt": 892, "correctcat": 0, "response": 0}, "12": {"stimulus": 17, "trial": 12, "rt": 1033, "correctcat": 1, "response": 1}, "15": {"stimulus": 26, "trial": 15, "rt": 727, "correctcat": 1, "response": 1}, "14": {"stimulus": 48, "trial": 14, "rt": 554, "correctcat": 0, "response": 0}, "17": {"stimulus": 26, "trial": 17, "rt": 939, "correctcat": 1, "response": 1}, "16": {"stimulus": 50, "trial": 16, "rt": 767, "correctcat": 0, "response": 0}, "19": {"stimulus": 35, "trial": 19, "rt": 536, "correctcat": 1, "response": 1}, "18": {"stimulus": 52, "trial": 18, "rt": 780, "correctcat": 1, "response": 1}, "31": {"stimulus": 52, "trial": 31, "rt": 898, "correctcat": 1, "response": 1}, "30": {"stimulus": 30, "trial": 30, "rt": 709, "correctcat": 0, "response": 0}}, "experiment": {"Paradigm": "TACL", "Stimuli": "Size-Color Squares", "Experiment": "Assigning-Generated-Categories"}, "goodness": {"1": {"stimulus": 52, "trial": 1, "categoryRate": "NA", "rt": 5174, "rating": 1}, "0": {"stimulus": 26, "trial": 0, "categoryRate": "NA", "rt": 11857, "rating": 10}, "3": {"stimulus": 48, "trial": 3, "categoryRate": "NA", "rt": 3860, "rating": 9}, "2": {"stimulus": 50, "trial": 2, "categoryRate": "NA", "rt": 5024, "rating": 6}, "5": {"stimulus": 32, "trial": 5, "categoryRate": "NA", "rt": 1939, "rating": 6}, "4": {"stimulus": 17, "trial": 4, "categoryRate": "NA", "rt": 2734, "rating": 10}, "7": {"stimulus": 35, "trial": 7, "categoryRate": "NA", "rt": 1686, "rating": 10}, "6": {"stimulus": 30, "trial": 6, "categoryRate": "NA", "rt": 2923, "rating": 8}, "9": {"stimulus": -1, "trial": 9, "categoryRate": "Alpha", "rt": 5305, "rating": 6}, "8": {"stimulus": -1, "trial": 8, "categoryRate": "Beta", "rt": 13328, "rating": 9}}, "submit": {"timeTotal": 308242, "age": "29", "comments": "", "sex": "female"}}