{"info": {"finish": 1521081252802, "participant": 67, "exposed": true, "stimuli": [12, 14, 30, 32, 38, 43, 9, 20], "lab": false, "pptmatch": 67, "start": 1521080540107, "catflip": false, "categories": [0, 0, 0, 0, 1, 1, 1, 1], "counterbalance": 5, "condition": "Bottom", "browser": {"platform": "MacIntel", "userAgent": "Mozilla/5.0 (Macintosh; Intel Mac OS X 10_11_6) AppleWebKit/537.36 (KHTML, like Gecko) Chrome/64.0.3282.186 Safari/537.36"}}, "assignment": {"24": {"stimulus": 9, "trial": 24, "rt": 16788, "correctcat": 1, "response": 1}, "25": {"stimulus": 43, "trial": 25, "rt": 14050, "correctcat": 1, "response": 0}, "26": {"stimulus": 30, "trial": 26, "rt": 896, "correctcat": 0, "response": 1}, "27": {"stimulus": 38, "trial": 27, "rt": 18923, "correctcat": 1, "response": 1}, "20": {"stimulus": 38, "trial": 20, "rt": 16886, "correctcat": 1, "response": 1}, "21": {"stimulus": 32, "trial": 21, "rt": 5181, "correctcat": 0, "response": 0}, "22": {"stimulus": 30, "trial": 22, "rt": 1471, "correctcat": 0, "response": 1}, "23": {"stimulus": 43, "trial": 23, "rt": 63241, "correctcat": 1, "response": 1}, "28": {"stimulus": 32, "trial": 28, "rt": 21981, "correctcat": 0, "response": 0}, "29": {"stimulus": 14, "trial": 29, "rt": 1285, "correctcat": 0, "response": 1}, "1": {"stimulus": 14, "trial": 1, "rt": 770, "correctcat": 0, "response": 0}, "0": {"stimulus": 30, "trial": 0, "rt": 4220, "correctcat": 0, "response": 1}, "3": {"stimulus": 20, "trial": 3, "rt": 1416, "correctcat": 1, "response": 0}, "2": {"stimulus": 38, "trial": 2, "rt": 815, "correctcat": 1, "response": 0}, "5": {"stimulus": 43, "trial": 5, "rt": 6089, "correctcat": 1, "response": 1}, "4": {"stimulus": 12, "trial": 4, "rt": 3718, "correctcat": 0, "response": 1}, "7": {"stimulus": 9, "trial": 7, "rt": 7827, "correctcat": 1, "response": 1}, "6": {"stimulus": 32, "trial": 6, "rt": 45515, "correctcat": 0, "response": 1}, "9": {"stimulus": 30, "trial": 9, "rt": 8663, "correctcat": 0, "response": 1}, "8": {"stimulus": 9, "trial": 8, "rt": 758, "correctcat": 1, "response": 0}, "11": {"stimulus": 14, "trial": 11, "rt": 1035, "correctcat": 0, "response": 1}, "10": {"stimulus": 38, "trial": 10, "rt": 2824, "correctcat": 1, "response": 0}, "13": {"stimulus": 32, "trial": 13, "rt": 3990, "correctcat": 0, "response": 1}, "12": {"stimulus": 12, "trial": 12, "rt": 699, "correctcat": 0, "response": 0}, "15": {"stimulus": 20, "trial": 15, "rt": 962, "correctcat": 1, "response": 1}, "14": {"stimulus": 43, "trial": 14, "rt": 16611, "correctcat": 1, "response": 0}, "17": {"stimulus": 12, "trial": 17, "rt": 1365, "correctcat": 0, "response": 1}, "16": {"stimulus": 20, "trial": 16, "rt": 849, "correctcat": 1, "response": 1}, "19": {"stimulus": 9, "trial": 19, "rt": 41105, "correctcat": 1, "response": 1}, "18": {"stimulus": 14, "trial": 18, "rt": 1245, "correctcat": 0, "response": 0}, "31": {"stimulus": 20, "trial": 31, "rt": 815, "correctcat": 1, "response": 1}, "30": {"stimulus": 12, "trial": 30, "rt": 18668, "correctcat": 0, "response": 0}}, "experiment": {"Paradigm": "TACL", "Stimuli": "Size-Color Squares", "Experiment": "Assigning-Generated-Categories"}, "goodness": {"1": {"stimulus": 14, "trial": 1, "categoryRate": "NA", "rt": 18555, "rating": 1}, "0": {"stimulus": 20, "trial": 0, "categoryRate": "NA", "rt": 5266, "rating": 6}, "3": {"stimulus": 9, "trial": 3, "categoryRate": "NA", "rt": 183123, "rating": 8}, "2": {"stimulus": 12, "trial": 2, "categoryRate": "NA", "rt": 3575, "rating": 8}, "5": {"stimulus": 43, "trial": 5, "categoryRate": "NA", "rt": 6698, "rating": 7}, "4": {"stimulus": 38, "trial": 4, "categoryRate": "NA", "rt": 6209, "rating": 2}, "7": {"stimulus": 30, "trial": 7, "categoryRate": "NA", "rt": 5699, "rating": 8}, "6": {"stimulus": 32, "trial": 6, "categoryRate": "NA", "rt": 18420, "rating": 8}, "9": {"stimulus": -1, "trial": 9, "categoryRate": "Beta", "rt": 4685, "rating": 7}, "8": {"stimulus": -1, "trial": 8, "categoryRate": "Alpha", "rt": 11943, "rating": 3}}, "submit": {"timeTotal": 713422, "age": "29", "comments": "I don't have any comments.", "sex": "Female"}}