{"info": {"finish": 1521083332047, "participant": 71, "exposed": true, "stimuli": [30, 32, 48, 50, 2, 5, 6, 4], "lab": false, "pptmatch": 71, "start": 1521083092220, "catflip": false, "categories": [0, 0, 0, 0, 1, 1, 1, 1], "counterbalance": 3, "condition": "Middle", "browser": {"platform": "Win32", "userAgent": "Mozilla/5.0 (Windows NT 6.1; Win64; x64) AppleWebKit/537.36 (KHTML, like Gecko) Chrome/64.0.3282.186 Safari/537.36"}}, "assignment": {"24": {"stimulus": 5, "trial": 24, "rt": 758, "correctcat": 1, "response": 1}, "25": {"stimulus": 4, "trial": 25, "rt": 791, "correctcat": 1, "response": 1}, "26": {"stimulus": 2, "trial": 26, "rt": 810, "correctcat": 1, "response": 1}, "27": {"stimulus": 32, "trial": 27, "rt": 639, "correctcat": 0, "response": 0}, "20": {"stimulus": 50, "trial": 20, "rt": 675, "correctcat": 0, "response": 0}, "21": {"stimulus": 2, "trial": 21, "rt": 700, "correctcat": 1, "response": 1}, "22": {"stimulus": 32, "trial": 22, "rt": 781, "correctcat": 0, "response": 0}, "23": {"stimulus": 48, "trial": 23, "rt": 928, "correctcat": 0, "response": 0}, "28": {"stimulus": 6, "trial": 28, "rt": 1061, "correctcat": 1, "response": 1}, "29": {"stimulus": 48, "trial": 29, "rt": 679, "correctcat": 0, "response": 0}, "1": {"stimulus": 30, "trial": 1, "rt": 1168, "correctcat": 0, "response": 0}, "0": {"stimulus": 32, "trial": 0, "rt": 1938, "correctcat": 0, "response": 0}, "3": {"stimulus": 48, "trial": 3, "rt": 948, "correctcat": 0, "response": 0}, "2": {"stimulus": 2, "trial": 2, "rt": 1065, "correctcat": 1, "response": 1}, "5": {"stimulus": 6, "trial": 5, "rt": 884, "correctcat": 1, "response": 1}, "4": {"stimulus": 4, "trial": 4, "rt": 941, "correctcat": 1, "response": 1}, "7": {"stimulus": 50, "trial": 7, "rt": 677, "correctcat": 0, "response": 0}, "6": {"stimulus": 5, "trial": 6, "rt": 728, "correctcat": 1, "response": 1}, "9": {"stimulus": 5, "trial": 9, "rt": 681, "correctcat": 1, "response": 1}, "8": {"stimulus": 4, "trial": 8, "rt": 753, "correctcat": 1, "response": 1}, "11": {"stimulus": 32, "trial": 11, "rt": 729, "correctcat": 0, "response": 0}, "10": {"stimulus": 30, "trial": 10, "rt": 641, "correctcat": 0, "response": 0}, "13": {"stimulus": 2, "trial": 13, "rt": 755, "correctcat": 1, "response": 1}, "12": {"stimulus": 50, "trial": 12, "rt": 725, "correctcat": 0, "response": 0}, "15": {"stimulus": 6, "trial": 15, "rt": 971, "correctcat": 1, "response": 1}, "14": {"stimulus": 48, "trial": 14, "rt": 830, "correctcat": 0, "response": 0}, "17": {"stimulus": 4, "trial": 17, "rt": 590, "correctcat": 1, "response": 1}, "16": {"stimulus": 5, "trial": 16, "rt": 718, "correctcat": 1, "response": 1}, "19": {"stimulus": 6, "trial": 19, "rt": 681, "correctcat": 1, "response": 1}, "18": {"stimulus": 30, "trial": 18, "rt": 692, "correctcat": 0, "response": 0}, "31": {"stimulus": 50, "trial": 31, "rt": 767, "correctcat": 0, "response": 0}, "30": {"stimulus": 30, "trial": 30, "rt": 807, "correctcat": 0, "response": 0}}, "experiment": {"Paradigm": "TACL", "Stimuli": "Size-Color Squares", "Experiment": "Assigning-Generated-Categories"}, "goodness": {"1": {"stimulus": 32, "trial": 1, "categoryRate": "NA", "rt": 8312, "rating": 8}, "0": {"stimulus": 48, "trial": 0, "categoryRate": "NA", "rt": 19497, "rating": 7}, "3": {"stimulus": 50, "trial": 3, "categoryRate": "NA", "rt": 5796, "rating": 7}, "2": {"stimulus": 2, "trial": 2, "categoryRate": "NA", "rt": 9443, "rating": 7}, "5": {"stimulus": 4, "trial": 5, "categoryRate": "NA", "rt": 7931, "rating": 8}, "4": {"stimulus": 30, "trial": 4, "categoryRate": "NA", "rt": 2124, "rating": 8}, "7": {"stimulus": 6, "trial": 7, "categoryRate": "NA", "rt": 2635, "rating": 7}, "6": {"stimulus": 5, "trial": 6, "categoryRate": "NA", "rt": 2963, "rating": 7}, "9": {"stimulus": -1, "trial": 9, "categoryRate": "Alpha", "rt": 6110, "rating": 8}, "8": {"stimulus": -1, "trial": 8, "categoryRate": "Beta", "rt": 19146, "rating": 9}}, "submit": {"timeTotal": 240127, "age": "36", "comments": "Prejudice towards different colors and if people view lighter colors or darker colors more positively.", "sex": "Male"}}