{"info": {"finish": 1521092915716, "participant": 80, "exposed": true, "stimuli": [30, 32, 48, 50, 7, 48, 80, 8], "lab": false, "pptmatch": 80, "start": 1521091855777, "catflip": false, "categories": [0, 0, 0, 0, 1, 1, 1, 1], "counterbalance": 5, "condition": "Middle", "browser": {"platform": "Win32", "userAgent": "Mozilla/5.0 (Windows NT 6.1; Win64; x64) AppleWebKit/537.36 (KHTML, like Gecko) Chrome/64.0.3282.186 Safari/537.36"}}, "assignment": {"24": {"stimulus": 30, "trial": 24, "rt": 894, "correctcat": 0, "response": 1}, "25": {"stimulus": 80, "trial": 25, "rt": 1126, "correctcat": 1, "response": 1}, "26": {"stimulus": 8, "trial": 26, "rt": 1014, "correctcat": 1, "response": 1}, "27": {"stimulus": 48, "trial": 27, "rt": 941, "correctcat": 0, "response": 0}, "20": {"stimulus": 32, "trial": 20, "rt": 1005, "correctcat": 0, "response": 0}, "21": {"stimulus": 7, "trial": 21, "rt": 1169, "correctcat": 1, "response": 1}, "22": {"stimulus": 80, "trial": 22, "rt": 1957, "correctcat": 1, "response": 1}, "23": {"stimulus": 48, "trial": 23, "rt": 1236, "correctcat": 0, "response": 0}, "28": {"stimulus": 7, "trial": 28, "rt": 937, "correctcat": 1, "response": 1}, "29": {"stimulus": 32, "trial": 29, "rt": 1166, "correctcat": 0, "response": 1}, "1": {"stimulus": 48, "trial": 1, "rt": 3240, "correctcat": 1, "response": 0}, "0": {"stimulus": 7, "trial": 0, "rt": 3105, "correctcat": 1, "response": 0}, "3": {"stimulus": 80, "trial": 3, "rt": 2597, "correctcat": 1, "response": 0}, "2": {"stimulus": 50, "trial": 2, "rt": 1647, "correctcat": 0, "response": 1}, "5": {"stimulus": 48, "trial": 5, "rt": 2904, "correctcat": 0, "response": 0}, "4": {"stimulus": 8, "trial": 4, "rt": 1333, "correctcat": 1, "response": 1}, "7": {"stimulus": 30, "trial": 7, "rt": 2054, "correctcat": 0, "response": 0}, "6": {"stimulus": 32, "trial": 6, "rt": 1390, "correctcat": 0, "response": 1}, "9": {"stimulus": 48, "trial": 9, "rt": 1134, "correctcat": 1, "response": 0}, "8": {"stimulus": 50, "trial": 8, "rt": 1489, "correctcat": 0, "response": 1}, "11": {"stimulus": 32, "trial": 11, "rt": 719, "correctcat": 0, "response": 0}, "10": {"stimulus": 80, "trial": 10, "rt": 1107, "correctcat": 1, "response": 1}, "13": {"stimulus": 7, "trial": 13, "rt": 961, "correctcat": 1, "response": 1}, "12": {"stimulus": 8, "trial": 12, "rt": 1456, "correctcat": 1, "response": 1}, "15": {"stimulus": 30, "trial": 15, "rt": 1177, "correctcat": 0, "response": 1}, "14": {"stimulus": 48, "trial": 14, "rt": 1091, "correctcat": 0, "response": 0}, "17": {"stimulus": 8, "trial": 17, "rt": 1232, "correctcat": 1, "response": 0}, "16": {"stimulus": 30, "trial": 16, "rt": 1349, "correctcat": 0, "response": 1}, "19": {"stimulus": 48, "trial": 19, "rt": 816, "correctcat": 1, "response": 1}, "18": {"stimulus": 50, "trial": 18, "rt": 1022, "correctcat": 0, "response": 0}, "31": {"stimulus": 48, "trial": 31, "rt": 1854, "correctcat": 1, "response": 1}, "30": {"stimulus": 50, "trial": 30, "rt": 1236, "correctcat": 0, "response": 1}}, "experiment": {"Paradigm": "TACL", "Stimuli": "Size-Color Squares", "Experiment": "Assigning-Generated-Categories"}, "goodness": {"1": {"stimulus": 48, "trial": 1, "categoryRate": "NA", "rt": 1835, "rating": 2}, "0": {"stimulus": 80, "trial": 0, "categoryRate": "NA", "rt": 14327, "rating": 1}, "3": {"stimulus": 32, "trial": 3, "categoryRate": "NA", "rt": 1920, "rating": 3}, "2": {"stimulus": 7, "trial": 2, "categoryRate": "NA", "rt": 1563, "rating": 9}, "5": {"stimulus": 50, "trial": 5, "categoryRate": "NA", "rt": 1893, "rating": 2}, "4": {"stimulus": 8, "trial": 4, "categoryRate": "NA", "rt": 1727, "rating": 10}, "7": {"stimulus": 48, "trial": 7, "categoryRate": "NA", "rt": 1833, "rating": 6}, "6": {"stimulus": 30, "trial": 6, "categoryRate": "NA", "rt": 1490, "rating": 4}, "9": {"stimulus": -1, "trial": 9, "categoryRate": "Beta", "rt": 4062, "rating": 7}, "8": {"stimulus": -1, "trial": 8, "categoryRate": "Alpha", "rt": 12041, "rating": 6}}, "submit": {"timeTotal": 1060470, "age": "32", "comments": "Nice study!", "sex": "male"}}