{"info": {"finish": 1521092759305, "participant": 83, "exposed": true, "stimuli": [30, 32, 48, 50, 79, 16, 26, 8], "lab": false, "pptmatch": 83, "start": 1521092521321, "catflip": true, "categories": [1, 1, 1, 1, 0, 0, 0, 0], "counterbalance": 5, "condition": "Middle", "browser": {"platform": "Win32", "userAgent": "Mozilla/5.0 (Windows NT 10.0; Win64; x64) AppleWebKit/537.36 (KHTML, like Gecko) Chrome/64.0.3282.186 Safari/537.36"}}, "assignment": {"24": {"stimulus": 32, "trial": 24, "rt": 1322, "correctcat": 1, "response": 1}, "25": {"stimulus": 79, "trial": 25, "rt": 1113, "correctcat": 0, "response": 0}, "26": {"stimulus": 30, "trial": 26, "rt": 1090, "correctcat": 1, "response": 1}, "27": {"stimulus": 50, "trial": 27, "rt": 901, "correctcat": 1, "response": 1}, "20": {"stimulus": 8, "trial": 20, "rt": 1187, "correctcat": 0, "response": 0}, "21": {"stimulus": 16, "trial": 21, "rt": 1334, "correctcat": 0, "response": 0}, "22": {"stimulus": 79, "trial": 22, "rt": 765, "correctcat": 0, "response": 0}, "23": {"stimulus": 30, "trial": 23, "rt": 964, "correctcat": 1, "response": 1}, "28": {"stimulus": 48, "trial": 28, "rt": 1005, "correctcat": 1, "response": 1}, "29": {"stimulus": 8, "trial": 29, "rt": 972, "correctcat": 0, "response": 0}, "1": {"stimulus": 79, "trial": 1, "rt": 1133, "correctcat": 0, "response": 0}, "0": {"stimulus": 48, "trial": 0, "rt": 4434, "correctcat": 1, "response": 0}, "3": {"stimulus": 8, "trial": 3, "rt": 820, "correctcat": 0, "response": 0}, "2": {"stimulus": 26, "trial": 2, "rt": 889, "correctcat": 0, "response": 0}, "5": {"stimulus": 32, "trial": 5, "rt": 673, "correctcat": 1, "response": 1}, "4": {"stimulus": 50, "trial": 4, "rt": 1138, "correctcat": 1, "response": 1}, "7": {"stimulus": 30, "trial": 7, "rt": 1358, "correctcat": 1, "response": 1}, "6": {"stimulus": 16, "trial": 6, "rt": 1459, "correctcat": 0, "response": 0}, "9": {"stimulus": 48, "trial": 9, "rt": 1375, "correctcat": 1, "response": 1}, "8": {"stimulus": 16, "trial": 8, "rt": 1231, "correctcat": 0, "response": 0}, "11": {"stimulus": 50, "trial": 11, "rt": 2754, "correctcat": 1, "response": 1}, "10": {"stimulus": 30, "trial": 10, "rt": 1163, "correctcat": 1, "response": 1}, "13": {"stimulus": 32, "trial": 13, "rt": 5043, "correctcat": 1, "response": 1}, "12": {"stimulus": 26, "trial": 12, "rt": 942, "correctcat": 0, "response": 0}, "15": {"stimulus": 79, "trial": 15, "rt": 989, "correctcat": 0, "response": 0}, "14": {"stimulus": 8, "trial": 14, "rt": 935, "correctcat": 0, "response": 0}, "17": {"stimulus": 32, "trial": 17, "rt": 1070, "correctcat": 1, "response": 1}, "16": {"stimulus": 26, "trial": 16, "rt": 3050, "correctcat": 0, "response": 0}, "19": {"stimulus": 48, "trial": 19, "rt": 858, "correctcat": 1, "response": 1}, "18": {"stimulus": 50, "trial": 18, "rt": 935, "correctcat": 1, "response": 1}, "31": {"stimulus": 16, "trial": 31, "rt": 794, "correctcat": 0, "response": 0}, "30": {"stimulus": 26, "trial": 30, "rt": 703, "correctcat": 0, "response": 0}}, "experiment": {"Paradigm": "TACL", "Stimuli": "Size-Color Squares", "Experiment": "Assigning-Generated-Categories"}, "goodness": {"1": {"stimulus": 50, "trial": 1, "categoryRate": "NA", "rt": 2635, "rating": 10}, "0": {"stimulus": 30, "trial": 0, "categoryRate": "NA", "rt": 16201, "rating": 10}, "3": {"stimulus": 16, "trial": 3, "categoryRate": "NA", "rt": 3457, "rating": 10}, "2": {"stimulus": 79, "trial": 2, "categoryRate": "NA", "rt": 2129, "rating": 0}, "5": {"stimulus": 26, "trial": 5, "categoryRate": "NA", "rt": 2700, "rating": 10}, "4": {"stimulus": 8, "trial": 4, "categoryRate": "NA", "rt": 4945, "rating": 10}, "7": {"stimulus": 32, "trial": 7, "categoryRate": "NA", "rt": 2848, "rating": 9}, "6": {"stimulus": 48, "trial": 6, "categoryRate": "NA", "rt": 2196, "rating": 10}, "9": {"stimulus": -1, "trial": 9, "categoryRate": "Beta", "rt": 6168, "rating": 10}, "8": {"stimulus": -1, "trial": 8, "categoryRate": "Alpha", "rt": 8816, "rating": 10}}, "submit": {"timeTotal": 238428, "age": "42", "comments": "no comments today", "sex": "female"}}