{"info": {"finish": 1521094053374, "participant": 85, "exposed": true, "stimuli": [12, 14, 30, 32, 80, 8, 0, 72], "lab": false, "pptmatch": 85, "start": 1521093766949, "catflip": false, "categories": [0, 0, 0, 0, 1, 1, 1, 1], "counterbalance": 1, "condition": "Bottom", "browser": {"platform": "Win32", "userAgent": "Mozilla/5.0 (Windows NT 10.0; Win64; x64) AppleWebKit/537.36 (KHTML, like Gecko) Chrome/64.0.3282.186 Safari/537.36"}}, "assignment": {"24": {"stimulus": 0, "trial": 24, "rt": 982, "correctcat": 1, "response": 1}, "25": {"stimulus": 30, "trial": 25, "rt": 24429, "correctcat": 0, "response": 0}, "26": {"stimulus": 32, "trial": 26, "rt": 588, "correctcat": 0, "response": 0}, "27": {"stimulus": 14, "trial": 27, "rt": 1062, "correctcat": 0, "response": 1}, "20": {"stimulus": 8, "trial": 20, "rt": 1102, "correctcat": 1, "response": 1}, "21": {"stimulus": 32, "trial": 21, "rt": 1188, "correctcat": 0, "response": 0}, "22": {"stimulus": 14, "trial": 22, "rt": 2868, "correctcat": 0, "response": 0}, "23": {"stimulus": 0, "trial": 23, "rt": 25224, "correctcat": 1, "response": 0}, "28": {"stimulus": 80, "trial": 28, "rt": 660, "correctcat": 1, "response": 1}, "29": {"stimulus": 12, "trial": 29, "rt": 1357, "correctcat": 0, "response": 0}, "1": {"stimulus": 12, "trial": 1, "rt": 1125, "correctcat": 0, "response": 0}, "0": {"stimulus": 72, "trial": 0, "rt": 1419, "correctcat": 1, "response": 1}, "3": {"stimulus": 14, "trial": 3, "rt": 1078, "correctcat": 0, "response": 0}, "2": {"stimulus": 0, "trial": 2, "rt": 504, "correctcat": 1, "response": 0}, "5": {"stimulus": 32, "trial": 5, "rt": 2176, "correctcat": 0, "response": 0}, "4": {"stimulus": 30, "trial": 4, "rt": 1540, "correctcat": 0, "response": 1}, "7": {"stimulus": 8, "trial": 7, "rt": 927, "correctcat": 1, "response": 0}, "6": {"stimulus": 80, "trial": 6, "rt": 924, "correctcat": 1, "response": 1}, "9": {"stimulus": 8, "trial": 9, "rt": 1963, "correctcat": 1, "response": 1}, "8": {"stimulus": 80, "trial": 8, "rt": 1219, "correctcat": 1, "response": 1}, "11": {"stimulus": 32, "trial": 11, "rt": 1155, "correctcat": 0, "response": 0}, "10": {"stimulus": 30, "trial": 10, "rt": 1587, "correctcat": 0, "response": 0}, "13": {"stimulus": 12, "trial": 13, "rt": 1136, "correctcat": 0, "response": 1}, "12": {"stimulus": 0, "trial": 12, "rt": 3796, "correctcat": 1, "response": 0}, "15": {"stimulus": 72, "trial": 15, "rt": 1465, "correctcat": 1, "response": 1}, "14": {"stimulus": 14, "trial": 14, "rt": 2348, "correctcat": 0, "response": 0}, "17": {"stimulus": 80, "trial": 17, "rt": 1769, "correctcat": 1, "response": 1}, "16": {"stimulus": 72, "trial": 16, "rt": 1325, "correctcat": 1, "response": 1}, "19": {"stimulus": 12, "trial": 19, "rt": 1634, "correctcat": 0, "response": 1}, "18": {"stimulus": 30, "trial": 18, "rt": 1331, "correctcat": 0, "response": 0}, "31": {"stimulus": 72, "trial": 31, "rt": 822, "correctcat": 1, "response": 1}, "30": {"stimulus": 8, "trial": 30, "rt": 1314, "correctcat": 1, "response": 1}}, "experiment": {"Paradigm": "TACL", "Stimuli": "Size-Color Squares", "Experiment": "Assigning-Generated-Categories"}, "goodness": {"1": {"stimulus": 72, "trial": 1, "categoryRate": "NA", "rt": 2217, "rating": 4}, "0": {"stimulus": 32, "trial": 0, "categoryRate": "NA", "rt": 6103, "rating": 6}, "3": {"stimulus": 30, "trial": 3, "categoryRate": "NA", "rt": 45442, "rating": 6}, "2": {"stimulus": 8, "trial": 2, "categoryRate": "NA", "rt": 2539, "rating": 3}, "5": {"stimulus": 0, "trial": 5, "categoryRate": "NA", "rt": 1915, "rating": 2}, "4": {"stimulus": 80, "trial": 4, "categoryRate": "NA", "rt": 2384, "rating": 1}, "7": {"stimulus": 12, "trial": 7, "categoryRate": "NA", "rt": 1784, "rating": 6}, "6": {"stimulus": 14, "trial": 6, "categoryRate": "NA", "rt": 1679, "rating": 6}, "9": {"stimulus": -1, "trial": 9, "categoryRate": "Alpha", "rt": 4109, "rating": 8}, "8": {"stimulus": -1, "trial": 8, "categoryRate": "Beta", "rt": 9207, "rating": 6}}, "submit": {"timeTotal": 286731, "age": "18", "comments": "None", "sex": "male"}}