{"info": {"finish": 1521095731684, "participant": 87, "exposed": true, "stimuli": [30, 32, 48, 50, 8, 80, 62, 17], "lab": false, "pptmatch": 87, "start": 1521095480965, "catflip": false, "categories": [0, 0, 0, 0, 1, 1, 1, 1], "counterbalance": 5, "condition": "Middle", "browser": {"platform": "Win32", "userAgent": "Mozilla/5.0 (Windows NT 10.0; Win64; x64) AppleWebKit/537.36 (KHTML, like Gecko) Chrome/64.0.3282.186 Safari/537.36"}}, "assignment": {"24": {"stimulus": 32, "trial": 24, "rt": 1310, "correctcat": 0, "response": 0}, "25": {"stimulus": 48, "trial": 25, "rt": 1124, "correctcat": 0, "response": 0}, "26": {"stimulus": 30, "trial": 26, "rt": 1505, "correctcat": 0, "response": 0}, "27": {"stimulus": 80, "trial": 27, "rt": 1157, "correctcat": 1, "response": 1}, "20": {"stimulus": 30, "trial": 20, "rt": 1205, "correctcat": 0, "response": 0}, "21": {"stimulus": 62, "trial": 21, "rt": 1872, "correctcat": 1, "response": 1}, "22": {"stimulus": 48, "trial": 22, "rt": 1509, "correctcat": 0, "response": 0}, "23": {"stimulus": 8, "trial": 23, "rt": 1125, "correctcat": 1, "response": 1}, "28": {"stimulus": 17, "trial": 28, "rt": 1028, "correctcat": 1, "response": 1}, "29": {"stimulus": 8, "trial": 29, "rt": 1148, "correctcat": 1, "response": 1}, "1": {"stimulus": 30, "trial": 1, "rt": 1360, "correctcat": 0, "response": 0}, "0": {"stimulus": 32, "trial": 0, "rt": 2520, "correctcat": 0, "response": 0}, "3": {"stimulus": 8, "trial": 3, "rt": 999, "correctcat": 1, "response": 1}, "2": {"stimulus": 48, "trial": 2, "rt": 1064, "correctcat": 0, "response": 0}, "5": {"stimulus": 50, "trial": 5, "rt": 1402, "correctcat": 0, "response": 0}, "4": {"stimulus": 62, "trial": 4, "rt": 1073, "correctcat": 1, "response": 1}, "7": {"stimulus": 17, "trial": 7, "rt": 1654, "correctcat": 1, "response": 1}, "6": {"stimulus": 80, "trial": 6, "rt": 1142, "correctcat": 1, "response": 1}, "9": {"stimulus": 48, "trial": 9, "rt": 1729, "correctcat": 0, "response": 0}, "8": {"stimulus": 50, "trial": 8, "rt": 906, "correctcat": 0, "response": 0}, "11": {"stimulus": 62, "trial": 11, "rt": 1148, "correctcat": 1, "response": 1}, "10": {"stimulus": 32, "trial": 10, "rt": 1610, "correctcat": 0, "response": 0}, "13": {"stimulus": 8, "trial": 13, "rt": 1139, "correctcat": 1, "response": 1}, "12": {"stimulus": 80, "trial": 12, "rt": 986, "correctcat": 1, "response": 1}, "15": {"stimulus": 30, "trial": 15, "rt": 1550, "correctcat": 0, "response": 0}, "14": {"stimulus": 17, "trial": 14, "rt": 1055, "correctcat": 1, "response": 1}, "17": {"stimulus": 17, "trial": 17, "rt": 2052, "correctcat": 1, "response": 1}, "16": {"stimulus": 80, "trial": 16, "rt": 1167, "correctcat": 1, "response": 1}, "19": {"stimulus": 50, "trial": 19, "rt": 3156, "correctcat": 0, "response": 0}, "18": {"stimulus": 32, "trial": 18, "rt": 943, "correctcat": 0, "response": 0}, "31": {"stimulus": 62, "trial": 31, "rt": 1206, "correctcat": 1, "response": 1}, "30": {"stimulus": 50, "trial": 30, "rt": 1021, "correctcat": 0, "response": 0}}, "experiment": {"Paradigm": "TACL", "Stimuli": "Size-Color Squares", "Experiment": "Assigning-Generated-Categories"}, "goodness": {"1": {"stimulus": 62, "trial": 1, "categoryRate": "NA", "rt": 4320, "rating": 10}, "0": {"stimulus": 32, "trial": 0, "categoryRate": "NA", "rt": 6008, "rating": 4}, "3": {"stimulus": 17, "trial": 3, "categoryRate": "NA", "rt": 3133, "rating": 9}, "2": {"stimulus": 8, "trial": 2, "categoryRate": "NA", "rt": 2766, "rating": 9}, "5": {"stimulus": 48, "trial": 5, "categoryRate": "NA", "rt": 2037, "rating": 0}, "4": {"stimulus": 30, "trial": 4, "categoryRate": "NA", "rt": 4828, "rating": 0}, "7": {"stimulus": 50, "trial": 7, "categoryRate": "NA", "rt": 3129, "rating": 3}, "6": {"stimulus": 80, "trial": 6, "categoryRate": "NA", "rt": 2379, "rating": 10}, "9": {"stimulus": -1, "trial": 9, "categoryRate": "Alpha", "rt": 7485, "rating": 1}, "8": {"stimulus": -1, "trial": 8, "categoryRate": "Beta", "rt": 8438, "rating": 10}}, "submit": {"timeTotal": 251013, "age": "48", "comments": "interesting!", "sex": "female"}}