{"info": {"finish": 1521097128026, "participant": 90, "exposed": true, "stimuli": [12, 14, 30, 32, 17, 35, 34, 80], "lab": false, "pptmatch": 90, "start": 1521096430019, "catflip": true, "categories": [1, 1, 1, 1, 0, 0, 0, 0], "counterbalance": 5, "condition": "Bottom", "browser": {"platform": "Win32", "userAgent": "Mozilla/5.0 (Windows NT 6.3; Win64; x64) AppleWebKit/537.36 (KHTML, like Gecko) Chrome/64.0.3282.186 Safari/537.36"}}, "assignment": {"24": {"stimulus": 14, "trial": 24, "rt": 2741, "correctcat": 1, "response": 1}, "25": {"stimulus": 35, "trial": 25, "rt": 261, "correctcat": 0, "response": 1}, "26": {"stimulus": 12, "trial": 26, "rt": 1811, "correctcat": 1, "response": 1}, "27": {"stimulus": 17, "trial": 27, "rt": 1252, "correctcat": 0, "response": 1}, "20": {"stimulus": 17, "trial": 20, "rt": 674, "correctcat": 0, "response": 0}, "21": {"stimulus": 34, "trial": 21, "rt": 997, "correctcat": 0, "response": 0}, "22": {"stimulus": 12, "trial": 22, "rt": 280, "correctcat": 1, "response": 0}, "23": {"stimulus": 30, "trial": 23, "rt": 390, "correctcat": 1, "response": 0}, "28": {"stimulus": 32, "trial": 28, "rt": 804, "correctcat": 1, "response": 1}, "29": {"stimulus": 30, "trial": 29, "rt": 656, "correctcat": 1, "response": 1}, "1": {"stimulus": 34, "trial": 1, "rt": 1490, "correctcat": 0, "response": 0}, "0": {"stimulus": 14, "trial": 0, "rt": 1935, "correctcat": 1, "response": 0}, "3": {"stimulus": 35, "trial": 3, "rt": 2184, "correctcat": 0, "response": 1}, "2": {"stimulus": 17, "trial": 2, "rt": 1287, "correctcat": 0, "response": 0}, "5": {"stimulus": 12, "trial": 5, "rt": 1882, "correctcat": 1, "response": 0}, "4": {"stimulus": 32, "trial": 4, "rt": 644, "correctcat": 1, "response": 0}, "7": {"stimulus": 30, "trial": 7, "rt": 341, "correctcat": 1, "response": 0}, "6": {"stimulus": 80, "trial": 6, "rt": 13819, "correctcat": 0, "response": 1}, "9": {"stimulus": 32, "trial": 9, "rt": 12094, "correctcat": 1, "response": 1}, "8": {"stimulus": 35, "trial": 8, "rt": 14188, "correctcat": 0, "response": 0}, "11": {"stimulus": 80, "trial": 11, "rt": 4112, "correctcat": 0, "response": 0}, "10": {"stimulus": 17, "trial": 10, "rt": 798, "correctcat": 0, "response": 0}, "13": {"stimulus": 34, "trial": 13, "rt": 1786, "correctcat": 0, "response": 1}, "12": {"stimulus": 12, "trial": 12, "rt": 76399, "correctcat": 1, "response": 1}, "15": {"stimulus": 30, "trial": 15, "rt": 38608, "correctcat": 1, "response": 0}, "14": {"stimulus": 14, "trial": 14, "rt": 76014, "correctcat": 1, "response": 1}, "17": {"stimulus": 32, "trial": 17, "rt": 248458, "correctcat": 1, "response": 1}, "16": {"stimulus": 14, "trial": 16, "rt": 960, "correctcat": 1, "response": 1}, "19": {"stimulus": 35, "trial": 19, "rt": 660, "correctcat": 0, "response": 0}, "18": {"stimulus": 80, "trial": 18, "rt": 43662, "correctcat": 0, "response": 1}, "31": {"stimulus": 80, "trial": 31, "rt": 626, "correctcat": 0, "response": 0}, "30": {"stimulus": 34, "trial": 30, "rt": 620, "correctcat": 0, "response": 1}}, "experiment": {"Paradigm": "TACL", "Stimuli": "Size-Color Squares", "Experiment": "Assigning-Generated-Categories"}, "goodness": {"1": {"stimulus": 14, "trial": 1, "categoryRate": "NA", "rt": 3488, "rating": 6}, "0": {"stimulus": 17, "trial": 0, "categoryRate": "NA", "rt": 15291, "rating": 3}, "3": {"stimulus": 12, "trial": 3, "categoryRate": "NA", "rt": 1255, "rating": 3}, "2": {"stimulus": 80, "trial": 2, "categoryRate": "NA", "rt": 2205, "rating": 7}, "5": {"stimulus": 30, "trial": 5, "categoryRate": "NA", "rt": 1513, "rating": 6}, "4": {"stimulus": 35, "trial": 4, "categoryRate": "NA", "rt": 992, "rating": 7}, "7": {"stimulus": 34, "trial": 7, "categoryRate": "NA", "rt": 1883, "rating": 4}, "6": {"stimulus": 32, "trial": 6, "categoryRate": "NA", "rt": 1331, "rating": 6}, "9": {"stimulus": -1, "trial": 9, "categoryRate": "Beta", "rt": 1467, "rating": 4}, "8": {"stimulus": -1, "trial": 8, "categoryRate": "Alpha", "rt": 2826, "rating": 7}}, "submit": {"timeTotal": 698573, "age": "32", "comments": "", "sex": "m"}}