{"info": {"finish": 1521097004870, "participant": 93, "exposed": true, "stimuli": [12, 14, 30, 32, 80, 72, 73, 70], "lab": false, "pptmatch": 93, "start": 1521096760545, "catflip": false, "categories": [0, 0, 0, 0, 1, 1, 1, 1], "counterbalance": 0, "condition": "Bottom", "browser": {"platform": "Win32", "userAgent": "Mozilla/5.0 (Windows NT 10.0; Win64; x64) AppleWebKit/537.36 (KHTML, like Gecko) Chrome/64.0.3282.186 Safari/537.36"}}, "assignment": {"24": {"stimulus": 73, "trial": 24, "rt": 763, "correctcat": 1, "response": 1}, "25": {"stimulus": 80, "trial": 25, "rt": 737, "correctcat": 1, "response": 1}, "26": {"stimulus": 14, "trial": 26, "rt": 774, "correctcat": 0, "response": 0}, "27": {"stimulus": 70, "trial": 27, "rt": 1254, "correctcat": 1, "response": 1}, "20": {"stimulus": 80, "trial": 20, "rt": 1479, "correctcat": 1, "response": 1}, "21": {"stimulus": 30, "trial": 21, "rt": 1189, "correctcat": 0, "response": 0}, "22": {"stimulus": 73, "trial": 22, "rt": 1171, "correctcat": 1, "response": 1}, "23": {"stimulus": 72, "trial": 23, "rt": 914, "correctcat": 1, "response": 1}, "28": {"stimulus": 30, "trial": 28, "rt": 1131, "correctcat": 0, "response": 0}, "29": {"stimulus": 72, "trial": 29, "rt": 1083, "correctcat": 1, "response": 1}, "1": {"stimulus": 72, "trial": 1, "rt": 1289, "correctcat": 1, "response": 1}, "0": {"stimulus": 73, "trial": 0, "rt": 2162, "correctcat": 1, "response": 1}, "3": {"stimulus": 30, "trial": 3, "rt": 1168, "correctcat": 0, "response": 0}, "2": {"stimulus": 80, "trial": 2, "rt": 1958, "correctcat": 1, "response": 1}, "5": {"stimulus": 32, "trial": 5, "rt": 1113, "correctcat": 0, "response": 0}, "4": {"stimulus": 70, "trial": 4, "rt": 1218, "correctcat": 1, "response": 1}, "7": {"stimulus": 14, "trial": 7, "rt": 798, "correctcat": 0, "response": 0}, "6": {"stimulus": 12, "trial": 6, "rt": 923, "correctcat": 0, "response": 0}, "9": {"stimulus": 72, "trial": 9, "rt": 1010, "correctcat": 1, "response": 1}, "8": {"stimulus": 14, "trial": 8, "rt": 516, "correctcat": 0, "response": 0}, "11": {"stimulus": 32, "trial": 11, "rt": 758, "correctcat": 0, "response": 0}, "10": {"stimulus": 30, "trial": 10, "rt": 914, "correctcat": 0, "response": 0}, "13": {"stimulus": 12, "trial": 13, "rt": 826, "correctcat": 0, "response": 0}, "12": {"stimulus": 73, "trial": 12, "rt": 797, "correctcat": 1, "response": 1}, "15": {"stimulus": 80, "trial": 15, "rt": 825, "correctcat": 1, "response": 1}, "14": {"stimulus": 70, "trial": 14, "rt": 824, "correctcat": 1, "response": 1}, "17": {"stimulus": 70, "trial": 17, "rt": 855, "correctcat": 1, "response": 1}, "16": {"stimulus": 12, "trial": 16, "rt": 919, "correctcat": 0, "response": 0}, "19": {"stimulus": 14, "trial": 19, "rt": 684, "correctcat": 0, "response": 0}, "18": {"stimulus": 32, "trial": 18, "rt": 1931, "correctcat": 0, "response": 0}, "31": {"stimulus": 32, "trial": 31, "rt": 2853, "correctcat": 0, "response": 0}, "30": {"stimulus": 12, "trial": 30, "rt": 1056, "correctcat": 0, "response": 0}}, "experiment": {"Paradigm": "TACL", "Stimuli": "Size-Color Squares", "Experiment": "Assigning-Generated-Categories"}, "goodness": {"1": {"stimulus": 12, "trial": 1, "categoryRate": "NA", "rt": 2528, "rating": 0}, "0": {"stimulus": 73, "trial": 0, "categoryRate": "NA", "rt": 10106, "rating": 9}, "3": {"stimulus": 70, "trial": 3, "categoryRate": "NA", "rt": 2776, "rating": 8}, "2": {"stimulus": 72, "trial": 2, "categoryRate": "NA", "rt": 2183, "rating": 10}, "5": {"stimulus": 14, "trial": 5, "categoryRate": "NA", "rt": 2565, "rating": 0}, "4": {"stimulus": 80, "trial": 4, "categoryRate": "NA", "rt": 4505, "rating": 9}, "7": {"stimulus": 30, "trial": 7, "categoryRate": "NA", "rt": 3577, "rating": 2}, "6": {"stimulus": 32, "trial": 6, "categoryRate": "NA", "rt": 3887, "rating": 2}, "9": {"stimulus": -1, "trial": 9, "categoryRate": "Alpha", "rt": 6640, "rating": 8}, "8": {"stimulus": -1, "trial": 8, "categoryRate": "Beta", "rt": 9440, "rating": 9}}, "submit": {"timeTotal": 244611, "age": "20", "comments": "I really enjoyed it and hope I helped. Thank you!", "sex": "Male"}}