{"info": {"finish": 1521101908627, "participant": 99, "exposed": true, "stimuli": [30, 32, 48, 50, 4, 76, 72, 36], "lab": false, "pptmatch": 99, "start": 1521101139778, "catflip": true, "categories": [1, 1, 1, 1, 0, 0, 0, 0], "counterbalance": 1, "condition": "Middle", "browser": {"platform": "Win32", "userAgent": "Mozilla/5.0 (Windows NT 10.0; Win64; x64) AppleWebKit/537.36 (KHTML, like Gecko) Chrome/64.0.3282.186 Safari/537.36"}}, "assignment": {"24": {"stimulus": 30, "trial": 24, "rt": 317, "correctcat": 1, "response": 0}, "25": {"stimulus": 4, "trial": 25, "rt": 6462, "correctcat": 0, "response": 0}, "26": {"stimulus": 72, "trial": 26, "rt": 414, "correctcat": 0, "response": 0}, "27": {"stimulus": 48, "trial": 27, "rt": 606, "correctcat": 1, "response": 1}, "20": {"stimulus": 50, "trial": 20, "rt": 15109, "correctcat": 1, "response": 0}, "21": {"stimulus": 48, "trial": 21, "rt": 53030, "correctcat": 1, "response": 1}, "22": {"stimulus": 76, "trial": 22, "rt": 381, "correctcat": 0, "response": 1}, "23": {"stimulus": 32, "trial": 23, "rt": 422, "correctcat": 1, "response": 1}, "28": {"stimulus": 32, "trial": 28, "rt": 502, "correctcat": 1, "response": 1}, "29": {"stimulus": 36, "trial": 29, "rt": 607, "correctcat": 0, "response": 0}, "1": {"stimulus": 30, "trial": 1, "rt": 1490, "correctcat": 1, "response": 1}, "0": {"stimulus": 48, "trial": 0, "rt": 2881, "correctcat": 1, "response": 0}, "3": {"stimulus": 72, "trial": 3, "rt": 16086, "correctcat": 0, "response": 0}, "2": {"stimulus": 36, "trial": 2, "rt": 2229, "correctcat": 0, "response": 1}, "5": {"stimulus": 32, "trial": 5, "rt": 1013, "correctcat": 1, "response": 0}, "4": {"stimulus": 4, "trial": 4, "rt": 1029, "correctcat": 0, "response": 0}, "7": {"stimulus": 50, "trial": 7, "rt": 1430, "correctcat": 1, "response": 0}, "6": {"stimulus": 76, "trial": 6, "rt": 822, "correctcat": 0, "response": 1}, "9": {"stimulus": 30, "trial": 9, "rt": 678, "correctcat": 1, "response": 0}, "8": {"stimulus": 72, "trial": 8, "rt": 469, "correctcat": 0, "response": 0}, "11": {"stimulus": 36, "trial": 11, "rt": 454859, "correctcat": 0, "response": 0}, "10": {"stimulus": 50, "trial": 10, "rt": 4550, "correctcat": 1, "response": 0}, "13": {"stimulus": 76, "trial": 13, "rt": 366, "correctcat": 0, "response": 1}, "12": {"stimulus": 32, "trial": 12, "rt": 558, "correctcat": 1, "response": 1}, "15": {"stimulus": 4, "trial": 15, "rt": 2390, "correctcat": 0, "response": 1}, "14": {"stimulus": 48, "trial": 14, "rt": 5134, "correctcat": 1, "response": 1}, "17": {"stimulus": 36, "trial": 17, "rt": 429, "correctcat": 0, "response": 1}, "16": {"stimulus": 30, "trial": 16, "rt": 31838, "correctcat": 1, "response": 1}, "19": {"stimulus": 4, "trial": 19, "rt": 550, "correctcat": 0, "response": 0}, "18": {"stimulus": 72, "trial": 18, "rt": 23274, "correctcat": 0, "response": 1}, "31": {"stimulus": 76, "trial": 31, "rt": 398, "correctcat": 0, "response": 1}, "30": {"stimulus": 50, "trial": 30, "rt": 253, "correctcat": 1, "response": 0}}, "experiment": {"Paradigm": "TACL", "Stimuli": "Size-Color Squares", "Experiment": "Assigning-Generated-Categories"}, "goodness": {"1": {"stimulus": 30, "trial": 1, "categoryRate": "NA", "rt": 2004, "rating": 6}, "0": {"stimulus": 32, "trial": 0, "categoryRate": "NA", "rt": 5219, "rating": 6}, "3": {"stimulus": 72, "trial": 3, "categoryRate": "NA", "rt": 2029, "rating": 6}, "2": {"stimulus": 48, "trial": 2, "categoryRate": "NA", "rt": 7420, "rating": 9}, "5": {"stimulus": 4, "trial": 5, "categoryRate": "NA", "rt": 2357, "rating": 7}, "4": {"stimulus": 36, "trial": 4, "categoryRate": "NA", "rt": 3910, "rating": 3}, "7": {"stimulus": 50, "trial": 7, "categoryRate": "NA", "rt": 2091, "rating": 7}, "6": {"stimulus": 76, "trial": 6, "categoryRate": "NA", "rt": 1902, "rating": 8}, "9": {"stimulus": -1, "trial": 9, "categoryRate": "Beta", "rt": 2716, "rating": 9}, "8": {"stimulus": -1, "trial": 8, "categoryRate": "Alpha", "rt": 5732, "rating": 9}}, "submit": {"timeTotal": 768982, "age": "24", "comments": "", "sex": "male"}}